acc_X;acc_X_std;acc_X_max;acc_Z;acc_Z_std;acc_Z_max;acc;acc_std;acc_var;acc_max;acc_range;fb_tilt_max;fb_tilt_var;fb_tilt_range;tilt_max;tilt_var;tilt_range;class;lat;lon
-3.591137140845242;2.765339240392252;0.3089678662783699;0.0020393596410727;0.05460816767975125;0.1101254206179259;3.7166036750163824;2.328338716707687;5.421161179719999;10.245828429361145;8.115016165419844;0.06393392474762916;0.001330439962527474;0.12644029774650756;0.1366370959518711;0.002344747757225711;0.1774242887733251;0.0;53.72778203;86.85367003
-4.206898219400895;2.765339240392252;0.3089678662783699;0.0122361578464362;0.05460816767975125;0.1101254206179259;4.5113665175455555;2.328338716707687;5.421161179719999;10.245828429361145;8.115016165419844;0.06393392474762916;0.001330439962527474;0.12644029774650756;0.1366370959518711;0.002344747757225711;0.1774242887733251;0.0;53.72778203;86.85367003
0.3089678662783699;2.765339240392252;0.3089678662783699;0.0091771183848271;0.05460816767975125;0.1101254206179259;2.130812263941301;2.328338716707687;5.421161179719999;10.245828429361145;8.115016165419844;0.06393392474762916;0.001330439962527474;0.12644029774650756;0.1366370959518711;0.002344747757225711;0.1774242887733251;90.0;53.72778203;86.85367003
-3.9923364598986257;2.765339240392252;0.3089678662783699;-0.0163148771285816;0.05460816767975125;0.1101254206179259;4.6644544882702075;2.328338716707687;5.421161179719999;10.245828429361145;8.115016165419844;0.06393392474762916;0.001330439962527474;0.12644029774650756;0.1366370959518711;0.002344747757225711;0.1774242887733251;90.0;53.72778203;86.85367003
-9.92108037065994;2.765339240392252;0.3089678662783699;-0.078515346181299;0.05460816767975125;0.1101254206179259;10.245828429361145;2.328338716707687;5.421161179719999;10.245828429361145;8.115016165419844;0.06393392474762916;0.001330439962527474;0.12644029774650756;0.1366370959518711;0.002344747757225711;0.1774242887733251;90.0;53.72778203;86.85367003
-2.120160851038181;2.765339240392252;0.3089678662783699;-0.0652595085143265;0.05460816767975125;0.1101254206179259;3.3270174249390427;2.328338716707687;5.421161179719999;10.245828429361145;8.115016165419844;0.06393392474762916;0.001330439962527474;0.12644029774650756;0.1366370959518711;0.002344747757225711;0.1774242887733251;90.0;53.72778203;86.85367003
-5.070437104527249;2.7877044083531834;0.3089678662783699;0.1101254206179259;0.05942049942692597;0.1101254206179259;5.6302463437166015;2.3697414378270487;5.615674482154609;10.245828429361145;8.115016165419844;0.06393392474762916;0.001275795484647309;0.12644029774650756;0.1366370959518711;0.0023828949170481856;0.1774242887733251;90.0;53.72773646;86.85381134000001
-3.6199228415448013;3.1506900558491453;0.7262745297049991;0.0509839910268175;0.059157152448557085;0.1101254206179259;4.247231775497204;2.65042428658886;7.024748898940067;10.245828429361145;9.296826342796898;0.06393392474762916;0.001291738271005581;0.12644029774650756;0.1366370959518711;0.0030301720431940293;0.1835423676965432;90.0;53.72768530999999;86.85393939
-1.7704625085577363;3.224993447580487;0.840824856469697;0.0305903946160905;0.0590249894221779;0.1101254206179259;2.6031651863910716;2.795717915895857;7.816038665261075;10.245828429361145;9.396799559086073;0.06393392474762916;0.001361401315744988;0.12644029774650756;0.1366370959518711;0.003140639378815622;0.1845620475170796;90.0;53.72762942000001;86.85404478000001
-6.280242569355467;3.218427103589568;0.840824856469697;-0.0193739165901906;0.06071306433319052;0.1101254206179259;6.462533108382107;2.801714969289473;7.8496067691407125;10.245828429361145;9.396799559086073;0.06393392474762916;0.0012297462481081262;0.12644029774650756;0.1366370959518711;0.003126360187555604;0.1845620475170796;90.0;53.727567869999994;86.85411379
-2.859901166220817;2.2406430396729995;0.840824856469697;-0.0703579076170082;0.05619670436004359;0.1101254206179259;3.0598817871835666;1.7969098991378762;3.2288851856196925;6.462533108382107;5.613504238107035;0.06393392474762916;0.0012219365933413208;0.12644029774650756;0.0795350260018354;0.0015535234441059027;0.12745997756704391;0.0;53.72749381;86.85414981
0.7262745297049991;2.43458926200271;0.840824856469697;-0.0050983991026817;0.05637826950863589;0.1101254206179259;0.949002086564247;1.9605506353669222;3.843758793837642;6.462533108382107;5.613504238107035;0.06393392474762916;0.0011750324537655346;0.12644029774650756;0.0795350260018354;0.0018199066092139;0.12745997756704391;0.0;53.727399160000004;86.85414988
0.840824856469697;2.5600935734152155;0.840824856469697;-0.0173345569491179;0.04397649588026265;0.0509839910268175;0.849028870275072;2.0406152337617227;4.164110532260411;6.462533108382107;5.613504238107035;0.06393392474762916;0.0012525513642466994;0.12644029774650756;0.0795350260018354;0.002047380133412723;0.12745997756704391;0.0;53.72729196;86.854099
-3.357753556830138;2.629624644877026;0.840824856469697;-0.0530233506678902;0.03703468280185913;0.0305903946160905;3.3796036882624;2.0920314583939783;4.376595622910036;6.462533108382107;5.613504238107035;0.0343632099520752;0.0008136481887150338;0.0968695829509536;0.0795350260018354;0.002164175484416738;0.12745997756704391;0.0;53.72718027999999;86.8540078
-2.4159600967256756;2.5898287283770687;0.840824856469697;-0.0193739165901906;0.030930708084476705;-0.0050983991026817;2.4960699599345775;2.0620082491719267;4.251878019653075;6.462533108382107;5.613504238107035;0.0343632099520752;0.0008472089092735698;0.0968695829509536;0.0795350260018354;0.002090422768394123;0.12745997756704391;0.0;53.727069119999996;86.85385568
-5.701950521377538;2.3916751243537746;0.840824856469697;-0.066789028245131;0.03298055209657128;-0.0050983991026817;5.777259254418191;1.8589465069384759;3.455682115658761;6.241150926747044;5.392122056471972;0.0343632099520752;0.00039914729614369727;0.063220148873254;0.0749464668094218;0.0017398547596682058;0.1228714183746303;30.0;53.726971070000005;86.85366291
-6.152675205599087;2.400257944469367;0.840824856469697;-0.0836137452839808;0.03286369865467406;-0.0050983991026817;6.241150926747044;1.862137839100269;3.467557331809019;6.241150926747044;5.392122056471972;0.0343632099520752;0.00035514289524612015;0.063220148873254;0.0749464668094218;0.0017533599170977852;0.1228714183746303;30.0;53.726894370000004;86.85344285
-4.996036449339407;2.0286890338666232;0.840824856469697;-0.0734169470786172;0.0272721200134962;-0.0173345569491179;5.157550511272205;1.6595333107647203;2.754050809537714;6.241150926747044;5.392122056471972;0.0343632099520752;0.0005087943869599015;0.07035790761700844;0.0749464668094218;0.0012565919363690203;0.1228714183746303;0.0;53.72684828;86.85322012
-4.014421410206939;1.7482304431908464;-0.46118923789992317;-0.0856531049250535;0.024462931423033317;-0.0193739165901906;4.300129510264506;1.5809791744589867;2.4994951500730194;6.241150926747044;4.977077016634007;0.05169776690119299;0.0006692504447352917;0.08769246456612623;0.0749464668094218;0.0009434663700975669;0.10043846232283049;0.0;53.72683216;86.85299663999999
-3.573185390283033;1.931984528107989;-0.46118923789992317;-0.1019679820536351;0.024332417960871155;-0.0193739165901906;4.173539584332189;1.7300070160749947;2.9929242756687073;6.241150926747044;4.977077016634007;0.05169776690119299;0.0006581049352141735;0.08769246456612623;0.0749464668094218;0.0011532988546086496;0.10043846232283049;0.0;53.72684511;86.85276895000001
-2.4647648574555765;2.0805093949688884;-0.46118923789992317;-0.0672988681553992;0.01778067448469764;-0.0346691138982359;2.97332630341712;1.7981080678948882;3.2331926238286877;6.241150926747044;4.977077016634007;0.05169776690119299;0.0006405678702200735;0.08769246456612623;0.0749464668094218;0.0013357397837172225;0.10043846232283049;0.0;53.726898989999995;86.85252843
-2.225193391673817;2.1356261026112864;0.3944310888214102;-0.0601611094116447;0.017879989461208327;-0.0346691138982359;2.6097583207046546;1.7091147074358526;2.92107308317354;6.241150926747044;4.977077016634007;0.05169776690119299;0.0007038075894412197;0.08769246456612623;0.0749464668094218;0.0014107055378323142;0.1157336596308758;0.0;53.72699649;86.85229057000001
-0.46118923789992317;1.7186953311441293;0.3944310888214102;-0.0346691138982359;0.031640679710013664;0.0122361578464362;1.2640739101130372;1.3357615601094566;1.7842589454660494;5.157550511272205;3.8934766011591675;0.05169776690119299;0.0005893661099737973;0.08769246456612623;0.0535331905781584;0.0008922443925497473;0.0943203833996124;0.0;53.727145199999995;86.85204759999999
-0.948106237027079;1.474265483802534;0.3944310888214102;-0.0759661466299581;0.03143425950009133;0.0122361578464362;1.6093116888337387;1.0687674270553928;1.1422638131346043;4.300129510264506;3.036055600151469;0.05169776690119299;0.0006858286319991441;0.08769246456612623;0.0346691138982359;0.0006519097763847312;0.07545630671968989;0.0;53.72732868000001;86.85180611999999
-0.7635577980076786;1.6829191481766737;2.4214271426001854;-0.0774956663607627;0.0333746054044971;0.0122361578464362;1.7707013392369033;0.8834654093347537;0.780511129491024;4.173539584332189;2.9094656742191516;0.05169776690119299;0.0007848240930890225;0.08769246456612623;0.0275313551544814;0.0008262060211581012;0.101967982053635;0.0;53.72753958999999;86.85157927
0.3944310888214102;1.5168948818496908;2.4214271426001854;-0.0644947486489242;0.029048958785479;0.0122361578464362;1.6717788313732789;0.5996866758287596;0.35962410916654775;3.014235460080971;1.7501615499679337;0.05169776690119299;0.0009127360717548117;0.08769246456612623;0.0081574385642908;0.0006833332393517613;0.0825940654634444;0.0;53.72776828;86.85135227999999
-1.6503104817079712;1.3438348725273532;2.4214271426001854;0.0122361578464362;0.028702384534992617;0.0122361578464362;2.365258904891085;0.5259455961036498;0.2766187700608235;3.014235460080971;1.7501615499679337;0.05169776690119299;0.0009115230336623342;0.08769246456612623;0.0040787192821454;0.00053434039155028;0.078515346181299;0.0;53.728008120000005;86.85112876000001
-0.08269081313752569;1.1519955227267238;2.4214271426001854;-0.0591414295911083;0.03316312777819896;0.0122361578464362;1.817319577359473;0.4832570942043495;0.2335374190988315;3.014235460080971;1.7501615499679337;0.05169776690119299;0.0008782511316972452;0.0856531049250534;-0.0061180789232181;0.00039037009908884126;0.0683185479759355;0.0;53.728259359999996;86.85089359999999
2.4214271426001854;1.1456881450245073;2.4214271426001854;-0.0142755174875089;0.036961820966250405;0.0122361578464362;3.014235460080971;0.4281253928094425;0.18329135196823942;3.014235460080971;1.4049237712472322;0.04557968797797496;0.0006916772085164458;0.07953502600183537;-0.0061180789232181;0.00038346155833358995;0.0683185479759355;0.0;53.72851684;86.850657
1.1683371326001337;1.0948736804274943;2.4214271426001854;-0.0591414295911083;0.05111587606503087;0.0122361578464362;2.152796054255779;0.41883306338494314;0.1754211349844158;3.014235460080971;1.342456628707692;0.04557968797797496;0.0009114999281748615;0.08463342510451743;-0.0061180789232181;0.00035213051731646417;0.0683185479759355;0.0;53.72877727;86.85041823
-0.16572709376194106;1.1408144191126213;2.4214271426001854;-0.035178953808504;0.05874542347010318;0.0122361578464362;1.7882713294154973;0.4148624190202274;0.17211082671531475;3.014235460080971;1.342456628707692;0.04557968797797496;0.001288546825547996;0.10502702151524435;-0.0061180789232181;0.00037784692487698125;0.0683185479759355;0.0;53.729037240000004;86.85018923999999
-0.3566731014519051;1.1370460606888362;2.4214271426001854;-0.0999286224125624;0.06111740406810854;0.0122361578464362;1.8025798386830518;0.4863174858429684;0.2365046970366258;3.014235460080971;1.8599608168087398;0.04557968797797496;0.0013376950855948653;0.10502702151524435;-0.0061180789232181;0.00037687649440299944;0.0683185479759355;0.0;53.72930209;86.84997537000001
0.2655908684766448;1.3284268762957205;3.160399937119916;0.0020393596410727;0.05452824640328843;0.0020393596410727;1.804561873441737;0.6334561604321367;0.4012667071894249;3.26573136261583;2.111456719343599;0.04557968797797496;0.0014527835187116095;0.10502702151524435;-0.0152951973080452;0.0005586935753497283;0.0785153461812991;0.0;53.7295576;86.84979824000001
0.3327231105149493;1.4056207860835137;3.160399937119916;-0.1600897318242072;0.05523082672084563;0.0020393596410727;1.7197553155280543;0.6350347117486987;0.4032690851257529;3.26573136261583;2.111456719343599;0.04557968797797496;0.0013769744143036524;0.10502702151524435;-0.0152951973080452;0.0006312448060236042;0.0785153461812991;30.0;53.729813039999996;86.84965176
-1.1808183828417014;1.6602458153604558;3.937512335786887;-0.147853573977771;0.052167361744265346;0.0020393596410727;1.8518839508776377;0.8351435200226545;0.6974646990358299;3.9863296897654;2.832055046493169;0.04557968797797496;0.0011988542113530454;0.10502702151524435;-0.0152951973080452;0.0008735289476943882;0.0876924645661263;30.0;53.73006932;86.8495394
-0.020457457068686846;1.9367297589900074;4.076539912715296;-0.1157336596308759;0.055318191528944086;0.0020393596410727;1.154274643272231;1.02915392425958;1.0591577998188932;4.093006124923751;2.93873148165152;0.04557968797797496;0.0012150742635610263;0.10502702151524435;-0.0152951973080452;0.0011472134468447246;0.0887121443866626;0.0;53.730316949999995;86.84944911
3.160399937119916;2.265007635361429;5.40826640473904;-0.0601611094116447;0.05770845791155018;0.0020393596410727;3.26573136261583;1.3762800713034389;1.894146834666999;5.410609339886864;4.256334696614633;0.04557968797797496;0.0012346446114529922;0.10502702151524435;-0.0152951973080452;0.0015506092644980247;0.1131844600795351;0.0;53.73055416999999;86.84937657
2.240933913937311;2.1756442924604804;5.40826640473904;-0.0438462322830631;0.06200758702007065;0.0122361578464361;2.343841762706238;1.3459023383351272;1.8114531043359632;5.410609339886864;4.256334696614633;0.03334353013153879;0.0009829767536811166;0.09279086366880818;-0.0152951973080452;0.001414564154240769;0.1131844600795351;0.0;53.73078812;86.84932635999999
3.937512335786887;2.0801564615069874;5.40826640473904;-0.0479249515652085;0.06246460244183858;0.0122361578464361;3.9863296897654;1.2900760711902157;1.6642962694575825;5.410609339886864;4.256334696614633;0.03334353013153879;0.0009041437185997688;0.09279086366880818;-0.0152951973080452;0.0012825884979651815;0.1131844600795351;0.0;53.73103183999999;86.84928592
4.076539912715296;1.9643022000860488;5.40826640473904;-0.0173345569491179;0.05299654461463069;0.0122361578464361;4.093006124923751;1.2186141473588914;1.485020440143238;5.410609339886864;4.256334696614633;0.03334353013153879;0.0008159731783922801;0.09279086366880818;-0.0152951973080452;0.0011506099535036598;0.1131844600795351;0.0;53.731271959999994;86.84926492
5.40826640473904;1.402312679178528;5.40826640473904;-0.0101967982053635;0.04182013466623989;0.023452635872336;5.410609339886864;1.1179672005571752;1.2498506615216474;5.410609339886864;4.256334696614633;0.03334353013153879;0.0004160865066493595;0.07035790761700844;-0.0336494340776996;0.0005885689706558803;0.0948302233098807;0.0;53.731501849999994;86.84925673
3.3290407144920016;0.8515424238361755;5.40826640473904;0.0122361578464361;0.03254506935869224;0.0397675130009177;3.3630440873800613;0.8006322431288182;0.641011988737483;5.410609339886864;3.0667675771806264;0.023146731926175224;0.0003137754081067087;0.060161109411644875;-0.07545630671969;0.00019674611404200054;0.053023350667890295;0.0;53.731717890000006;86.84924493
2.9508617403388957;0.9004402006113142;5.40826640473904;0.0061180789232181;0.02747049524752223;0.0397675130009177;3.1104504547911844;0.9104369459353171;0.8288954325240274;5.410609339886864;3.0667675771806264;0.023146731926175224;0.00016023944383030544;0.03976751300091752;-0.07545630671969;0.0002311963958683536;0.053023350667890295;0.0;53.73191802;86.84921721999999
3.4990462238532682;0.9602945428518102;5.659956250649603;-0.0045885591924135;0.025661435681679886;0.0397675130009177;3.74671474722605;1.002526604633497;1.0050595929979682;6.166206175791535;3.0557557210003505;0.023146731926175224;0.0001179101907747203;0.03161007443662689;-0.0866727847455898;0.0002801107128545306;0.04792495156520861;0.0;53.7321008;86.84917216
2.9307500330101384;1.160593417948267;6.040467198909347;0.023452635872336;0.02237630000213565;0.0397675130009177;3.428603300376027;1.2166994255063173;1.4803574920274025;6.464892705129926;3.3544422503387414;0.023146731926175224;0.00011416710180364804;0.03161007443662689;-0.0866727847455898;0.0004080891197968116;0.05353319057815849;0.0;53.73226742000001;86.84910325999999
3.4252048248772686;1.1915621420804727;6.040467198909347;0.0397675130009177;0.02263042240184826;0.0397675130009177;3.928530392647345;1.2449846628314822;1.5499868106856194;6.464892705129926;3.3544422503387414;0.01498929336188437;7.112157863631344e-05;0.023452635872336036;-0.0866727847455898;0.00043165671702208346;0.05353319057815849;0.0;53.732427140000006;86.84901978
4.530929589268541;1.1299944944354872;6.040467198909347;-0.0101967982053635;0.022577268377476423;0.0397675130009177;5.153979012897159;1.2202639124012515;1.4890440159088094;6.464892705129926;3.3544422503387414;0.01498929336188437;8.309022114875467e-05;0.03161007443662667;-0.0866727847455898;0.00039644395410903024;0.05353319057815849;0.0;53.73257923999999;86.84892099999999
5.659956250649603;1.0892977469675666;6.040467198909347;-0.0305903946160905;0.02440524829490542;0.0397675130009177;6.166206175791535;1.1446387792001844;1.3101979348488884;6.464892705129926;3.3544422503387414;0.01498929336188437;0.0001079488374867342;0.03161007443662667;-0.0866727847455898;0.0003668573773963237;0.05353319057815849;0.0;53.732710739999995;86.84880162
6.040467198909347;0.991292372049166;6.040467198909347;-0.0275313551544814;0.024868077136653642;0.0397675130009177;6.464892705129926;1.0017843681564609;1.0035719202826394;6.464892705129926;3.036289404753899;0.01498929336188437;0.0001167866864462114;0.03161007443662667;-0.0866727847455898;0.000307721770388059;0.05353319057815849;0.0;53.73280999999999;86.8486628
5.059134414396956;0.9321266433748362;6.040467198909347;-0.020393596410727;0.025161516440379034;0.0397675130009177;5.472436053979185;0.9206392139815374;0.8475765623205429;6.464892705129926;3.036289404753899;0.01498929336188437;0.00010357034761007832;0.03161007443662667;-0.0866727847455898;0.0002651383569702399;0.05353319057815849;0.0;53.73289368;86.84850584
4.522926186972188;0.7340509468997071;6.040467198909347;0.0061180789232181;0.023568357423904684;0.0397675130009177;4.928875672902947;0.740567091648003;0.5484396172319818;6.464892705129926;2.5363623124825807;0.01498929336188437;0.00010283097201085415;0.03161007443662667;-0.095849903130417;0.000163728372439144;0.04435607219333129;0.0;53.732960850000005;86.84833237000001
4.141883113794451;0.5869838654622286;6.040467198909347;0.0305903946160905;0.01787754612659132;0.0305903946160905;4.5408052349724395;0.6088379623255455;0.37068366436872247;6.464892705129926;1.9240874701574864;0.01498929336188437;0.00010027781564478301;0.03161007443662667;-0.1060467013357805;0.00010577980984994655;0.034159273987967795;0.0;53.733013330000006;86.84814164999999
4.782782484825092;0.569147198881747;6.040467198909347;-0.0152951973080452;0.01788271510168985;0.0305903946160905;5.04378920702741;0.6158078056362362;0.37921925348251645;6.464892705129926;1.9240874701574864;0.01498929336188437;0.00010176811958696977;0.03161007443662667;-0.1060467013357805;0.00010016517639333775;0.034159273987967795;0.0;53.733055969999995;86.84794364999999
4.585842358756624;0.626064032682354;6.040467198909347;-0.0132558376669725;0.016715009858113927;0.0305903946160905;4.798238112276332;0.6657654242164784;0.4432436000821475;6.464892705129926;2.5253185821741084;0.01498929336188437;0.00010213780738658188;0.03161007443662667;-0.1019679820536351;0.00012049800537200332;0.038237993270113194;0.0;53.733093350000004;86.84772759
4.844899869362807;0.7042048293527647;5.412450706654367;-0.0071377587437544;0.015519766563676847;0.0305903946160905;4.997222280824866;0.7215050976819026;0.5205696059809719;5.535930721030084;2.4009055402070656;0.01498929336188437;9.409709774501819e-05;0.03161007443662667;-0.087182624655858;0.00015714330850855315;0.042316712552258606;0.0;53.733124839999995;86.84747492
5.412450706654367;0.9225920072289023;5.412450706654367;-0.0193739165901906;0.01595146328167942;0.0305903946160905;5.535930721030084;0.9161636779990597;0.8393558848847648;5.535930721030084;2.8426965868642524;0.01498929336188437;9.732031324788629e-05;0.03161007443662667;-0.0774956663607626;0.00027033709165228466;0.052003670847353994;0.0;53.733151369999995;86.84721217
4.867424523553031;1.1282790689295235;5.412450706654367;-0.0122361578464362;0.016774344293585996;0.0305903946160905;4.987746678688075;1.1068848433737206;1.2251940564904662;5.535930721030084;3.160156003999894;0.01498929336188437;0.00016751478419923507;0.04588559192413577;-0.0744366268991536;0.00038212144005999476;0.055062710308962995;0.0;53.73317464;86.84692312000001
3.8078199875940175;1.1898595402893946;5.412450706654367;-0.0173345569491179;0.008301332206124652;-0.0040787192821454;3.9395741229558174;1.1695723151149204;1.367899400283275;5.535930721030084;3.160156003999894;0.011930253900275356;0.00015666675782936748;0.04282655246252676;-0.0744366268991536;0.00043313835640646517;0.055062710308962995;0.0;53.733193310000004;86.84661923
2.9609146408849343;1.152361768993282;5.412450706654367;-0.0040787192821454;0.00870883244982755;-0.0040787192821454;3.1350251808230185;1.126997331923134;1.2701229861618624;5.535930721030084;3.160156003999894;0.011930253900275356;0.00014990840274270843;0.04282655246252676;-0.0744366268991536;0.0004017582162284532;0.055062710308962995;0.0;53.73320949;86.84631541
2.4512314680336447;1.1113261304139246;5.412450706654367;-0.0244723156928724;0.00877425120846328;-0.0040787192821454;2.6932341341658317;1.080605000221153;1.167707166502958;5.535930721030084;3.160156003999894;0.011930253900275356;0.000132405995979823;0.04282655246252676;-0.0744366268991536;0.00037767074553497694;0.055062710308962995;0.0;53.73322298000001;86.8460089
2.1279831924642174;1.0441203466257352;5.412450706654367;-0.0316100744366268;0.01008801861551456;-0.0040787192821454;2.37577471703019;1.0025763334247433;1.0051593043434022;5.535930721030084;3.160156003999894;0.011930253900275356;0.00013434685692778657;0.04282655246252676;-0.0744366268991536;0.00033156374527710484;0.055062710308962995;0.0;53.73323669;86.84569748999999
2.77698239325968;0.8141178805774522;4.867424523553031;-0.023452635872336;0.010378717773018761;-0.0040787192821454;2.915797697407062;0.7608733577629723;0.5789282665534999;4.987746678688075;2.611971961657885;0.011930253900275356;0.000128420299390255;0.04282655246252676;-0.0744366268991536;0.00020461064434156015;0.0469052717446722;0.0;53.73325071000001;86.84538639000002
3.3486343371990346;0.639615638694806;4.116638216206609;-0.0254919955134087;0.010106325117795313;-0.0040787192821454;3.420411801644275;0.5602141784567479;0.31383992574396896;4.12750380721831;1.7517290901881197;0.011930253900275356;0.00013032650210700444;0.04282655246252676;-0.0744366268991536;0.00012042580072364081;0.0326297542571633;0.0;53.7332639;86.84506678
3.622533566447389;0.6554987642292862;4.116638216206609;-0.0244723156928724;0.010601728341445859;-0.0040787192821454;3.6474027583159807;0.563114004451975;0.317097382009939;4.12750380721831;1.7517290901881197;0.011930253900275356;0.00013257928713589077;0.04282655246252676;-0.0744366268991536;0.0001254165860184042;0.0326297542571633;0.0;53.73327313;86.84475345
4.116638216206609;0.7025141190983104;4.148926156910171;-0.040787192821454;0.008706178935917765;-0.0112164780258998;4.12750380721831;0.612900870300428;0.375647476815022;4.172968342504845;1.7971936254746548;0.016008973182420783;0.00016123009160582918;0.04690527174467218;-0.0744366268991536;0.00014048425203853205;0.0326297542571633;0.0;53.73328094;86.84446942000001
3.4507646907816607;0.6451900221606566;4.148926156910171;-0.0142755174875089;0.008787407987795787;-0.0112164780258998;3.46538980014706;0.5788370006181153;0.33505227328457604;4.172968342504845;1.7971936254746548;0.016008973182420783;0.00015897730657694296;0.04690527174467218;-0.0744366268991536;0.00011532237617743297;0.0326297542571633;0.0;53.733287510000004;86.84417902999999
3.7273413053502322;0.5824113949769989;4.148926156910171;-0.0152951973080452;0.009709888858520652;-0.0112164780258998;3.738201149033434;0.5549704653855162;0.30799221745021643;4.172968342504845;1.6815905523788168;0.016008973182420783;5.018511879734306e-05;0.020393596410727022;-0.0764759865402263;0.00010647297447421823;0.030590394616090602;0.0;53.73329046;86.84390549999999
3.9537335597631618;0.5467386092768168;4.148926156910171;-0.0112164780258998;0.011395805910837935;-0.0112164780258998;3.9638170836836535;0.5296078541900455;0.28048447921978453;4.172968342504845;1.6815905523788168;0.016008973182420783;6.289313690900931e-05;0.026511675333945273;-0.0764759865402263;9.048397714099462e-05;0.030590394616090602;0.0;53.733291529999995;86.84363777
4.148926156910171;0.5942567429044249;4.148926156910171;-0.0265116753339451;0.0120315737632925;-0.0112164780258998;4.172968342504845;0.5707277088171933;0.325730117611723;4.172968342504845;1.6815905523788168;0.016008973182420783;6.798789689741399e-05;0.026511675333945273;-0.0764759865402263;0.00010546499758308819;0.030590394616090602;0.0;53.733290690000004;86.84336301
2.9502328190646256;0.6371147606152592;4.148926156910171;-0.0275313551544814;0.012341917443571087;-0.0112164780258998;2.9841725806264936;0.5984645468321176;0.35815981381497186;4.172968342504845;1.6815905523788168;0.016008973182420783;7.581199259389232e-05;0.026511675333945273;-0.0764759865402263;0.00011890372673617511;0.030590394616090602;0.0;53.733289590000005;86.84303423
2.426991762802488;0.6954097063468659;4.148926156910171;-0.0387478331803813;0.011702402499863361;-0.0112164780258998;2.491377790126028;0.6276396904290192;0.3939315810018351;4.172968342504845;1.8958776275831006;0.016008973182420783;7.937023766515903e-05;0.026511675333945273;-0.0703579076170082;0.00014094636178804646;0.03568879371877229;0.0;53.73329199;86.84269359
3.127069128502895;0.6855914325679263;4.148926156910171;-0.0438462322830631;0.010734387082716797;-0.0112164780258998;3.1882768646648807;0.6238373302107284;0.38917301456444936;4.172968342504845;1.8958776275831006;0.016008973182420783;7.846912365360469e-05;0.026511675333945273;-0.0703579076170082;0.0001361635258805648;0.03568879371877229;0.0;53.73329629;86.84234205
2.7504200854436647;0.676427744592738;4.148926156910171;-0.0392576730906495;0.016533371034603648;0.011726317936168;2.849331347783812;0.6066768190765208;0.36805676280480554;4.172968342504845;1.8958776275831006;0.016008973182420783;7.729074379234111e-05;0.026511675333945273;-0.0703579076170082;0.0001329143167042864;0.03568879371877229;0.0;53.73331712;86.84195328000001
2.647688742109505;0.7543478769482591;4.148926156910171;-0.0382379932701131;0.019437987862256773;0.011726317936168;2.8370702084128743;0.623833735436927;0.3891685294691898;4.172968342504845;2.263419114754285;0.016008973182420783;8.976770702924946e-05;0.026511675333945273;-0.0571020699500356;0.00017223985638802397;0.0489446313857449;0.0;53.73334834;86.84155442
2.00129175533798;0.5849949193335318;3.127069128502895;-0.0295707147955541;0.022496018039281748;0.011726317936168;2.2770907149217443;0.4526710199759898;0.20491105232610293;3.3706305986607905;1.4610813709102308;0.012949933720811546;5.9961628185523026e-05;0.023452635872336036;-0.0571020699500356;0.00011282409534411566;0.0336494340776997;0.0;53.73338736000001;86.84116592
3.108906227954625;0.5982728615038159;3.127069128502895;-0.0244723156928724;0.023472639173920874;0.011726317936168;3.3706305986607905;0.48834597101284166;0.23848178740447518;3.3706305986607905;1.4610813709102308;0.036402569593147804;0.00020178311031171793;0.046905271744672294;-0.0571020699500356;0.00011101031457726884;0.0336494340776997;0.0;53.73344082;86.84078418
2.3917201254223643;0.6833345023669423;3.525629923015294;0.011726317936168;0.023191894670128416;0.011726317936168;2.7216961784726172;0.5880860238358774;0.34584517143109217;3.8169609253866374;1.9074116976360778;0.036402569593147804;0.00018900577573762462;0.046905271744672294;-0.0571020699500356;0.00014520643604138891;0.0397675130009178;0.0;53.73350861;86.84040397
1.304017853010309;0.6582835769804083;3.525629923015294;0.0081574385642908;0.022378106957286214;0.011726317936168;1.9095492277505597;0.5763799976974223;0.3322139017456806;3.8169609253866374;1.9074116976360778;0.036402569593147804;0.0001746803735026555;0.04537575201386779;-0.0571020699500356;0.00013194388623030437;0.0397675130009178;0.0;53.73358837000001;86.84002805
1.9108288473101305;0.6696904791589484;3.525629923015294;0.0112164780258998;0.02092097629780345;0.011726317936168;2.266849149431535;0.5935736145703985;0.35232963591416794;3.8169609253866374;1.9074116976360778;0.036402569593147804;0.00017664433993809465;0.04537575201386779;-0.0571020699500356;0.00013457791180254063;0.0397675130009178;0.0;53.73367882;86.8396577
3.079596543386044;0.6867615764976198;3.525629923015294;0.0020393596410727;0.018640365040587567;0.011726317936168;3.322330361130819;0.6114191802093152;0.373833413927831;3.8169609253866374;1.9074116976360778;0.036402569593147804;0.00023988117097330545;0.060161109411644764;-0.0571020699500356;0.00013781268004914657;0.0397675130009178;0.0;53.733774030000006;86.83932795
3.525629923015294;0.7245447428694588;3.525629923015294;0.0040787192821454;0.016882896128533914;0.011726317936168;3.8169609253866374;0.661569397546733;0.4376740677703473;3.8169609253866374;1.9390031327915227;0.036402569593147804;0.00026369137581707254;0.060161109411644764;-0.0571020699500356;0.000151814605459455;0.0397675130009178;0.0;53.733865449999996;86.83899697000001
2.3599704294362507;0.731997243504288;3.525629923015294;-0.037728153359845;0.015325474491088294;0.011726317936168;2.82236763193841;0.712827168652814;0.5081225723695874;3.8169609253866374;2.172811342767191;0.036402569593147804;0.00027367294640659933;0.060161109411644764;-0.0571020699500356;0.00015150268137853202;0.0397675130009178;0.0;53.73395569;86.83865713
2.9543892335606143;0.82806135049333;3.525629923015294;0.0040787192821454;0.02587746583462868;0.0112164780258998;3.265798575896271;0.8601310200564641;0.7398253716633736;3.8169609253866374;2.752995562464551;0.036402569593147804;0.00027310686196344323;0.060161109411644764;-0.0530233506678902;0.00019589121100539486;0.0438462322830632;0.0;53.734027160000004;86.83833691999999
2.0160231251420573;1.0635673741090859;3.525629923015294;-0.0183542367696543;0.02549901900684662;0.0112164780258998;2.3992115526618645;1.132125569462035;1.2817083050297369;3.8169609253866374;3.720226035973234;0.036402569593147804;0.0003660024743597235;0.06933822779647203;-0.0346691138982359;0.00032119226958642256;0.0622004690527175;0.0;53.73409438;86.83800734
1.6229348757116528;1.1122576793757215;3.525629923015294;-0.0010196798205363;0.031200832538128075;0.0040787192821454;1.8779577925951147;1.1982370872567354;1.4357721172775053;3.8169609253866374;3.720226035973234;0.036402569593147804;0.0003660024743597235;0.06933822779647203;-0.0346691138982359;0.00035353995205248166;0.0622004690527175;0.0;53.73416462;86.83765006
1.5258812699127682;1.3003895655673374;3.525629923015294;0.0020393596410727;0.030043373903353304;0.0040787192821454;1.6441495826194468;1.1823022729163428;1.3978386645431506;3.8169609253866374;3.720226035973234;0.011930253900275356;0.0001707033414708907;0.04486591210359958;-0.0224329560517997;0.0005089705663018957;0.0744366268991537;0.0;53.734243070000005;86.83728051
1.0237201654312584;1.124405442553904;2.9543892335606143;-0.0703579076170082;0.0309450379817022;0.0040787192821454;1.0639653629220869;1.0077214471696747;1.0155025150857435;3.265798575896271;3.1690636864828674;0.011930253900275356;0.0005018627407171708;0.07953502600183537;-0.0224329560517997;0.0003732258273818249;0.0632201488732538;0.0;53.73433686;86.83688534000001
-0.07824957153854362;1.2893148256906692;2.9543892335606143;-0.0254919955134087;0.032206389797083165;0.0040787192821454;0.09673488941340336;0.910033646522315;0.8281612378027017;3.265798575896271;3.1690636864828674;0.0211073722851024;0.0006243564825698937;0.08871214438666242;-0.0122361578464362;0.000505689587080337;0.0734169470786173;0.0;53.73444233;86.83647625
0.9698950488614213;1.133788565681519;2.0160231251420573;-0.078515346181299;0.03025794752594953;0.0020393596410727;1.0153418304926072;0.6537003508061133;0.42732414864403556;2.3992115526618645;2.302476663248461;0.0211073722851024;0.0006485710334444869;0.08871214438666242;-0.0122361578464362;0.00041042566221779206;0.0596512695013765;0.0;53.734563460000004;86.83604954
-0.7324604588512034;1.113266395769074;1.6229348757116528;-0.0244723156928724;0.040207521034052014;0.0020393596410727;0.8304508371066871;0.5541471333151101;0.3070790453613544;1.8779577925951147;1.7812229031817113;0.0211073722851024;0.0006354124583270435;0.08871214438666242;-0.0122361578464362;0.0003921578861822722;0.0520036708473539;0.0;53.73470555;86.83562331
0.4561854117027284;0.9888292632348312;1.5258812699127682;-0.0672988681553992;0.04061063265998885;0.0020393596410727;0.7780645291528145;0.5058000055011425;0.2558336455649557;1.7510451999395753;1.654310310526172;0.0211073722851024;0.0007328598517560461;0.08871214438666242;-0.0122361578464362;0.00030925539711925754;0.0499643112062812;0.0;53.734879920000004;86.835214
-1.2838416085292126;0.8367515209907251;1.0237201654312584;-0.0020393596410727;0.03591387022607591;-0.0020393596410727;1.625532713647323;0.5210862380098915;0.27153086744330135;1.7729965819836953;1.676261692570292;0.0211073722851024;0.0007680379564378858;0.08871214438666242;-0.0122361578464362;0.00022274845201002488;0.040787192821454;0.0;53.73508362;86.83483658
-0.6950660976503316;0.7506947463842188;0.9698950488614213;-0.0397675130009177;0.03699937731859316;-0.0020393596410727;1.3957465832471256;0.5785970443000943;0.33477453967280524;1.9816357706256136;1.8849008812122103;0.0211073722851024;0.0007744959401873599;0.08871214438666242;-0.0122361578464362;0.00018156292058448898;0.0397675130009177;0.0;53.73536266;86.83447306000001
-1.2506340424004505;0.819973008616075;0.9698950488614213;-0.1193025390027531;0.03710429784403982;-0.0020393596410727;1.7510451999395753;0.5246035346978892;0.2752088686175194;2.4224377722074486;1.644373243054634;0.0211073722851024;0.0006881853917216706;0.08871214438666242;-0.0101967982053635;0.0002148348225495783;0.0418068726419904;30.0;53.73567445;86.83414741
0.19646444525936158;0.6996410236738988;0.4561854117027284;-0.0968695829509534;0.03694000378103976;-0.0020393596410727;1.3379984580215933;0.5764581253703485;0.3323039703054964;2.466171870870032;1.6881073417172177;0.0211073722851024;0.0006881853917216706;0.08871214438666242;-0.0101967982053635;0.00016036363582548193;0.0356887937187723;30.0;53.73601718;86.83386294
0.06575103096456392;0.717753033683341;0.4561854117027284;-0.0520036708473539;0.03577059805807624;-0.0020393596410727;1.7729965819836953;0.5062027961357685;0.2562412708156704;2.466171870870032;1.6881073417172177;0.0211073722851024;0.0006895139572515266;0.08871214438666242;-0.0101967982053635;0.00016732994029942244;0.0356887937187723;30.0;53.73637763000001;86.83361667
-0.7954115930560841;0.613503422661177;0.19646444525936158;-0.0876924645661262;0.03569300167313288;-0.0020393596410727;1.9816357706256136;0.4005171825453012;0.16041401351402612;2.466171870870032;1.1281734128484389;0.0211073722851024;0.00017671076821458614;0.035688793718772316;-0.0101967982053635;0.00011039801915915803;0.0275313551544815;0.0;53.73675109999999;86.8334167
-1.4167342475063966;1.063774021833992;0.19646444525936158;-0.0244723156928724;0.0309463446128159;-0.0244723156928724;2.4224377722074486;0.7604328203108784;0.5782580742059568;3.9947432703094794;2.656744812287886;0.0211073722851024;0.00014676605644600593;0.035688793718772316;0.0265116753339451;0.00033780222689555335;0.06423982869379011;0.0;53.73716571;86.83326299000001
-1.4158084616071354;1.1908976367039223;0.6898063186318071;-0.0387478331803813;0.03883572560370087;-0.0244723156928724;2.466171870870032;0.7205898533566985;0.5192497367606282;3.9947432703094794;2.656744812287886;0.0211073722851024;0.00014131604958766153;0.035688793718772316;0.0265116753339451;0.00043166826976581463;0.07443662689915359;0.0;53.73759596;86.83317611999999
-0.17295320014915205;1.2312819851763823;0.6898063186318071;-0.040787192821454;0.035362991768744766;-0.0244723156928724;1.9279978710797963;0.735278652430535;0.5406346967200636;3.9947432703094794;2.656744812287886;0.0211073722851024;0.00014131604958766153;0.035688793718772316;0.0265116753339451;0.00046290688883303773;0.07443662689915359;0.0;53.73803934;86.8331587
-1.0202517705619456;1.3088230946343637;0.9148430293292438;-0.0469052717446721;0.03644033971994694;-0.023452635872336;2.2988202322348474;0.6984618188395155;0.4878489123766042;3.9947432703094794;2.428682605698431;0.011930253900275356;0.0002470236547892494;0.053023350667890434;0.0265116753339451;0.0005379419594105569;0.07953502600183529;0.0;53.738482950000005;86.83320295000001
-3.527577643238323;1.2901726936651527;0.9148430293292438;-0.0774956663607627;0.03661902455458017;-0.023452635872336;3.9947432703094794;0.7177107972670775;0.5151087885137441;3.9947432703094794;2.4510277360105515;0.009890894259202643;0.00023327588974117314;0.05098399102681772;0.0265116753339451;0.0005254303379424345;0.07953502600183529;0.0;53.73892671;86.83330366999999
0.6898063186318071;1.296719005660139;0.9148430293292438;-0.1432650147853574;0.038924866466163686;-0.023452635872336;1.92635644535255;0.8812191219183455;0.7765471408345399;3.9947432703094794;3.4227271249279743;0.0211073722851024;0.0003157624800296232;0.06220046905271748;0.0265116753339451;0.0005293929290445267;0.07953502600183529;0.0;53.73933521;86.83350225
0.25611818568287203;1.2995600871585085;0.9148430293292438;-0.0774956663607627;0.03677780294654006;-0.023452635872336;1.566060664611048;0.882654489500336;0.7790789478350988;3.9947432703094794;3.4227271249279743;0.0211073722851024;0.00036929500632501674;0.06220046905271748;0.0265116753339451;0.0005308514629414339;0.07953502600183529;0.0;53.73972641;86.83376801
0.9148430293292438;1.2943494024815698;0.9148430293292438;-0.023452635872336;0.04339320395053868;0.0081574385642908;1.6911586653706439;0.8797896133861973;0.7740297638222347;3.9947432703094794;3.4227271249279743;0.0211073722851024;0.00043167982250955956;0.06220046905271748;0.0265116753339451;0.0005255603063094857;0.07953502600183529;0.0;53.74009644;86.83410219999999
-1.0870464837899152;1.3152550098321953;0.9148430293292438;-0.0469052717446721;0.042755547623898285;0.0081574385642908;1.543715534298928;0.880101765294673;0.7745791172747997;3.9947432703094794;3.4227271249279743;0.0211073722851024;0.0003776129818162891;0.06220046905271748;0.0265116753339451;0.0005450844432265001;0.07953502600183529;0.0;53.74050337999999;86.83451938
-0.3396224882731853;1.3461236001519423;0.9148430293292438;-0.1091057407973896;0.04480020278504994;0.0081574385642908;0.5720161453815052;0.8640534465399554;0.7465883584775755;3.9947432703094794;3.4227271249279743;0.0211073722851024;0.00039081776790868375;0.06220046905271748;0.0265116753339451;0.0005715171208987654;0.07953502600183529;0.0;53.740957879999996;86.83496364
-1.4624923906609832;1.2398509630210095;0.9148430293292438;-0.0810645457326399;0.04819241356821939;0.0081574385642908;1.545801455622126;0.6018608437205412;0.3622364752040017;3.028759123793169;2.456742978411664;0.0211073722851024;0.0003934315761793788;0.06220046905271748;0.0173345569491179;0.0004870896696623508;0.0703579076170081;30.0;53.74138558;86.83540925999999
-1.3233306342372846;1.1706216983824311;0.9148430293292438;0.0081574385642908;0.03859457813086701;0.0081574385642908;1.3725927052946165;0.6344888203902295;0.4025760632001849;3.028759123793169;2.456742978411664;0.0211073722851024;0.00045536294717220916;0.06220046905271748;0.0173345569491179;0.000434062575905489;0.0703579076170081;0.0;53.74183000000001;86.835846
-1.7142406908796581;1.4278106375210466;0.9148430293292438;-0.0560823901294993;0.040910218592748016;0.020393596410727;1.7153394826412225;1.074479216072871;1.1545055857725712;4.477826504941125;3.9058103595596196;0.0211073722851024;0.00045262494690633204;0.06220046905271748;0.0418068726419904;0.0006457088411834183;0.0948302233098806;0.0;53.74227475;86.83626515
-1.7671397034942988;1.1457387249838864;-0.3396224882731853;-0.020393596410727;0.041182667436470866;0.020393596410727;1.7678349936179578;1.1174022039204594;1.2485876853262998;4.477826504941125;3.9058103595596196;0.0211073722851024;0.00034971310568931145;0.05710206995003564;0.0418068726419904;0.0004040023366995289;0.07035790761700819;0.0;53.74272552;86.83665704
-3.002496786938306;1.1045519064867122;-0.3396224882731853;-0.0025491995513409;0.040836589057106513;0.020393596410727;3.028759123793169;1.1148656304418285;1.242925373940456;4.477826504941125;3.9058103595596196;0.0211073722851024;0.00036149690430194875;0.05710206995003564;0.0418068726419904;0.0003743348907806574;0.07035790761700819;30.0;53.74318151999999;86.83701576000001
-2.236257362089395;1.2249020740385872;-1.3233306342372846;-0.0101967982053635;0.029683601738068048;0.020393596410727;2.339549699285803;1.268400854750188;1.6088407283310073;5.149871847578477;3.7772791422838603;0.017028653002957195;0.00033931563632522344;0.053023350667890434;0.0509839910268175;0.00045633626583211663;0.0632201488732537;0.0;53.74363459;86.83730755
-4.3710170933863886;1.2824712211330707;-0.9865509258166969;0.020393596410727;0.020976193319731877;0.020393596410727;4.477826504941125;1.257163162363949;1.5804592168049247;5.149871847578477;3.7772791422838603;0.020087692464565987;0.0003227865482222537;0.05608239012949923;0.0509839910268175;0.0004965831368289498;0.0683185479759354;0.0;53.74411404999999;86.83753613
-2.812557775610065;1.2697259453354983;-0.9865509258166969;-0.0152951973080452;0.023359410960325993;0.0254919955134087;3.0712928645653177;1.2309695642113103;1.515286068014583;5.149871847578477;3.4914101777973325;0.020087692464565987;0.00019364997872024997;0.04078719282145393;0.0509839910268175;0.0004870174650139863;0.0683185479759354;0.0;53.744610699999996;86.83769998
-2.472862082430255;1.3074317591745364;-0.9865509258166969;-0.0254919955134087;0.035621763703942703;0.0254919955134087;2.8325769071146163;1.2015385231519053;1.4436948226180617;5.149871847578477;3.4914101777973325;0.020087692464565987;0.00016696314068575144;0.034669113898235904;0.0509839910268175;0.0005173780755571304;0.0683185479759354;0.0;53.74507426;86.83778722
-4.968753462680821;1.271612491106981;-0.9865509258166969;-0.0152951973080452;0.03778632671682056;0.0265116753339451;5.149871847578477;1.1280325349164875;1.2724573998301167;5.149871847578477;3.4914101777973325;0.020087692464565987;0.0001633586846395333;0.034669113898235904;0.0509839910268175;0.0004889583259619497;0.0683185479759354;0.0;53.745485880000004;86.83786092
-0.9865509258166969;1.3225001236674223;-0.9865509258166969;0.0020393596410727;0.03774992627463917;0.0265116753339451;1.658461669781144;1.1681138348302003;1.3644899311217165;5.149871847578477;3.4914101777973325;0.020087692464565987;0.00021192353112763909;0.04078719282145393;0.0509839910268175;0.0005323966424163719;0.0683185479759354;0.0;53.74589688;86.83794424
-3.960402217371695;1.322713776925928;-0.9865509258166969;0.0254919955134087;0.03947685153923448;0.0265116753339451;4.182466906816777;1.1410829659577304;1.302070335198891;5.149871847578477;3.4914101777973325;0.020087692464565987;0.00022833997997916394;0.04078719282145393;0.0509839910268175;0.0005343028451331218;0.0683185479759354;0.0;53.746288359999994;86.83804388
-1.3699069733012075;1.4732217196878314;-0.7596848116884307;-0.1040073416947078;0.04048587617572455;0.0295707147955541;1.9872768701267594;1.259344180715991;1.5859477655032308;5.149871847578477;3.6455459386723;0.020087692464565987;0.0002412472829203085;0.04078719282145393;0.0509839910268175;0.0006603663848008492;0.0723972672580808;0.0;53.74667401000001;86.83816841000001
-3.5254201860847543;1.4728643468114864;-0.7596848116884307;0.0265116753339451;0.04213994694034629;0.0295707147955541;3.754057029854819;1.257969055527802;1.58248614466551;5.149871847578477;3.6455459386723;0.020087692464565987;0.00026017067716295304;0.04078719282145393;0.0509839910268175;0.0006600775662074022;0.0723972672580808;0.0;53.74705081;86.83832761000001
-4.116575038916082;1.5042598948305166;-0.7596848116884307;-0.0168247170388498;0.04205102793265648;0.0295707147955541;4.26243750437801;1.2846320659987118;1.6502795449921186;5.149871847578477;3.6455459386723;0.020087692464565987;0.0002476937139260443;0.04078719282145393;0.0509839910268175;0.0006872149612476781;0.0723972672580808;0.0;53.747420940000005;86.83851597999998
-4.118754979975096;1.3691416137802894;-0.7596848116884307;-0.0479249515652085;0.04205652220455908;0.0295707147955541;4.317353830976663;1.1490654879853754;1.320351495679069;4.317353830976663;2.8130279220704866;0.020087692464565987;0.00024810961270060715;0.04078719282145393;0.037728153359845;0.0005774176847628834;0.0591414295911083;0.0;53.74781442999999;86.83877635
-0.7596848116884307;1.1881404288685902;-0.7596848116884307;0.0295707147955541;0.04167155990497464;0.0295707147955541;1.5043259089061767;0.9997329805567413;0.9994660324128658;4.317353830976663;2.8130279220704866;0.01498929336188437;0.00020437958946680407;0.035688793718772316;0.037728153359845;0.00043767569650950827;0.0591414295911083;0.0;53.74818921;86.83906921
-2.888425426835478;1.2617060941373373;-0.7596848116884307;-0.0509839910268175;0.03910401576988609;0.0295707147955541;3.1713413464875626;1.097781352537372;1.2051238979787822;4.317353830976663;2.8130279220704866;0.018048332823493385;0.00024111731455325692;0.03874783318038133;0.037728153359845;0.0004915576933029729;0.0591414295911083;0.0;53.74855403;86.83938795
-4.051373555253376;1.1875800881833651;-0.7596848116884307;-0.0173345569491179;0.02808395811083048;0.0295707147955541;4.294925303454239;1.0400679987272547;1.081741441976517;4.317353830976663;2.8130279220704866;0.018048332823493385;0.00022656085744352997;0.03874783318038133;0.037728153359845;0.0004341636624131938;0.0591414295911083;0.0;53.7489147;86.83973326
-3.603705697776917;1.20751257298473;-0.7596848116884307;-0.0142755174875089;0.02401057904744351;0.0295707147955541;3.8369178190906705;1.0476106240573366;1.0974880196378025;4.317353830976663;2.8130279220704866;0.018048332823493385;0.0002301191025147966;0.03874783318038133;0.037728153359845;0.0004494479423784068;0.0591414295911083;0.0;53.74927033;86.84009656999999
-2.884548920789455;1.1829332001860793;-0.7596848116884307;-0.0081574385642908;0.028768908810125806;0.0305903946160905;3.15413194392638;1.0156491055139973;1.0315431055313828;4.317353830976663;2.8130279220704866;0.018048332823493385;0.00018669233880411204;0.03772815335984492;0.037728153359845;0.0004289100521983936;0.0591414295911083;0.0;53.74962074;86.8404777
-1.405065350530708;1.1554144747247685;-0.7596848116884307;-0.0071377587437544;0.02627553079424543;0.0305903946160905;1.713922945435729;0.9737387184960669;0.9481670918983625;4.294925303454239;2.790599394548062;0.018048332823493385;0.00014481364275430368;0.03772815335984492;0.0356887937187723;0.00040610493605982184;0.0571020699500356;0.0;53.749967979999994;86.84086334
-4.024809462384685;0.8125206015174498;-1.405065350530708;-0.0448659121035994;0.022277923399169147;0.0305903946160905;4.096521258505021;0.7442168626625604;0.5538587386713042;4.294925303454239;2.5810023580185097;0.018048332823493385;0.0002491493596370172;0.0499643112062812;0.0356887937187723;0.0002014827389745224;0.0458855919241358;0.0;53.75032821;86.84124405
-3.908933492288773;0.8326708356054838;-1.405065350530708;-0.0152951973080452;0.01870216215863824;0.0305903946160905;3.9229799628773803;0.7630138275496757;0.5821901010320063;4.294925303454239;2.5810023580185097;0.018048332823493385;0.0002169634155832883;0.0499643112062812;0.037728153359845;0.00021037835165268855;0.0479249515652085;0.0;53.75070203;86.84161531
-3.781775448468042;0.8942595226353399;-1.405065350530708;0.0305903946160905;0.02233030258192293;0.0305903946160905;3.783292158558062;0.8033780580312805;0.6454163041261114;4.627178590392093;2.9132556449563642;0.018048332823493385;0.0002328137799916577;0.0499643112062812;0.0453757520138676;0.00024094402339717985;0.055572550219231104;0.0;53.75108249;86.84197529000001
-3.764086890563317;0.97819812547849;-1.405065350530708;-0.0112164780258998;0.029508188417959817;0.0305903946160905;3.777332876998153;0.8848075550146894;0.7828844094110727;4.794069041322208;3.0801460958864793;0.018048332823493385;0.0002190660149435825;0.0499643112062812;0.0479249515652085;0.00028594196025621575;0.058121749770571995;0.0;53.75144914;86.84230354
-3.1318621112385285;0.9409914711758849;-1.405065350530708;-0.0244723156928724;0.03335464150824606;0.0305903946160905;3.138201385165051;0.8626445178447835;0.7441555641676589;4.794069041322208;3.0801460958864793;0.018048332823493385;0.00021290551434535892;0.0499643112062812;0.0479249515652085;0.00026362205935463463;0.058121749770571995;0.0;53.751825350000004;86.84264647
-4.162109062857904;0.9684972401240785;-1.3051702939492293;-0.0081574385642908;0.042131173168284554;0.0305903946160905;4.162883523133428;0.9217599178766995;0.84964134620406;4.794069041322208;3.300072917377963;0.01498929336188437;0.00017177774663851254;0.04690527174467218;0.0479249515652085;0.00028233750420999745;0.060161109411644695;0.0;53.75220992;86.84301312
-4.6232673228817625;1.4721528912098105;-0.1589903868455309;-0.0504741511165493;0.043686038304113536;0.0305903946160905;4.627178590392093;1.3331028080698106;1.7771630968836145;4.794069041322208;4.150655630369876;0.01498929336188437;0.0003484769621093619;0.05914142959110846;0.0479249515652085;0.0006751307912978593;0.0815743856429081;0.0;53.75258805000001;86.84340404999999
-4.777141781911439;1.8582392972386879;0.378035923169846;-0.0764759865402263;0.04329235048215105;0.0305903946160905;4.794069041322208;1.5407388363196899;2.373876161743752;4.794069041322208;4.150655630369876;0.01498929336188437;0.0003469173417047483;0.05914142959110846;0.0479249515652085;0.00106667638206203;0.0897318242071989;0.0;53.752962520000004;86.84380668
-3.6817840211956128;1.9640007444972867;0.378035923169846;-0.0744366268991536;0.03547291552883183;-0.0081574385642908;3.716993665934146;1.6541124147819586;2.7360878807358024;4.794069041322208;4.150655630369876;0.01498929336188437;0.0003585509546487913;0.05914142959110846;0.0479249515652085;0.0011907441852490389;0.0897318242071989;0.0;53.75333442;86.84420418
-1.3051702939492293;1.9222453157350097;0.378035923169846;-0.1152238197206077;0.03241702583629196;-0.0081574385642908;1.4939961239442454;1.623427227269423;2.635515962239687;4.794069041322208;4.150655630369876;0.01498929336188437;0.00033410823708537516;0.05914142959110846;0.0479249515652085;0.0011406052774266472;0.0897318242071989;0.0;53.75370155;86.84460715
-0.1589903868455309;1.959820552572925;0.378035923169846;-0.07545630671969;0.042460309289314754;0.0336494340776996;0.6434134109523322;1.650727213988152;2.724900335001086;4.794069041322208;4.150655630369876;0.01498929336188437;0.00027636762388345945;0.05914142959110846;0.0479249515652085;0.0011802542939350453;0.0897318242071989;30.0;53.75406494;86.84502941999999
0.378035923169846;1.844039976427964;0.378035923169846;-0.0683185479759355;0.045604286217046076;0.0336494340776996;0.839203684220624;1.5568039589246618;2.4236385665235005;4.794069041322208;4.150655630369876;0.02824513102885695;0.0003892841411774819;0.07239726725808104;0.0479249515652085;0.0010436315464908967;0.0897318242071989;0.0;53.754450770000005;86.84550228999998
-0.5667299758399993;1.8407290834974614;1.1094949246491979;-0.0193739165901906;0.047115264580489986;0.0336494340776996;0.9714788393222816;1.352500437625465;1.8292574337770742;4.794069041322208;4.150655630369876;0.02824513102885695;0.0003835770857709697;0.07239726725808104;0.0479249515652085;0.001035183602632574;0.1019679820536351;0.0;53.7548395;86.84600366
-2.115647799264873;1.6089952387220272;1.2710435195767094;-0.0530233506678902;0.05428086000524014;0.0336494340776996;2.3435264164978404;0.9632706487081706;0.9278903426626598;3.716993665934146;3.073580254981814;0.04659936779851115;0.0006084859008599829;0.09075150402773524;0.0295707147955541;0.0007773148096593931;0.08463342510451699;0.0;53.755210780000006;86.84650805999999
-0.8876646977883551;1.3504814031976289;1.2710435195767094;0.0336494340776996;0.0542961817995219;0.0336494340776996;1.5439601487263377;0.6844532130344323;0.4684762008331579;2.9180370822097217;2.2746236712573893;0.04659936779851115;0.0006862589717033795;0.09075150402773524;0.0101967982053635;0.0005340140265396782;0.0652595085143264;0.0;53.75556879999999;86.84700688000001
-2.6011183801526947;1.4833330652609373;1.8970060147189431;0.0152951973080452;0.05071818136207153;0.0336494340776996;2.9180370822097217;0.7050601936719377;0.4971098767007104;2.9180370822097217;2.2746236712573893;0.04659936779851115;0.0007338331704159615;0.09075150402773524;0.0101967982053635;0.0006374919521998542;0.0764759865402263;30.0;53.755922299999995;86.84750629999999
1.1094949246491979;1.5107138290478164;1.8970060147189431;-0.0856531049250535;0.050261268889402584;0.0336494340776996;1.6509685040051105;0.6271247634252147;0.3932854689011316;2.9180370822097217;2.0788333979890976;0.04659936779851115;0.00041684898773605624;0.06525950851432627;0.0101967982053635;0.0006635462775147042;0.0764759865402263;0.0;53.756268469999995;86.84800095
1.2710435195767094;1.505792736502589;1.8970060147189431;-0.1386764555929438;0.050219418073612125;0.0336494340776996;1.736218328842648;0.5658700661139967;0.32020893172385895;2.9180370822097217;1.94655824288744;0.04659936779851115;0.0006955473776686317;0.08871214438666242;0.0101967982053635;0.0006586334732401714;0.0764759865402263;0.0;53.756610939999995;86.84848934
0.9442284607858333;1.5545232478109832;1.8970060147189431;-0.037728153359845;0.049953009054688;0.0336494340776996;1.4697713518053928;0.4970335913185378;0.24704239089900323;2.9180370822097217;1.5679075269072833;0.04659936779851115;0.0008384086067312361;0.08871214438666242;0.0101967982053635;0.0007201864918755871;0.0764759865402263;0.0;53.7569484;86.84899064
1.8970060147189431;1.3259439612516204;1.8970060147189431;-0.0193739165901906;0.05791289172729037;0.0336494340776996;2.1087760502921045;0.4663852565516009;0.21751520752870257;2.9180370822097217;1.5679075269072833;0.04659936779851115;0.0008098473360252662;0.08871214438666242;0.0101967982053635;0.0005209247678846631;0.0764759865402263;0.0;53.75727615000001;86.84950783000001
0.8469638401539199;1.2817564705731084;1.8970060147189431;-0.0678087080656673;0.05006712718371973;0.0152951973080452;1.3501295553024384;0.4972626948607018;0.24727018770012743;2.9180370822097217;1.5679075269072833;0.04659936779851115;0.0009307930102171136;0.08871214438666242;0.0101967982053635;0.0004944112210062327;0.0764759865402263;0.0;53.757571389999995;86.85003091000002
0.045188403281937184;0.5462603709752989;1.8970060147189431;-0.0152951973080452;0.04317434017287269;-0.0152951973080452;1.3762325190873679;0.4017637102971676;0.16141407891174642;2.464312869183269;1.1141833138808306;0.04659936779851115;0.0008886370483175956;0.08871214438666242;-0.0372183134495768;8.877128288185132e-05;0.029060874885286005;0.0;53.75779502;86.8505387
1.4276906875768338;0.7281407823287699;2.602157550200218;-0.0550627103089629;0.04459083677983893;-0.0152951973080452;1.9363742420608043;0.63759486531619;0.4065272122775705;3.411856999254097;2.061727443951659;0.04659936779851115;0.0009448295938586366;0.08871214438666242;-0.0372183134495768;0.00014921523811843064;0.0412970327317222;0.0;53.757966859999996;86.85102798
0.4467903830279263;0.9403602464096206;3.1095331634531647;-0.1345977363107984;0.03715361541309442;-0.0152951973080452;1.6715243476080208;0.8742671179981704;0.7643429936128268;3.9346105955059785;2.5844810402035403;0.029264810849393252;0.0007030537729123211;0.07137758743754452;-0.0372183134495768;0.00025919735850303224;0.052513510757622096;30.0;53.75809752;86.85150424000001
1.6265312765583206;1.1593954338759618;3.6754742654473205;-0.0764759865402263;0.03681626287105076;-0.0152951973080452;2.4054405430909607;1.0516060438544053;1.1058752714711135;4.319604035102351;2.9694744797999126;0.027225451208320428;0.0005975194588668037;0.0693382277964717;-0.0372183134495768;0.0003911759029645546;0.06169062914244929;0.0;53.75819224000001;86.85196760000001
1.209153773347372;1.3166949319581085;3.6754742654473205;-0.0994187825022942;0.03349095903026469;-0.0152951973080452;2.464312869183269;1.1643669887540695;1.3557504845002195;4.319604035102351;2.9694744797999126;0.025186091567248048;0.0005305482034183248;0.06729886815539932;-0.0372183134495768;0.0005001478803185754;0.06169062914244929;0.0;53.758246220000004;86.85240046
2.602157550200218;1.4743876780076672;4.360264908896561;-0.0336494340776996;0.033600001662780904;-0.0152951973080452;3.411856999254097;1.240356923235386;1.538485297017953;4.8788106034309875;3.50257808434362;0.025186091567248048;0.0005573159106589884;0.06729886815539932;-0.0372183134495768;0.0006197534362368297;0.07290710716834911;0.0;53.75826442;86.85281033999999
3.1095331634531647;1.3087924920392244;4.360264908896561;-0.0489446313857448;0.027995375035237528;-0.0336494340776996;3.9346105955059785;1.1406074194655926;1.3009852853399586;4.8788106034309875;3.2072862558229667;0.025186091567248048;0.0004244015939546984;0.0622004690527177;-0.0428265524625267;0.000484904034956446;0.0672988681553992;0.0;53.75825057000001;86.85320865
3.6754742654473205;1.294483668451182;4.360264908896561;-0.078515346181299;0.029776328838410304;-0.0336494340776996;4.319604035102351;1.0398087365684745;1.081202208644127;4.8788106034309875;3.2072862558229667;0.025186091567248048;0.00025235813421021385;0.05200367084735402;-0.0428265524625267;0.0004810165366886503;0.0672988681553992;0.0;53.75820635;86.85358683
3.6525747983031227;1.062424169085218;4.360264908896561;-0.0693382277964718;0.02450068270081657;-0.0336494340776996;4.17992323634187;0.8297603298752437;0.6885022050346733;4.8788106034309875;2.473370060340027;0.025186091567248048;0.0003536988022788824;0.053023350667890434;-0.0571020699500356;0.00031320138115223053;0.05302335066789031;0.0;53.758132950000004;86.85394351
4.360264908896561;1.055203539051042;4.360264908896561;-0.0764759865402263;0.033260992596811666;-0.0020393596410727;4.8788106034309875;0.7436170169001299;0.5529662678234482;4.8788106034309875;2.4144977342477185;0.025186091567248048;0.0002860921459248189;0.053023350667890434;-0.0571020699500356;0.00031320138115223053;0.05302335066789031;0.0;53.7580402;86.85426804
3.5550965743885783;0.970611656884069;4.360264908896561;-0.0836137452839808;0.036963139550320115;-0.0020393596410727;4.301238199580472;0.6547952078194199;0.42875676418327735;4.8788106034309875;1.8914679597467208;0.029264810849393252;0.00031811635156621696;0.05710206995003564;-0.0632201488732537;0.0002608039119290837;0.04690527174467221;0.0;53.75794355000001;86.85455539
1.5846094674792268;1.1663430798725238;4.360264908896561;-0.1172631793616804;0.0350207199805615;-0.0020393596410727;2.9873426436842667;0.7417529741307005;0.5501974746317397;4.8788106034309875;2.1319617965510362;0.029264810849393252;0.0003446876621633368;0.05710206995003564;-0.0540430304884266;0.00037434427738495125;0.05608239012949931;0.0;53.75784099;86.85482915
2.4191542527062504;1.2383183347931048;4.360264908896561;-0.0520036708473539;0.03447010502880789;-0.0020393596410727;3.6095269797011373;0.8033752633670507;0.645411813790078;4.8788106034309875;2.1319617965510362;0.08024880187621075;0.0009482607587487862;0.10808606097685314;-0.0540430304884266;0.00039639268880869213;0.05608239012949931;0.0;53.757734000000006;86.85508568
1.6876713824135057;1.4999567773483438;4.360264908896561;-0.0020393596410727;0.03625946012209094;-0.0020393596410727;3.0427247387939267;1.037592482648425;1.0765981600485222;4.8788106034309875;3.07558782604017;0.08024880187621075;0.001541136014632963;0.14683389415723458;-0.040787192821454;0.0005811037320617588;0.0693382277964719;0.0;53.757619399999996;86.8553218
4.124483531779449;1.5183256086768866;4.360264908896561;-0.1254206179259712;0.036243685335730594;-0.0020393596410727;4.6780862951312425;1.0387133190872255;1.0789253592492003;4.8788106034309875;3.07558782604017;0.08024880187621075;0.0015355444866638297;0.14683389415723458;-0.040787192821454;0.0005987671551904911;0.0693382277964719;30.0;53.75749598;86.85553118
1.017723945382408;1.457355844387472;4.230019409061115;-0.0836137452839808;0.03660608739461839;-0.0020393596410727;2.7468488068799513;1.1254964455549894;1.2667422489569153;4.839048154507981;3.1491319655386865;0.08024880187621075;0.001814658775370969;0.14683389415723458;-0.040787192821454;0.0005587368981387424;0.0642398286937902;0.0;53.75736075;86.85571339
4.230019409061115;1.4654786999873135;4.230019409061115;-0.095849903130417;0.036693088571088536;-0.0020393596410727;4.839048154507981;1.2807619460860935;1.6403511625422373;4.839048154507981;3.7323901693399053;0.08024880187621075;0.0020228392175275366;0.14683389415723458;-0.040787192821454;0.0005777411615875516;0.0642398286937902;0.0;53.75721183;86.85588191000001
0.1882145334385159;1.5849255824971205;4.230019409061115;-0.0428265524625267;0.03342729816352982;-0.0020393596410727;1.8032227773908176;1.4633074126209955;2.141268583831552;4.839048154507981;3.9993354876957987;0.08024880187621075;0.002581680090359922;0.14683389415723458;-0.040787192821454;0.0006682222505426142;0.0642398286937902;30.0;53.75704879999999;86.8560312
3.8846527547574095;1.7038719111430598;4.230019409061115;-0.0805547058223717;0.03422005404649086;-0.0020393596410727;4.201605089579498;1.6069902218992778;2.5824175732798897;4.839048154507981;4.328256553607537;0.08024880187621075;0.0026828821255037386;0.14683389415723458;-0.0346691138982359;0.0007648031881912762;0.0703579076170083;30.0;53.75687338;86.85615018
1.2692708869350198;1.7878388166012134;4.230019409061115;-0.0596512695013765;0.025774187835922484;-0.040787192821454;1.6899161889692942;1.7136317581978266;2.936533802704175;4.839048154507981;4.328256553607537;0.08024880187621075;0.0026588524185289517;0.14683389415723458;-0.0346691138982359;0.0008475554915856979;0.0703579076170083;30.0;53.75668766;86.85624606
0.8904273354037691;1.593842435844622;4.230019409061115;-0.0601611094116447;0.023595118328041738;-0.0265116753339451;1.1066579851680751;1.5509948684438033;2.4055850819390105;4.839048154507981;4.328256553607537;0.08024880187621075;0.0027537119973606704;0.14683389415723458;-0.0346691138982359;0.000650835371217105;0.0672988681553992;30.0;53.756487660000005;86.85630974
0.18759938983023572;1.7903748617361406;4.230019409061115;-0.0825940654634444;0.041869312490881196;0.0469052717446721;0.8397126668121822;1.5241669759774008;2.3230849706600947;4.839048154507981;4.328256553607537;0.08024880187621075;0.00279956483725631;0.14683389415723458;-0.0101967982053635;0.0008510328674507972;0.0917711838482716;30.0;53.75628494;86.85635534000001
-0.0923128062614631;2.005095311058143;3.8846527547574095;-0.040787192821454;0.0391772154475722;0.0469052717446721;0.5107916009004436;1.3744150946533231;1.8890168524109034;4.201605089579498;3.690813488679055;0.09401447945345165;0.00305900769156378;0.16059957173447548;0.0331395941674314;0.0011449953200470418;0.1351075762210665;30.0;53.75608227;86.85640611
0.03123822397738696;2.0644767584572996;3.8846527547574095;-0.0887121443866625;0.03914712569912334;0.0469052717446721;0.5295465568214952;1.3755878324892412;1.8922418848924485;4.201605089579498;3.690813488679055;0.09401447945345165;0.0024691939127701413;0.15856021209340265;0.0331395941674314;0.0012187711415571326;0.1351075762210665;0.0;53.755885920000004;86.85646575999999
0.07476045433944645;1.6057357499307816;1.2692708869350198;-0.0265116753339451;0.0781076110681422;0.1692668502090343;0.7241660172481256;1.0759595894345804;1.1576890380962306;4.125636438277612;3.614844837377168;0.09401447945345165;0.0025197256138796216;0.15856021209340265;0.0331395941674314;0.0007245187707772881;0.087182624655858;0.0;53.75569915999999;86.85654523999999
-1.399506244275305;1.4921812948973083;0.8904273354037691;0.0469052717446721;0.07765865863341226;0.1692668502090343;1.55566849441823;1.0866340847533644;1.180773634147782;4.125636438277612;3.614844837377168;0.09401447945345165;0.002462539532377124;0.15856021209340265;0.0331395941674314;0.0006464222231092304;0.08106454573263991;0.0;53.755528690000006;86.85663845
-4.0907150346902394;1.3651271362788722;0.18759938983023572;-0.0571020699500356;0.0836499374664026;0.1692668502090343;4.125636438277612;1.0928602884208165;1.1943436100072302;4.125636438277612;3.614844837377168;0.09401447945345165;0.00216313862566627;0.15856021209340265;0.0331395941674314;0.0005632424681965059;0.07392678698888541;60.0;53.7553764;86.85676264
-1.474091005461482;1.715743365676572;0.07476045433944645;-0.0550627103089629;0.08249287473675997;0.1692668502090343;1.4901447341547234;1.5232390915280012;2.3202573299590505;5.143342888202927;4.6325512873024834;0.09401447945345165;0.0017028773151491995;0.13510757622106673;0.0535331905781584;0.000877953648545981;0.09126134393800339;60.0;53.75524375;86.85690646999998
-2.0892077977807935;1.6057204149191322;0.07476045433944645;0.1692668502090343;0.08617834592035555;0.1692668502090343;2.1185488407122244;1.429051681010294;2.042188706998347;5.143342888202927;4.613796331381431;0.09401447945345165;0.0015467073253005587;0.13510757622106673;0.0535331905781584;0.0007615019916681679;0.09126134393800339;60.0;53.75512308;86.85706228000001
-1.9436693644724188;1.4399566602939922;0.07476045433944645;-0.0489446313857448;0.08974342682119063;0.1692668502090343;1.9840363449114768;1.3073648921899097;1.7092029613307342;5.143342888202927;4.419176870954801;0.09401447945345165;0.001563132438709887;0.13510757622106673;0.0535331905781584;0.0006111979074524364;0.09126134393800339;60.0;53.755010979999994;86.85721129999999
-2.0584132333083267;1.2323160703536704;-1.399506244275305;-0.1264402977465075;0.09324394456861454;0.1692668502090343;2.112332076857879;1.2215315436795207;1.4921393122040727;5.143342888202927;3.665577934023375;0.09401447945345165;0.0012726386974209363;0.1300091771183849;0.0535331905781584;0.00043069783929182545;0.0637299887835219;60.0;53.75491633;86.85734705
-5.120725894118129;1.182829968958124;-1.471022736921321;-0.0622004690527174;0.09059711988189129;0.1692668502090343;5.143342888202927;1.1823321192822445;1.3979092402864437;5.143342888202927;3.665577934023375;0.09401447945345165;0.00142030875606443;0.1300091771183849;0.0535331905781584;0.0003976172796448944;0.0627103089629855;60.0;53.75484375;86.85746902999999
-1.886265999013669;1.351176444444733;0.36910880901436904;-0.1075762210665851;0.09175450631914059;0.1692668502090343;1.9402447207784013;1.1699030748997479;1.3686732046598848;5.143342888202927;4.448598273244207;0.03232385031100238;0.0004818649413069037;0.06831854797593562;0.0535331905781584;0.000550460079297025;0.09534006322014879;0.0;53.754795720000004;86.85757716
-2.3737260764348265;1.5943381887643797;0.622218700711143;-0.1284796573875803;0.09827839662021493;0.1692668502090343;2.400356369459664;1.1836606562909149;1.4010525492510393;5.143342888202927;4.448598273244207;0.03232385031100238;0.0004806981141893782;0.06831854797593562;0.0535331905781584;0.0007690148853302068;0.09941878250229419;0.0;53.75476376;86.85767832
-1.471022736921321;1.6315453738431849;0.622218700711143;0.0402773529111858;0.06982139732600859;0.0723972672580809;1.477764954179552;1.185182125372955;1.4046566703035548;5.143342888202927;4.448598273244207;0.020087692464565987;0.00033712061501502675;0.05608239012949923;0.0535331905781584;0.0008045800069272652;0.09941878250229419;0.0;53.754739269999995;86.85777415
-2.634445688659932;1.8961965003524206;1.3698855504492493;-0.0966146629958192;0.0718334952629024;0.0723972672580809;2.6414803637901647;1.2148018737609103;1.4757435924930187;5.143342888202927;4.448598273244207;0.020087692464565987;0.0002572680502988112;0.05149383093708548;0.0535331905781584;0.0010805057383627505;0.1116549403487304;0.0;53.75471718;86.85785958
0.36910880901436904;2.920450831435024;5.74836507579975;0.0010196798205363;0.06814441081789373;0.0723972672580809;0.6947446149587192;1.892590140115197;3.5818974384612607;6.88708279278154;6.192338177822821;0.0710716834913836;0.0007916055536631561;0.10247782196390309;0.0535331905781584;0.002373690990521501;0.1799734883246659;30.0;53.75469571;86.85790979
0.622218700711143;2.920450831435024;5.74836507579975;0.0723972672580809;0.06814441081789373;0.0723972672580809;1.306369301172312;1.892590140115197;3.5818974384612607;6.88708279278154;6.192338177822821;0.0710716834913836;0.0007916055536631561;0.10247782196390309;0.0535331905781584;0.002373690990521501;0.1799734883246659;30.0;53.75469571;86.85790979
-0.7078685117833552;2.920450831435024;5.74836507579975;-0.0270215152442133;0.06814441081789373;0.0723972672580809;1.9864803381668945;1.892590140115197;3.5818974384612607;6.88708279278154;6.192338177822821;0.0710716834913836;0.0007916055536631561;0.10247782196390309;0.0535331905781584;0.002373690990521501;0.1799734883246659;30.0;53.75469571;86.85790979
1.3698855504492493;2.920450831435024;5.74836507579975;0.0050983991026817;0.06814441081789373;0.0723972672580809;3.056976816196626;1.892590140115197;3.5818974384612607;6.88708279278154;6.192338177822821;0.0710716834913836;0.0007916055536631561;0.10247782196390309;0.0535331905781584;0.002373690990521501;0.1799734883246659;30.0;53.75469571;86.85790979
5.74836507579975;2.920450831435024;5.74836507579975;0.0249821556031406;0.06814441081789373;0.0723972672580809;6.88708279278154;1.892590140115197;3.5818974384612607;6.88708279278154;6.192338177822821;0.0710716834913836;0.0007916055536631561;0.10247782196390309;0.0535331905781584;0.002373690990521501;0.1799734883246659;30.0;53.75469571;86.85790979
0.9704357806212349;2.4026567446989384;1.30381992120831;-0.0285510349750178;0.04733482155347227;0.0856531049250535;1.345034798402829;1.6015957032889174;2.5651087967935218;5.962962426723081;4.617927628320252;0.0399714489650248;0.0008754698086423518;0.08310390537371248;0.0642398286937901;0.001799929027105171;0.12134189864382569;0.0;53.727869;86.85347540000001
-0.45995238116339165;2.4026567446989384;1.30381992120831;-0.023452635872336;0.04733482155347227;0.0856531049250535;1.5522769440727913;1.6015957032889174;2.5651087967935218;5.962962426723081;4.617927628320252;0.0399714489650248;0.0008754698086423518;0.08310390537371248;0.0642398286937901;0.001799929027105171;0.12134189864382569;0.0;53.727869;86.85347540000001
-2.0576374098541153;2.4026567446989384;1.30381992120831;-0.0122361578464362;0.04733482155347227;0.0856531049250535;2.802385525518803;1.6015957032889174;2.5651087967935218;5.962962426723081;4.617927628320252;0.0399714489650248;0.0008754698086423518;0.08310390537371248;0.0642398286937901;0.001799929027105171;0.12134189864382569;60.0;53.727869;86.85347540000001
1.30381992120831;2.4026567446989384;1.30381992120831;0.0469052717446721;0.04733482155347227;0.0856531049250535;2.559117572004211;1.6015957032889174;2.5651087967935218;5.962962426723081;4.617927628320252;0.0399714489650248;0.0008754698086423518;0.08310390537371248;0.0642398286937901;0.001799929027105171;0.12134189864382569;60.0;53.727869;86.85347540000001
-1.6348947813062729;2.4026567446989384;1.30381992120831;0.0112164780258998;0.04733482155347227;0.0856531049250535;2.8958692424708783;1.6015957032889174;2.5651087967935218;5.962962426723081;4.617927628320252;0.0399714489650248;0.0008754698086423518;0.08310390537371248;0.0642398286937901;0.001799929027105171;0.12134189864382569;60.0;53.727869;86.85347540000001
-3.259527479211229;2.4026567446989384;1.30381992120831;0.0163148771285816;0.04733482155347227;0.0856531049250535;4.095018150230808;1.6015957032889174;2.5651087967935218;5.962962426723081;4.617927628320252;0.0399714489650248;0.0008754698086423518;0.08310390537371248;0.0642398286937901;0.001799929027105171;0.12134189864382569;60.0;53.727869;86.85347540000001
-4.6287971830475865;2.1362477720306665;1.30381992120831;-0.0254919955134087;0.05252522421940692;0.0856531049250535;5.250325299339031;1.4766465379216078;2.1804849979558707;5.962962426723081;4.4106854826502895;0.0399714489650248;0.0007016010153872822;0.08310390537371248;0.0642398286937901;0.0014030114105028871;0.12134189864382569;60.0;53.727814249999994;86.85360496999999
-4.50332337799631;2.056538884103178;1.30381992120831;0.0856531049250535;0.05208291889505395;0.0856531049250535;5.102571558153522;1.289574582208953;1.6630026030793956;5.962962426723081;3.6750767723249353;0.0399714489650248;0.0006681211640349113;0.08310390537371248;0.0642398286937901;0.0012985861598562064;0.12134189864382569;60.0;53.72775838;86.85374621999999
-5.522518067170866;2.174065538018119;1.30381992120831;0.0305903946160905;0.05243863135287948;0.0856531049250535;5.962962426723081;1.5056033355990297;2.2668414041669247;5.962962426723081;4.618723489466326;0.04863872743958397;0.0008090646376370263;0.09177118384827165;0.0642398286937901;0.0014412740977627406;0.12134189864382569;60.0;53.72770493;86.85388989
-3.992032382465136;2.004698725219889;0.46544740690316644;-0.0846334251045171;0.05034807865885906;0.0856531049250535;4.484782667073459;1.7277363271177555;2.985072816042352;5.962962426723081;5.00106064667216;0.04863872743958397;0.0008448088267620215;0.09177118384827165;0.0642398286937901;0.001217901797590865;0.1060467013357805;60.0;53.72765004;86.85401420000001
-1.426299259242771;2.034789129949536;0.46544740690316644;-0.0744366268991536;0.05009388646309995;0.0856531049250535;2.2878856543981456;1.868487028206642;3.4912437745764886;5.962962426723081;5.00106064667216;0.04863872743958397;0.0009528240925252508;0.09177118384827165;0.0642398286937901;0.0012597111771782462;0.1060467013357805;60.0;53.7275947;86.85411246
-4.409745911541682;2.0615315117736297;0.46544740690316644;-0.0081574385642908;0.04968749672158978;0.0856531049250535;4.6564039580091325;1.936556858488725;3.75025246615972;5.962962426723081;5.00106064667216;0.04863872743958397;0.0009112342150688892;0.09177118384827165;0.0642398286937901;0.0012958135013591157;0.1060467013357805;60.0;53.72753721;86.85418041
-0.6496168957612591;2.062651693946161;0.46544740690316644;-0.0229427959620679;0.05036000903482245;0.0856531049250535;1.3442389372567551;1.9901236553427661;3.960592163554853;5.962962426723081;5.4475545681327295;0.04863872743958397;0.0008505592049575522;0.09177118384827165;0.0642398286937901;0.0013119873425921453;0.1060467013357805;60.0;53.72747488;86.85421792
0.46544740690316644;2.0252574435371313;0.46544740690316644;0.0214132762312633;0.037587071180009035;0.0305903946160905;0.9619017800509208;1.8920862966663239;3.5799905540324843;5.962962426723081;5.4475545681327295;0.04863872743958397;0.0008627126913697996;0.09177118384827165;0.0642398286937901;0.0012665157432398568;0.1060467013357805;60.0;53.727398599999994;86.85422356000001
-1.267004587481696;1.8363913136556522;0.46544740690316644;-0.0152951973080452;0.03422511769529632;0.0214132762312633;1.3715388939597601;1.6348443839793032;2.672716159828667;4.6564039580091325;4.140996099418781;0.04863872743958397;0.0007157617910239861;0.08463342510451721;0.0428265524625267;0.0010180739891567845;0.0846334251045171;60.0;53.72730455;86.85418839
-1.7687425264154797;1.9523380399236023;0.46544740690316644;0.0071377587437544;0.031622909197869115;0.0214132762312633;1.7725527061186612;1.6956536750279012;2.8752413856356274;4.920106287509372;4.404698428919021;0.04863872743958397;0.0007281001213360397;0.08463342510451721;0.0499643112062812;0.0011468293181154379;0.0917711838482716;60.0;53.72720718000001;86.85409358
-0.4875661312759745;1.9419088551339627;0.46544740690316644;-0.0387478331803813;0.02969785262646164;0.0214132762312633;0.5154078585903518;1.6988356872784578;2.8860426923708697;4.920106287509372;4.404698428919021;0.04863872743958397;0.0007117529889469425;0.08463342510451721;0.0499643112062812;0.0011330931058111005;0.0917711838482716;60.0;53.72710532999999;86.85395589000001
-4.157957258573873;1.816411856205109;0.46544740690316644;-0.0275313551544814;0.03972714834599835;0.0214132762312633;4.170228498439317;1.5591297496876473;2.4308855763610655;4.920106287509372;4.404698428919021;0.04863872743958397;0.0006995879497909568;0.08463342510451721;0.0499643112062812;0.0009848598509103847;0.0917711838482716;60.0;53.727011690000005;86.85375985
-4.280218527763719;1.7486225693447313;0.46544740690316644;-0.0571020699500356;0.03943655556380284;0.0214132762312633;4.3065315099409;1.540506425148039;2.3731600459223903;4.920106287509372;4.404698428919021;0.029264810849393252;0.00044154875384764137;0.06525950851432649;0.0499643112062812;0.0009177961735120014;0.0917711838482716;0.0;53.72694299;86.85354011
-4.890924749472741;1.6801209079218713;0.0600838473189822;-0.0683185479759355;0.03554266415159746;0.0071377587437544;4.920106287509372;1.6002868078268198;2.5609178673045525;4.920106287509372;4.439516916131607;0.026205771387784238;0.0003377126931315918;0.06220046905271748;0.0499643112062812;0.0008569363195008587;0.0856531049250535;0.0;53.72690078000001;86.85331357999999
-3.0963646644759164;1.7050430989119831;0.0600838473189822;-0.061180789232181;0.0345925533766036;0.0071377587437544;3.171842666541956;1.597416121060177;2.5517382638229416;4.920106287509372;4.439516916131607;0.026205771387784238;0.00022334053012659666;0.048944631385744564;0.0499643112062812;0.0008817169548186077;0.0856531049250535;0.0;53.72688448;86.8530848
-2.1716472004382594;1.7107722156128233;0.0600838473189822;-0.1152238197206077;0.029744060170842836;-0.0050983991026817;2.217353137149129;1.5899488688018641;2.5279374054043275;4.920106287509372;4.439516916131607;0.026205771387784238;0.0002534931912824589;0.048944631385744564;0.0499643112062812;0.0008879698773667341;0.0856531049250535;0.0;53.726896839999995;86.8528514
-1.588458388300066;1.8250586975387824;0.337539881562972;-0.0458855919241358;0.0294366021147068;-0.0050983991026817;1.5999476812262472;1.5088083597610447;2.2765026664848143;4.920106287509372;4.439516916131607;0.026205771387784238;0.00029344257912804076;0.048944631385744564;0.0499643112062812;0.0010203643206028194;0.0917711838482716;0.0;53.726938340000004;86.85261385999999
0.0600838473189822;1.717977000524039;0.337539881562972;-0.0050983991026817;0.02814780130467441;-0.0050983991026817;0.4805893713777651;1.4129428544974478;1.9964075100753962;4.920106287509372;4.439516916131607;0.03538288977261139;0.00036497716835298303;0.05812174977057172;0.0499643112062812;0.0009100356179060818;0.0917711838482716;0.0;53.72701508;86.8523706
-0.9598693412936632;1.5079599772176875;0.337539881562972;-0.0295707147955541;0.029906938541587207;-0.0050983991026817;1.4103772352752717;1.2237317391516487;1.497519369407119;4.920106287509372;4.439516916131607;0.06291424492709285;0.0007385929008359678;0.08565310492505318;0.0499643112062812;0.000693745149645525;0.0917711838482716;0.0;53.72713269999999;86.8521247
-1.628621242720565;1.2005347056939006;0.7995233527783334;-0.061180789232181;0.029403420385524178;-0.0050983991026817;1.949827926511642;0.7121797602141753;0.5072000108587202;3.171842666541956;2.691253295164191;0.06291424492709285;0.0007312453558186774;0.08565310492505318;0.0193739165901906;0.00044720959827920223;0.0683185479759354;0.0;53.72728185;86.85187961
0.337539881562972;0.9801968639177853;0.7995233527783334;-0.0540430304884266;0.030329452144488532;-0.0050983991026817;1.2010191857598376;0.5079437579505292;0.25800686124090577;2.217353137149129;1.736763765771364;0.10676047721015602;0.0017409551585092393;0.12949933720811635;0.003059039461609;0.0002965849254247459;0.0520036708473538;0.0;53.727462700000004;86.85164574
-1.1532677478901012;0.9535143196967218;0.7995233527783334;-0.0499643112062812;0.018304128527253265;-0.0050983991026817;1.6771911864497062;0.4507892660647763;0.2032109623992197;1.9512343112331556;1.4706449398553905;0.10676047721015602;0.0017621659960119834;0.12949933720811635;-0.0061180789232181;0.0002871578865346377;0.0428265524625267;0.0;53.727666510000006;86.85143227
-1.6260377212366748;0.9994987611508838;1.0110467298233372;-0.0224329560517997;0.018997875331601008;-0.0050983991026817;1.9512343112331556;0.4446057510869529;0.1976742738995935;1.9512343112331556;1.4706449398553905;0.10676047721015602;0.0017558437570014294;0.12949933720811635;-0.0061180789232181;0.0003130822434824365;0.0458855919241358;0.0;53.72787971;86.85121539000001
0.7995233527783334;0.9914931247644917;1.0110467298233372;-0.0571020699500356;0.017052008888651722;-0.0224329560517997;1.281326289293007;0.3258752993418868;0.10619471072116432;1.9512343112331556;0.8866881805368108;0.10676047721015602;0.0019262582798788733;0.1325583766697258;-0.0061180789232181;0.00030887704476184873;0.0458855919241358;0.0;53.7281028;86.85099816
-0.5618205885324212;0.9891514829351615;1.0110467298233372;-0.0224329560517997;0.017895631007531495;-0.0224329560517997;1.0780671221779858;0.3314137020983178;0.10983504193851251;1.9512343112331556;0.8866881805368108;0.10676047721015602;0.0020612520904559816;0.13663709595187123;-0.0061180789232181;0.0003066127069892247;0.0458855919241358;30.0;53.728337620000005;86.8507773
0.5794482188497625;0.8798706755057137;1.0110467298233372;-0.0428265524625267;0.02631068143392344;-0.0224329560517997;1.0645461306963449;0.28307986239662014;0.08013420849448938;1.9512343112331556;0.8866881805368108;0.10676047721015602;0.001987811298514291;0.13663709595187123;-0.0061180789232181;0.000245391829736273;0.0458855919241358;0.0;53.72857546;86.85057481999999
1.0110467298233372;0.8801450647476261;1.0110467298233372;-0.0560823901294993;0.026512546840834917;-0.0224329560517997;1.4450199629635165;0.2745626256356775;0.07538463539595719;1.9512343112331556;0.8866881805368108;0.10676047721015602;0.0018539958677984494;0.13663709595187123;-0.0061180789232181;0.00024311593921991085;0.0458855919241358;0.0;53.72881526;86.85037686000001
-0.2393595215977209;0.8290808783778919;1.0110467298233372;-0.0723972672580809;0.036765864345210855;0.0224329560517997;1.2871978820580174;0.27352516216058603;0.0748160143349749;1.9512343112331556;0.8866881805368108;0.10676047721015602;0.001800656849960665;0.13663709595187123;-0.0061180789232181;0.00021515829937424546;0.0458855919241358;0.0;53.72905415;86.85018567
-0.9250890692212066;0.9168365497452622;2.072800789746803;-0.0744366268991536;0.035580835709292324;0.0224329560517997;1.62995246632381;0.32321293004841256;0.10446659815048004;2.1496177681939077;1.0850716374975629;0.10676047721015602;0.0014812465910958058;0.13663709595187123;-0.0193739165901906;0.00025518855642599393;0.05098399102681761;0.0;53.72929395999999;86.8500082
-0.27145771622206594;0.9884211926091344;2.072800789746803;-0.1121647802589986;0.03576882169224098;0.0224329560517997;1.4600796829021672;0.32281696721240294;0.10421079432021364;2.1496177681939077;1.0850716374975629;0.10676047721015602;0.001539056520760149;0.13663709595187123;-0.0193739165901906;0.0003030977847069753;0.05098399102681761;0.0;53.72953700000001;86.84985188
0.3415326171724118;0.9531743265148944;2.072800789746803;-0.0672988681553992;0.03820497159818984;0.0224329560517997;1.3585990865500261;0.3526409154673125;0.12435561526162424;2.1496177681939077;1.2835426347163938;0.013969613541347958;0.00025588172105026736;0.04384623228306317;-0.0193739165901906;0.0002715934525337812;0.05098399102681761;30.0;53.72978422;86.84972022000001
-0.5873907657627078;1.0977227374391036;2.1451508863827833;0.0224329560517997;0.0391661188562157;0.0224329560517997;1.1233021057343564;0.41374662529176903;0.17118626994032754;2.198676160187102;1.3326010267095882;0.013969613541347958;0.0002420184285648134;0.04384623228306317;-0.0193739165901906;0.00036673029721520916;0.05404303048842671;0.0;53.73002962;86.84961234
2.072800789746803;1.2712246213368452;2.6225962995042966;-0.0642398286937901;0.04018064689156648;0.0224329560517997;2.1496177681939077;0.5658844585748748;0.3202252204565792;2.7313747484625686;1.8652996149850547;0.013969613541347958;0.0002000473105651018;0.04384623228306317;-0.0193739165901906;0.0004970567993222143;0.062200469052717505;0.0;53.73027010999999;86.84952770999999
1.4903185547132347;1.9044792397382797;5.476735138586021;-0.0662791883348628;0.039791073407859055;0.0224329560517997;1.5065099714502335;1.3458559490215891;1.8113282355168023;5.549698638441319;4.683623504963805;0.013969613541347958;0.00017620533567605507;0.04384623228306317;-0.0193739165901906;0.0011055513647400005;0.1111451004384623;0.0;53.730496540000004;86.84945974
0.8478860443017142;1.9698469841308874;5.476735138586021;-0.003059039461609;0.04007459170940946;0.0224329560517997;0.8660751334775139;1.5701653995762421;2.46541938202642;5.549698638441319;4.683623504963805;0.013969613541347958;9.746183435867633e-05;0.03161007443662689;-0.0244723156928724;0.0011839829419764557;0.10604670133578051;0.0;53.730707540000004;86.84941218
2.1451508863827833;2.01098433199734;5.476735138586021;-0.0846334251045171;0.03892516326100822;0.0224329560517997;2.198676160187102;1.7403829400570796;3.028932778041724;5.549698638441319;4.683623504963805;0.013969613541347958;9.247971362171583e-05;0.03161007443662689;-0.0244723156928724;0.001237252643351813;0.10604670133578051;0.0;53.73090829;86.84937228999999
2.6225962995042966;1.881067552886855;5.476735138586021;-0.0295707147955541;0.04796233127436835;0.0632201488732537;2.7313747484625686;1.6803423283417;2.8235503404168054;5.549698638441319;4.683623504963805;0.03334353013153879;0.00020634355590224494;0.05098399102681772;-0.0244723156928724;0.0010782868895186076;0.10604670133578051;0.0;53.731100930000004;86.84934733
5.476735138586021;1.5059783111672913;5.476735138586021;-0.0606709493219129;0.05244281707179004;0.0632201488732537;5.549698638441319;1.568949698836046;2.46160315747772;5.549698638441319;4.683623504963805;0.03334353013153879;0.0002028777327808813;0.05098399102681772;-0.0499643112062812;0.0006874460161224474;0.0805547058223717;0.0;53.73128750000001;86.84933166
4.53107030107924;1.4716306975706106;5.476735138586021;-0.0244723156928724;0.05098628525479474;0.0632201488732537;4.706125224117543;1.5390590755491098;2.3687028380300803;5.549698638441319;4.683623504963805;0.03334353013153879;0.0001978407365111666;0.05098399102681772;-0.0499643112062812;0.0006525451772903172;0.0805547058223717;0.0;53.731466160000004;86.84932599999999
4.803205038515831;1.3595708412844278;5.476735138586021;0.0214132762312633;0.0479974855845982;0.0632201488732537;5.043558433294798;1.3964029215120943;1.9499411192075122;5.549698638441319;4.683623504963805;0.03334353013153879;0.00015250777008373183;0.04282655246252687;-0.0499643112062812;0.000563646814227344;0.0805547058223717;0.0;53.731653470000005;86.84930850999999
2.8134234944450407;1.0623256202317624;5.476735138586021;0.0632201488732537;0.048150564046185056;0.0632201488732537;3.370600358291207;1.0159733638281585;1.0322018760083038;5.549698638441319;3.3510224782542166;0.03334353013153879;0.00014470100350286066;0.04282655246252687;-0.0734169470786173;0.0003468595779860582;0.0571020699500356;30.0;53.73182613;86.84927637
3.070364121154663;1.0239242087670046;5.476735138586021;0.0560823901294993;0.03844495689989942;0.0632201488732537;3.746057107018668;0.9321297631261012;0.8688658953055215;5.549698638441319;2.81832388997875;0.03334353013153879;0.00012258905198856153;0.041806872641990456;-0.0815743856429081;0.0003311131882713306;0.0489446313857448;0.0;53.73199027999999;86.8492306
3.1883035534558344;1.084045417680711;5.669222351887177;0.0173345569491179;0.03833873333792058;0.0632201488732537;3.9338619766381404;0.9482369597340066;0.8991533318055921;6.215687989403605;2.8450876311123983;0.03334353013153879;0.00010623036685572599;0.03313959416743162;-0.0815743856429081;0.0003680819682325418;0.050983991026817596;0.0;53.73214505;86.84917033
3.129760249854866;1.0577074765756938;5.669222351887177;0.023452635872336;0.03528756840286966;0.0632201488732537;3.850575902395926;0.9786565104770413;0.9577685654990992;6.215687989403605;2.8450876311123983;0.03334353013153879;0.0001069784070127535;0.03313959416743162;-0.0815743856429081;0.0003478415612037791;0.050983991026817596;0.0;53.73229345;86.84909857
3.498187086465072;1.0472873413109718;5.669222351887177;0.0101967982053635;0.03550559039673908;0.0632201488732537;4.1222565992697735;0.981701049236927;0.9637369500728834;6.215687989403605;2.8450876311123983;0.03334353013153879;0.0001039631408971673;0.03313959416743162;-0.0815743856429081;0.00033983550979342945;0.050983991026817596;0.0;53.73243436;86.84900908
4.930223001428315;1.017789890289059;5.669222351887177;-0.0081574385642908;0.03521284471102459;0.0632201488732537;5.547885017148267;0.974358859553008;0.9493751871894384;6.215687989403605;2.8450876311123983;0.03334353013153879;9.515128561110028e-05;0.03262975425716319;-0.0815743856429081;0.0003173423177357803;0.050983991026817596;0.0;53.732568089999994;86.84889705
5.669222351887177;0.9289284975352357;5.669222351887177;-0.0285510349750178;0.031064274201745488;0.0560823901294993;6.215687989403605;0.8707618027875699;0.7582261171938587;6.215687989403605;2.469630882384937;0.016008973182420783;3.27202584516057e-05;0.015295197308045183;-0.0887121443866625;0.00025489973783254826;0.0438462322830632;0.0;53.73269154999999;86.84875939
5.277826892876518;0.8561161666226241;5.669222351887177;-0.0438462322830631;0.02514865713969917;0.0346691138982359;5.800021540938467;0.7964341174831933;0.6343073034912329;6.215687989403605;2.365112087007679;0.016008973182420783;3.24198871144208e-05;0.015295197308045183;-0.0897318242071989;0.0002174341898906088;0.0428265524625268;0.0;53.73280161;86.84860065000001
4.182183457736115;0.7711466761115612;5.669222351887177;-0.0265116753339451;0.025835466363115088;0.0346691138982359;4.882839728320894;0.7473228007976146;0.5584913685919912;6.215687989403605;2.365112087007679;0.016008973182420783;3.976743213171124e-05;0.016314877128581595;-0.0897318242071989;0.0001733489197868653;0.0428265524625268;0.0;53.732898060000004;86.84841294
4.255474195175409;0.6836404509875654;5.669222351887177;0.0071377587437544;0.024401638571907025;0.0346691138982359;4.822946621824434;0.6611387749828047;0.4371044797857637;6.215687989403605;2.0934313901338317;0.016008973182420783;3.824246995831156e-05;0.016314877128581595;-0.095849903130417;0.00014043515287765005;0.0367084735393087;0.0;53.73296323000001;86.84820675
4.020659597979377;0.5709348120221281;5.669222351887177;0.0346691138982359;0.024913040853612567;0.0346691138982359;4.5584535762905;0.5747796380265393;0.33037163228991956;6.215687989403605;1.7988389031144463;0.024166411746711636;6.133351650439626e-05;0.02447231569287245;-0.1050270215152442;9.797881964094737e-05;0.02753135515448149;0.0;53.73301731;86.84798947
4.49637812920682;0.6271278323189936;5.669222351887177;-0.0010196798205363;0.024926948653977713;0.0346691138982359;4.841317745715272;0.649821646420331;0.4222681721564297;6.215687989403605;2.162818762191617;0.024166411746711636;5.457516141773738e-05;0.02447231569287245;-0.1014581421433669;0.00011633901762637047;0.031100234526358794;0.0;53.733060609999995;86.84776653
4.16522395432126;0.5181348858971886;5.277826892876518;0.0244723156928724;0.023837401300215996;0.0346691138982359;4.416849086289159;0.5217235103128081;0.2721954212131188;5.800021540938467;1.7471523137264784;0.024166411746711636;5.2495667544919215e-05;0.02447231569287245;-0.1014581421433669;8.059482850137479e-05;0.026001835423676983;0.0;53.73309831;86.84753799
5.276095012386727;0.6537811886147279;5.276095012386727;-0.0061180789232181;0.02015426678953605;0.0346691138982359;5.424434084530833;0.6384431754152677;0.40760968823433036;5.424434084530833;2.323699830619889;0.024166411746711636;5.8006326307887245e-05;0.02447231569287245;-0.0836137452839808;0.0001257198455415273;0.043846232283063086;0.0;53.733132639999994;86.84729583999999
4.849516877003299;0.8218000255094428;5.276095012386727;-0.0275313551544814;0.022019470973095822;0.0346691138982359;5.006931095973306;0.8015749154196234;0.6425223450299765;5.424434084530833;2.5002384067736467;0.024166411746711636;0.00010846871095494007;0.03874783318038155;-0.0820842255531763;0.0001912441198368382;0.04537575201386759;0.0;53.73316221;86.84703357
3.832571465321397;1.0206404787079217;5.276095012386727;-0.0101967982053634;0.02305293397132206;0.0346691138982359;4.052869227211988;0.9801199607730738;0.9606351375058119;5.424434084530833;2.993064459588423;0.024166411746711636;0.00010157461112936128;0.03874783318038155;-0.0708677475272764;0.00030530724694684497;0.05659223003976749;0.0;53.73318681999999;86.84676121999999
4.088372422095516;1.1275985225758756;5.276095012386727;-0.0071377587437544;0.018610514696310462;0.0244723156928724;4.304260268349227;1.0803996208433961;1.1672633407185542;5.424434084530833;2.993064459588423;0.024166411746711636;0.0001022446702661582;0.03874783318038155;-0.0708677475272764;0.00037427712706197835;0.05659223003976749;0.0;53.733208590000004;86.84647835
2.7875000338285494;1.110627584057383;5.276095012386727;0.0122361578464362;0.020423315417828034;0.0244723156928724;3.100734253910944;1.063853596066345;1.131784473863294;5.424434084530833;2.993064459588423;0.024166411746711636;9.820120995790058e-05;0.03874783318038155;-0.0708677475272764;0.00036813106739342705;0.05659223003976749;0.0;53.733226079999994;86.84619119999999
2.622232464170115;1.0844144632308252;5.276095012386727;-0.037728153359845;0.01633787452711262;0.0122361578464362;2.924195677757186;1.0359661275587122;1.073225817448994;5.424434084530833;2.993064459588423;0.024166411746711636;9.480470329896449e-05;0.03874783318038155;-0.0708677475272764;0.00034860693047641283;0.05659223003976749;0.0;53.733240290000005;86.84590333
2.0863648033379736;0.8655522634998398;4.849516877003299;-0.0254919955134087;0.017589271653493176;0.0122361578464362;2.43136962494241;0.8284706477087631;0.6863636141149775;5.006931095973306;2.5755614710308965;0.024166411746711636;9.404222221226449e-05;0.03874783318038155;-0.0708677475272764;0.00021253871473168263;0.046395431834404005;0.0;53.73325329000001;86.84561681
2.268742845240408;0.6871351364676113;4.088372422095516;-0.003059039461609;0.017546198103028376;0.0122361578464362;2.5331049839764184;0.6305711161939627;0.3976199325781;4.304260268349227;1.8728906434068167;0.012949933720811546;5.356140815473862e-05;0.027531355154481463;-0.0708677475272764;0.0001410041255067403;0.035178953808504096;0.0;53.7332681;86.8453321
2.8386791010138968;0.6689552788587427;4.088372422095516;-0.0367084735393086;0.01718697485405177;0.0122361578464362;2.9445658578813436;0.5874775045828864;0.3451298183909353;4.304260268349227;1.8728906434068167;0.012949933720811546;6.287291960746856e-05;0.027531355154481463;-0.0708677475272764;0.0001368538023189076;0.035178953808504096;0.0;53.733280019999995;86.84503938
3.446726822066662;0.6369742990188704;3.8871926898600293;-0.0265116753339451;0.01667348869637968;0.0122361578464362;3.479608122978109;0.5126348154981973;0.2627944540608709;3.889941514982396;1.4585718900399862;0.0211073722851024;9.683798619683047e-05;0.035688793718772316;-0.0708677475272764;0.00011946692299340101;0.030080554705822396;0.0;53.73328583;86.84474311
3.020965346869967;0.6360609741648425;3.8871926898600293;-0.0418068726419904;0.01184517085974408;-0.003059039461609;3.0321997531721028;0.5138733177915422;0.2640657867380874;3.889941514982396;1.4585718900399862;0.0211073722851024;0.0001039775818268391;0.035688793718772316;-0.0708677475272764;0.0001201600876176737;0.030080554705822396;0.0;53.73328859000001;86.84444379
3.807631543815167;0.656901011882768;3.8923053651421524;-0.0265116753339451;0.011420110509837742;-0.003059039461609;3.8138340372827053;0.545241166044188;0.29728792914922586;3.892633965684526;1.4612643407421162;0.03232385031100238;0.00013426887590755576;0.03874783318038144;-0.0708677475272764;0.00012491115347987606;0.030080554705822396;0.0;53.733289449999994;86.84415793000001
3.6692011416595944;0.6007044353102411;3.8923053651421524;-0.020393596410727;0.014554418888356027;-0.003059039461609;3.671684825351505;0.5496709024381955;0.3021381009872202;3.892633965684526;1.4860037215910298;0.03232385031100238;0.0001343006459528349;0.03874783318038144;-0.0744366268991536;0.0001033392927353229;0.02651167533394519;0.0;53.73328941;86.84387373
3.8871926898600293;0.4973477559937502;3.8923053651421524;-0.0142755174875089;0.012369500315876084;-0.0142755174875089;3.889941514982396;0.4873618778735172;0.23752160000440112;3.892633965684526;1.4860037215910298;0.03232385031100238;0.00013088103380642298;0.03874783318038144;-0.0764759865402263;7.034465661994244e-05;0.02447231569287249;0.0;53.73328929;86.84359457000001
3.3352133031451903;0.6656632586602164;3.8923053651421524;-0.0173345569491179;0.012323182074221279;-0.0142755174875089;3.3357058575855856;0.6584004256055833;0.43349112043761323;3.892633965684526;1.962848128331715;0.03232385031100238;0.00014482519549804208;0.03874783318038144;-0.0683185479759355;0.00012458478846928103;0.03262975425716329;0.0;53.73329006;86.84331118
3.8923053651421524;0.9474849262394046;3.8923053651421524;-0.0336494340776996;0.013720915128097809;-0.0142755174875089;3.892633965684526;0.9195071692667066;0.8454934343328718;3.892633965684526;2.707091130183807;0.03232385031100238;0.0001557425383303373;0.03874783318038144;-0.0540430304884266;0.0002576723963296387;0.0469052717446722;0.0;53.73329195;86.84302378999999
2.4059524609962786;0.9867588581847452;3.8923053651421524;-0.0530233506678902;0.016131149988515055;-0.0142755174875089;2.4066302440934964;0.9518817701454262;0.9060789043351899;3.892633965684526;2.707091130183807;0.03232385031100238;0.00019455975728960854;0.04588559192413588;-0.0540430304884266;0.00027611057533529236;0.0469052717446722;0.0;53.73329238;86.84272726
3.099757137270257;0.9457346457802074;3.8923053651421524;-0.0418068726419904;0.016865352162652877;-0.0142755174875089;3.1025315806231113;0.9067434206119879;0.8221836308231284;3.892633965684526;2.707091130183807;0.03232385031100238;0.00019559083966821413;0.04588559192413588;-0.0540430304884266;0.0002520837565464398;0.0469052717446722;0.0;53.73329255;86.84241767
1.890033521845171;0.8926707136369271;3.8923053651421524;-0.0254919955134087;0.017151649091015467;-0.0142755174875089;1.9297858373528112;0.8565172504356204;0.7336218002937953;3.892633965684526;2.707091130183807;0.03232385031100238;0.00019559083966821413;0.04588559192413588;-0.0540430304884266;0.00021777210764494127;0.0469052717446722;0.0;53.733297519999994;86.84209752
1.0792659079883231;0.7846522923599736;3.8923053651421524;-0.0499643112062812;0.018802274094449654;-0.003059039461609;1.185542835500719;0.7550642819154113;0.5701220698244357;3.892633965684526;2.707091130183807;0.03232385031100238;0.0001616488785663282;0.04588559192413588;-0.0540430304884266;0.0001707524406317764;0.0458855919241358;0.0;53.733313120000005;86.84177007999999
2.1357080600931804;0.7350785285045826;3.8923053651421524;-0.0601611094116447;0.01941888535287451;-0.003059039461609;2.2469689443074747;0.7152361119761843;0.5115626958748088;3.892633965684526;2.707091130183807;0.03232385031100238;0.00017181529305566122;0.04588559192413588;-0.0540430304884266;0.00014593714708281385;0.0458855919241358;0.0;53.73334941;86.84141213000001
2.3980482920386628;0.5398952886571151;3.099757137270257;-0.0173345569491179;0.019879834268149155;-0.003059039461609;2.5553341627826334;0.5409051964515901;0.29257843154833324;3.1025315806231113;1.9169887451223924;0.009890894259202643;6.989698780009878e-05;0.023452635872336147;-0.0540430304884266;8.729541986934372e-05;0.034669113898235904;0.0;53.733397849999996;86.84104841
2.6332205305144596;0.5619503890649068;3.099757137270257;-0.0173345569491179;0.019395967289111093;-0.003059039461609;2.80707774342662;0.5672104377058778;0.32172768064249346;3.1025315806231113;1.9169887451223924;0.009890894259202643;6.553005066718089e-05;0.023452635872336147;-0.0540430304884266;9.626034900993722e-05;0.034669113898235904;0.0;53.733461250000005;86.84068685
2.524747055129372;0.5006413621345979;2.792317347059904;-0.003059039461609;0.022811878242025293;0.0193739165901906;2.7125841433702758;0.5421634648736722;0.29394122264382555;2.9573623847972774;1.7718195492965585;0.009890894259202643;6.356608423174146e-05;0.023452635872336147;-0.0540430304884266;7.789148646671083e-05;0.030590394616090505;0.0;53.73353937;86.84033233
2.6196395618648554;0.5337129985855682;2.792317347059904;-0.0112164780258998;0.024880791249359515;0.0193739165901906;2.7640765761654067;0.5209682312786277;0.2714078980015817;2.9573623847972774;1.7718195492965585;0.009890894259202643;6.488309701785966e-05;0.023452635872336147;-0.0540430304884266;8.805790095604386e-05;0.030590394616090505;0.0;53.733633659999995;86.83996069999999
2.181414532010436;0.5270205926642818;2.792317347059904;-0.0173345569491179;0.021670428703673843;0.0193739165901906;2.452296970277696;0.3328938992789853;0.11081834817716721;2.9573623847972774;1.004359716610302;0.023146731926175224;0.00013066441986133887;0.03670847353930873;-0.0530233506678902;9.279452588857416e-05;0.0316100744366269;0.0;53.73372816;86.83958928000001
2.792317347059904;0.8217250023949687;2.792317347059904;-0.0050983991026817;0.012761170625343463;0.0193739165901906;2.9573623847972774;0.44963827638229414;0.20217457958804033;2.9573623847972774;1.387615347106433;0.023146731926175224;0.00011264213963024893;0.0326297542571633;-0.0397675130009177;0.00021326653758716864;0.0448659121035994;0.0;53.73382623;86.83920607
2.5146717229155975;0.8727530906945706;2.792317347059904;0.0193739165901906;0.01402281181369924;0.0193739165901906;2.863789693960162;0.5160914854484855;0.2663504213524243;2.9573623847972774;1.387615347106433;0.023146731926175224;0.00013465878100871068;0.0326297542571633;-0.0397675130009177;0.00024256140752049345;0.0448659121035994;0.0;53.733923960000006;86.83879692000001
1.5940436029337728;0.8750491831234747;2.792317347059904;0.0142755174875089;0.014698566618621643;0.0193739165901906;2.180130876134948;0.5499535029598754;0.30244885541783767;2.9573623847972774;1.387615347106433;0.023146731926175224;0.0002976102314314833;0.061180789232181065;-0.0397675130009177;0.00023595323810242708;0.0448659121035994;0.0;53.734021129999995;86.83837185
1.1069093906124352;0.9635629184341242;2.792317347059904;-0.0050983991026817;0.02115654752979211;0.0193739165901906;1.9530026681869754;0.6623768015893134;0.43874302728368875;2.9573623847972774;2.0016436541268803;0.023146731926175224;0.0002888301461906955;0.061180789232181065;-0.037728153359845;0.00028770953004812164;0.0469052717446721;0.0;53.73411955;86.83793267000001
0.2650404439896783;0.8856212796163374;2.792317347059904;-0.0061180789232181;0.021985867068109042;0.0193739165901906;1.5697470376908444;0.6405778078746769;0.41033992794152646;2.9573623847972774;2.0016436541268803;0.023146731926175224;0.00028715499834870305;0.061180789232181065;-0.037728153359845;0.00024001980389815996;0.0469052717446721;30.0;53.73421428;86.83752308
1.0241571734527035;0.9796145228351115;2.792317347059904;-0.0265116753339451;0.0230749735890438;0.0193739165901906;1.6680575250526457;0.7149301551420753;0.5111251267314718;2.9573623847972774;2.180008894623748;0.029264810849393252;0.00037385834010147934;0.0672988681553991;-0.029060874885286;0.0003021302424189279;0.055572550219231104;0.0;53.73434109;86.83707133
1.035646264184729;1.010901659581914;2.5146717229155975;-0.023452635872336;0.022982667304721826;0.0193739165901906;1.589910913953164;0.6094146770794252;0.3713862486398201;2.863789693960162;2.0864362037866324;0.029264810849393252;0.0004478883219738033;0.0672988681553991;-0.0173345569491179;0.0003120424965460279;0.06118078923218111;0.0;53.734479269999994;86.83660791
0.15234645103002986;0.8025164474809449;1.5940436029337728;-0.0550627103089629;0.02388364031720196;0.0244723156928724;0.9557187306703971;0.5005998077707088;0.2506001675400706;2.180130876134948;1.5262890013524213;0.04150096869582964;0.0006326744580611678;0.07953502600183548;-0.0173345569491179;0.0002009051017876389;0.0458855919241358;0.0;53.73462598;86.83612742
1.2393031054612345;0.8962090206897482;1.2393031054612345;-0.0305903946160905;0.02729662543462462;0.0244723156928724;1.5034606669506978;0.41944379398721554;0.17593309631438972;1.9530026681869754;1.299160793404449;0.04150096869582964;0.0007414666458407668;0.07953502600183548;-0.0122361578464362;0.0002488489882998339;0.0448659121035994;0.0;53.73478276000001;86.83566723999999
-0.2864068382664655;0.9665110958731808;1.2393031054612345;-0.0356887937187723;0.03703682735414459;0.0560823901294993;0.7773534901735294;0.3550224138648015;0.1260409143463904;1.6680575250526457;1.0142156502701192;0.04150096869582964;0.0007175293608158833;0.07953502600183548;-0.0122361578464362;0.0002918251950047412;0.0448659121035994;0.0;53.73496987;86.83522715
-1.0338170231263653;0.9631840771149783;1.2393031054612345;-0.0071377587437544;0.04659402489553594;0.0560823901294993;1.1724569883631133;0.45519321927866907;0.2072008668772785;1.6680575250526457;1.4217621400867868;0.04150096869582964;0.0007089341194749013;0.07953502600183548;-0.0122361578464362;0.00028953775174464134;0.0448659121035994;0.0;53.73518233;86.83482520999999
0.4358553916787966;0.8959320793917775;1.2393031054612345;0.0244723156928724;0.04686091686785377;0.0560823901294993;0.6538418747825265;0.4408582523839786;0.19435599869505574;1.589910913953164;1.343615528987305;0.04150096869582964;0.0009542104217737959;0.08973182420719916;-0.0122361578464362;0.0002537011406697429;0.0448659121035994;0.0;53.73542367;86.83447007
-1.2736969199061596;0.7934048896235784;1.2393031054612345;-0.0713775874375446;0.04876124112396023;0.0560823901294993;1.3042071426644433;0.3970586454946291;0.15765556796202956;1.5034606669506978;1.257165281984839;0.04150096869582964;0.0008074905763027422;0.08973182420719916;-0.0122361578464362;0.00019092353119811253;0.0448659121035994;0.0;53.73569509;86.83415781
-1.3038048688652932;0.8395276946153244;1.2393031054612345;0.0560823901294993;0.04880990487211851;0.0560823901294993;1.306784085442133;0.44046501406613436;0.19400942861627993;1.5197783696547233;1.2734829846888645;0.04150096869582964;0.0009119735906681139;0.08973182420719916;-0.0112164780258998;0.00021465286683571458;0.0458855919241358;30.0;53.73599617;86.83388545
-0.08276636465286002;0.6997200831944308;0.4358553916787966;-0.1091057407973896;0.04970408921433507;0.0560823901294993;0.24629538496585882;0.5158387785484345;0.2660896454543409;1.9489952767292573;1.7026998917633984;0.04150096869582964;0.0009873552435577697;0.08973182420719916;-0.0040787192821454;0.00014316448858572395;0.0367084735393086;0.0;53.73631743999999;86.83364352000001
-0.38551895019147375;0.6839749183643081;0.4358553916787966;-0.0438462322830631;0.04971559319023188;0.0560823901294993;0.5613456602569047;0.511492993465436;0.26162508236423254;1.9489952767292573;1.7026998917633984;0.04150096869582964;0.0009200720640283669;0.08973182420719916;-0.0040787192821454;0.00013793976023026848;0.0367084735393086;0.0;53.736633989999994;86.83347111
-0.3477077858952484;0.7885525347529891;0.5343067127683372;-0.0734169470786173;0.049829327660723566;0.0560823901294993;0.7137243521104896;0.5116031101861745;0.26173774235216707;1.9489952767292573;1.7026998917633984;0.04150096869582964;0.0008114907138219835;0.08973182420719916;-0.0040787192821454;0.00018419694615673317;0.0397675130009177;0.0;53.73696417;86.83333793
-1.334221681451102;1.590563102981969;0.5343067127683372;-0.0560823901294993;0.048779599334438595;0.0560823901294993;1.5197783696547233;1.4356813450897452;2.0611809246387;5.2963903195621755;5.050094934596316;0.037422249413683994;0.0006547661922739252;0.08565310492505351;0.0571020699500356;0.0007786549279329967;0.1009483022330987;0.0;53.73731074;86.83324418
-1.7717340004337037;1.5983175824418097;0.5343067127683372;-0.0050983991026817;0.048164807757164856;0.0560823901294993;1.9489952767292573;1.439650878728013;2.0725946526223398;5.2963903195621755;5.050094934596316;0.036402569593147804;0.000495754227465769;0.08463342510451732;0.0571020699500356;0.0007860515721111732;0.1009483022330987;0.0;53.737667720000005;86.833189
-0.6033062540178518;1.605682459407762;0.5343067127683372;-0.0265116753339451;0.033935581721353456;-0.0050983991026817;0.8791791684267913;1.4425155577866011;2.0808511344563887;5.2963903195621755;5.050094934596316;0.036402569593147804;0.0004967708689147022;0.08463342510451732;0.0571020699500356;0.0007933298006660365;0.1009483022330987;0.0;53.7380271;86.83316694
0.5343067127683372;1.5952759515911223;0.5343067127683372;-0.0050983991026817;0.030337069356388642;-0.0050983991026817;0.8538187443526013;1.4011870981236785;1.963325283948255;5.2963903195621755;4.735044659305271;0.036402569593147804;0.0005057820090302473;0.08463342510451732;0.0571020699500356;0.0007843417660379668;0.1009483022330987;0.0;53.73838979;86.83318147
-5.25084273450244;1.6464849423502608;0.5343067127683372;-0.0897318242071989;0.03025642025311673;-0.0050983991026817;5.2963903195621755;1.4181783134164025;2.011229728644592;5.2963903195621755;4.922538770963747;0.036402569593147804;0.0002658315215945145;0.060161109411644764;0.0571020699500356;0.0008271793398180196;0.1009483022330987;0.0;53.73875095999999;86.83324311999999
-1.6793525839485401;1.6815732565090382;0.5343067127683372;-0.0601611094116447;0.029950943198879563;-0.0050983991026817;1.8618671765703911;1.423653623687111;2.026789640237442;5.2963903195621755;4.922538770963747;0.036402569593147804;0.0002586226095020788;0.060161109411644764;0.0571020699500356;0.0008631776893052479;0.1009483022330987;0.0;53.73910803;86.83335699
-1.7075583537736978;1.6926144076981149;0.5343067127683372;-0.0571020699500356;0.030327976088437736;-0.0050983991026817;1.9139534197692891;1.4545438273598208;2.1156977457105564;5.2963903195621755;4.922538770963747;0.01498929336188437;0.00011680112737588432;0.03874783318038133;0.0571020699500356;0.0008752387537675929;0.1009483022330987;0.0;53.73945269000001;86.83352501
-0.2166199659586152;1.6877865888242511;0.5343067127683372;-0.0866727847455898;0.029181376611102632;-0.0050983991026817;0.7181084106288088;1.4559416981088853;2.1197662282921845;5.2963903195621755;4.922538770963747;0.01498929336188437;7.39635535958321e-05;0.026511675333945273;0.0571020699500356;0.0008704559178601113;0.1009483022330987;0.0;53.73978423;86.83374902999999
0.2494563404948722;1.6880236363275514;0.5343067127683372;-0.0530233506678902;0.035799330633655535;0.0183542367696543;0.3738515485984281;1.472549591377854;2.1684022990670844;5.2963903195621755;4.922538770963747;0.04150096869582964;0.0002544174107814922;0.053023350667890545;0.0571020699500356;0.0008674984154632144;0.1009483022330987;0.0;53.74009701999999;86.83403109999999
-2.7551117037818136;1.6989669246993684;0.2494563404948722;-0.0693382277964719;0.036056573101147495;0.0183542367696543;2.776366325058294;1.581334037068445;2.500617336791186;5.2963903195621755;4.922538770963747;0.04150096869582964;0.00028638096451826607;0.05812174977057194;0.0571020699500356;0.0008837415731586704;0.0958499031304169;0.0;53.74038797000001;86.83436301
-0.8421608990132146;1.1970109293310067;0.2494563404948722;-0.0341592739879677;0.03679162175038574;0.0183542367696543;0.8488892533192577;1.067410310371335;1.13936477068703;3.797817394343873;3.4239658457454447;0.04150096869582964;0.0003851222652459119;0.05812174977057194;0.0316100744366268;0.0004379674032889002;0.07035790761700811;0.0;53.740659040000004;86.83473136
-1.4224869846147707;1.2009330739295239;0.2494563404948722;-0.0127459977567043;0.038638704953741256;0.0183542367696543;1.4230733067202834;1.0750278799097948;1.1556849425833482;3.797817394343873;3.4239658457454447;0.04150096869582964;0.0003925737849568439;0.05812174977057194;0.0316100744366268;0.0004407256208563187;0.07035790761700811;0.0;53.74092863;86.83511870999999
-0.5986184647981367;1.3542918048193031;0.2494563404948722;0.0183542367696543;0.03865245623406298;0.0183542367696543;0.6418453527140588;1.2567548158700976;1.5794326672126833;3.797817394343873;3.4239658457454447;0.04150096869582964;0.00045351450817415203;0.05812174977057194;0.0316100744366268;0.0005543006445433997;0.07035790761700811;30.0;53.741196120000005;86.83550396
-3.780931863776536;1.264028355035895;0.2494563404948722;-0.003059039461609;0.03382732201184573;0.0183542367696543;3.797817394343873;1.1965914866689409;1.4318311859685862;3.797817394343873;3.4239658457454447;0.04150096869582964;0.0004191450955539635;0.05812174977057194;0.0316100744366268;0.00047884967519131724;0.07035790761700811;30.0;53.74146595;86.83587363
-1.8188985262117372;1.0549411860305917;-0.5986184647981367;0.0152951973080452;0.03496922035034059;0.0183542367696543;1.8902628566672115;1.0596304711358344;1.1228167353595506;3.797817394343873;3.155972041629814;0.04150096869582964;0.0004157139306638137;0.05812174977057194;0.0316100744366268;0.0003345212476740041;0.0550627103089628;0.0;53.74173982;86.83622174
-1.8262017594686033;1.0494108892957619;-0.5986184647981367;-0.078515346181299;0.031395772591950054;0.0183542367696543;2.080631324214939;1.0376279727159428;1.0766718097625974;3.797817394343873;3.155972041629814;0.04150096869582964;0.0005062874415687791;0.0652595085143266;0.0316100744366268;0.0003324417538011861;0.0550627103089628;0.0;53.74201938;86.83653713999999
-3.4425314442644854;0.9974649988152996;-0.5986184647981367;-0.0101967982053635;0.030686358358898113;0.0183542367696543;3.6966165964304367;0.9424979859998512;0.8883024536137758;3.797817394343873;3.155972041629814;0.04150096869582964;0.0004825465531874394;0.0652595085143266;0.0316100744366268;0.0002991698518360967;0.0550627103089628;0.0;53.742307419999996;86.83680726
-1.4080422749302541;1.2178850219428492;-0.5986184647981367;-0.0418068726419904;0.032430921634797376;0.0183542367696543;2.137166830049362;1.1216204596393546;1.258032455481597;4.489855949092962;3.848010596378903;0.04150096869582964;0.0004408642537811738;0.0652595085143266;0.037728153359845;0.00044414523300273105;0.061180789232181;0.0;53.7426107;86.83702861999998
-1.5895498209482244;1.2473767588082958;-1.0299980718882553;0.0163148771285816;0.03180613850087714;0.0163148771285816;2.3484980727871343;1.0512244622503768;1.105072870033594;4.5268875629534815;2.6366247062862698;0.03232385031100238;0.0003757067790995389;0.05608239012949934;0.0397675130009177;0.00047852619836665714;0.0571020699500356;0.0;53.742930720000004;86.83720783999999
-1.0299980718882553;1.1834550685418896;-1.0299980718882553;0.0107066381156316;0.03268639822716649;0.0163148771285816;2.132530526362437;1.0167979766849522;1.0338781253906126;4.5268875629534815;2.6366247062862698;0.03232385031100238;0.00037135139471035947;0.05608239012949934;0.0397675130009177;0.00042911511339975225;0.0571020699500356;0.0;53.74326752;86.83734752000001
-1.7647603797627256;1.264366841019177;-1.0299980718882553;-0.0224329560517997;0.03344457410234588;0.0224329560517997;2.4576319709965593;1.0270795349862614;1.054892371187595;4.5268875629534815;2.4462562387385427;0.02824513102885695;0.00029719433265691837;0.05200367084735391;0.0397675130009177;0.0004935447652258992;0.0571020699500356;0.0;53.743621080000004;86.83745788
-4.182308931925773;1.2434054131348895;-1.0299980718882553;-0.0438462322830631;0.024472846770349697;0.0224329560517997;4.489855949092962;0.9611619967919866;0.9238323840771587;4.5268875629534815;2.3943570365910447;0.02824513102885695;0.0003156787226375232;0.05200367084735391;0.0397675130009177;0.0004779254556922878;0.0571020699500356;0.0;53.74397804;86.83754604
-4.233242899450784;1.266263971121903;-1.0299980718882553;0.0122361578464362;0.024366400931671677;0.0224329560517997;4.5268875629534815;1.0165220846781584;1.033317148638429;4.5268875629534815;2.437914193494394;0.0211073722851024;0.00027144326686518675;0.04486591210359936;0.0397675130009177;0.0004976922002277974;0.0571020699500356;0.0;53.744339950000004;86.83761867000001
-3.0352900630614448;1.2731843882602254;-1.0299980718882553;0.0112164780258998;0.020331826396433016;0.0224329560517997;3.2664266670358937;1.0230174306511752;1.046564663416132;4.5268875629534815;2.437914193494394;0.0211073722851024;0.00033920010888784254;0.05914142959110824;0.0397675130009177;0.0005095799735340742;0.0571020699500356;0.0;53.74470536;86.83768712
-4.065384560434442;1.1975675223962645;-1.0299980718882553;0.0224329560517997;0.027251355216653367;0.0224329560517997;4.229834820480303;0.9777094562993336;0.9559157809371386;4.5268875629534815;2.437914193494394;0.0211073722851024;0.000319826157639421;0.05914142959110824;0.0397675130009177;0.00045153898899497416;0.0571020699500356;0.0;53.74507614;86.83774814
-3.322806217214296;0.9875049544538542;-1.7015897703136111;0.0091771183848271;0.029774340353227353;0.0224329560517997;3.510941712139056;0.886933133560533;0.7866503834075064;4.5268875629534815;2.437914193494394;0.0211073722851024;0.0002976448896626948;0.05914142959110824;0.0397675130009177;0.0003059744178977085;0.0448659121035994;0.0;53.745451749999994;86.83781143
-1.7015897703136111;0.9443780844100736;-1.7015897703136111;-0.0040787192821454;0.029960006299368264;0.0224329560517997;2.0889733694590875;0.8983304947977371;0.806997677883547;4.5268875629534815;2.437914193494394;0.0211073722851024;0.00026877458306173675;0.05914142959110824;0.0397675130009177;0.00028026956308092963;0.0448659121035994;0.0;53.74583158;86.83788918
-4.19391395745675;1.0276812826632677;-1.7015897703136111;-0.0061180789232181;0.030214198817230562;0.0224329560517997;4.377862315744677;0.9601349667693825;0.9218591544132432;4.918274854621309;2.8293014851622216;0.0211073722851024;0.0002791258414508757;0.05914142959110824;0.0479249515652085;0.00032763581240623056;0.0530233506678902;0.0;53.74620952;86.83798808
-2.519902476708579;0.9705068887651302;-1.7015897703136111;-0.061180789232181;0.031118338324996605;0.0224329560517997;2.892720809263963;0.8931733727265755;0.7977586737477662;4.918274854621309;2.8293014851622216;0.03844192923422041;0.0005023595086978979;0.07647598654022625;0.0479249515652085;0.0002906208214700684;0.0530233506678902;0.0;53.74658314;86.83810314
-2.7498188071004894;0.9905600599711549;-1.7015897703136111;-0.0520036708473539;0.03440216969150635;0.0356887937187723;3.00647153457666;0.9154490085948691;0.8380468873373287;4.918274854621309;2.8293014851622216;0.03844192923422041;0.0005101691634647037;0.07647598654022625;0.0479249515652085;0.0003015843752773148;0.0530233506678902;0.0;53.74695342;86.83824813999999
-2.05758356228785;0.981293136537622;-1.7015897703136111;0.0020393596410727;0.031918313027551944;0.0356887937187723;2.3717211010010173;0.9140843771490254;0.8355502485479216;4.918274854621309;2.8293014851622216;0.03844192923422041;0.0004979694660775043;0.07647598654022625;0.0479249515652085;0.0002952996826839089;0.0530233506678902;0.0;53.74731481;86.83842777
-4.776746082588781;1.0905977816095156;-1.7015897703136111;-0.0458855919241358;0.030545041893424316;0.0356887937187723;4.918274854621309;1.0146752285823935;1.0295658194987323;4.918274854621309;2.8293014851622216;0.03844192923422041;0.0006938693416407066;0.08565310492505351;0.0479249515652085;0.00036581763045991756;0.0530233506678902;0.0;53.74769758;86.83867998
-3.2740801596358455;1.0197572464985114;-1.7212261006422365;-0.0489446313857448;0.040239114693617;0.0591414295911083;3.5214228373592653;0.959899135736554;0.9214063507877833;4.918274854621309;2.8130166221852866;0.03844192923422041;0.0006483977422884175;0.08565310492505351;0.0479249515652085;0.0003202680500873984;0.0530233506678902;0.0;53.74807487;86.83896510999999
-3.8292895869870605;0.9646522504438808;-1.7212261006422365;0.0356887937187723;0.040027249625023034;0.0591414295911083;4.0921838366814125;0.9058645010872454;0.820590494330044;4.918274854621309;2.8130166221852866;0.03844192923422041;0.0005608163920115624;0.08565310492505351;0.0479249515652085;0.00028131219820327257;0.0530233506678902;0.0;53.748445159999996;86.83928164
