acc_X;acc_X_std;acc_X_max;acc_Z;acc_Z_std;acc_Z_max;acc;acc_std;acc_var;acc_max;acc_range;fb_tilt_max;fb_tilt_var;fb_tilt_range;tilt_max;tilt_var;tilt_range;class;lat;lon
-1.5751312702017797;1.3640518561507966;1.2424379790739257;-0.0418068726419904;0.05090700372271571;0.0489446313857448;1.7625529588107471;0.8063911753526092;0.6502667276865625;2.9531839622684655;2.8067632212274978;0.05985520546548384;0.001296113872696305;0.10400734169470793;-0.0050983991026817;0.0005318912098778509;0.0672988681553992;30.0;53.72281418;86.83691594000001
-0.9831399809673118;1.3640518561507966;1.2424379790739257;0.0132558376669725;0.05090700372271571;0.0489446313857448;1.0311441793149105;0.8063911753526092;0.6502667276865625;2.9531839622684655;2.8067632212274978;0.05985520546548384;0.001296113872696305;0.10400734169470793;-0.0050983991026817;0.0005318912098778509;0.0672988681553992;30.0;53.72281418;86.83691594000001
-0.06650517087716334;1.3640518561507966;1.2424379790739257;-0.0591414295911083;0.05090700372271571;0.0489446313857448;0.14642074104096783;0.8063911753526092;0.6502667276865625;2.9531839622684655;2.8067632212274978;0.05985520546548384;0.001296113872696305;0.10400734169470793;-0.0050983991026817;0.0005318912098778509;0.0672988681553992;0.0;53.72281418;86.83691594000001
-1.517465437569725;1.3640518561507966;1.2424379790739257;-0.0866727847455898;0.05090700372271571;0.0489446313857448;1.5979879841582334;0.8063911753526092;0.6502667276865625;2.9531839622684655;2.8067632212274978;0.05985520546548384;0.001296113872696305;0.10400734169470793;-0.0050983991026817;0.0005318912098778509;0.0672988681553992;0.0;53.72281418;86.83691594000001
-2.6930289959334868;1.3640518561507966;1.2424379790739257;0.0489446313857448;0.05090700372271571;0.0489446313857448;2.8163264166611195;0.8063911753526092;0.6502667276865625;2.9531839622684655;2.8067632212274978;0.05985520546548384;0.001296113872696305;0.10400734169470793;-0.0050983991026817;0.0005318912098778509;0.0672988681553992;30.0;53.72281418;86.83691594000001
-1.2454587630471508;1.3640518561507966;1.2424379790739257;-0.0795350260018354;0.05090700372271571;0.0489446313857448;1.6681137079235573;0.8063911753526092;0.6502667276865625;2.9531839622684655;2.8067632212274978;0.05985520546548384;0.001296113872696305;0.10400734169470793;-0.0050983991026817;0.0005318912098778509;0.0672988681553992;30.0;53.72281418;86.83691594000001
1.215929020642994;1.7035273293572273;2.5473577717387386;-0.0856531049250535;0.05080810443634789;0.0489446313857448;1.8173464915279958;0.9219487215031225;0.849989445081242;3.195008129870253;3.048587388829285;0.05985520546548384;0.0014140442807725664;0.10400734169470793;-0.0050983991026817;0.0008900955822145053;0.0948302233098807;30.0;53.722694020000006;86.8368009
-2.5138449814028876;1.7040398774875447;2.5473577717387386;-0.0683185479759355;0.04574693887357474;0.0489446313857448;2.9531839622684655;0.8670851256332055;0.7518366150943517;3.195008129870253;3.048587388829285;0.05985520546548384;0.001300191991235778;0.10400734169470793;-0.0050983991026817;0.0008903728480642145;0.0948302233098807;0.0;53.72256952;86.83668408000001
1.2424379790739257;2.0172402575482877;3.0739696159115146;-0.1254206179259712;0.04591481973133987;0.0489446313857448;2.117597230920967;0.7272034860602671;0.5288249101382051;3.6786419802781767;2.0806539961199433;0.05985520546548384;0.00137505377065723;0.10400734169470793;-0.0050983991026817;0.0012177776055956853;0.0989089425920261;30.0;53.722441960000005;86.83656164
-0.4312009237233987;1.979148432589056;3.0739696159115146;-0.0530233506678902;0.04516365045637612;0.0489446313857448;1.8866957741655008;0.6745067106151496;0.4549593026648691;3.6786419802781767;2.0105282723546196;0.07718976241460185;0.0019140585824916796;0.12134189864382594;-0.0050983991026817;0.0011551848400238609;0.0989089425920261;0.0;53.72231247999999;86.83642448
2.5473577717387386;1.797549889836343;3.0739696159115146;-0.046395431834404;0.026485571316282836;-0.0346691138982359;3.195008129870253;0.7286222243949549;0.5308903458822521;3.6786419802781767;2.0105282723546196;0.07718976241460185;0.0018869211874514022;0.12134189864382594;-0.0086672784745589;0.0009260246152393072;0.0953400632201489;0.0;53.72218394;86.83627546
0.22827304397426085;1.9689308184239271;4.43778432782682;-0.0346691138982359;0.026967966404103375;-0.0346691138982359;2.0016601905413762;0.9817189872849686;0.9637721699958244;4.883634524647095;3.0662880331190996;0.07718976241460185;0.0019867946570653588;0.12134189864382594;-0.0086672784745589;0.0010658590254425855;0.11369429998980321;0.0;53.72207100000001;86.83612668
3.0739696159115146;1.9682125641591923;4.43778432782682;-0.0713775874375446;0.026090489736860036;-0.0346691138982359;3.6786419802781767;0.9253164538952894;0.8562105398493531;4.883634524647095;2.9969387504815943;0.07718976241460185;0.0020898942303681184;0.12134189864382594;-0.0086672784745589;0.0010666215065292855;0.11369429998980321;0.0;53.721958810000004;86.83596585000001
1.2921986680990152;1.4622865870528376;4.43778432782682;-0.0438462322830631;0.026862806397345906;-0.0346691138982359;2.401348953658862;0.9498288614929853;0.9021748661250607;4.883634524647095;2.9969387504815943;0.07718976241460185;0.001958016772414303;0.12134189864382594;-0.0469052717446721;0.000561694400535642;0.07545630671969;0.0;53.72184995;86.83580579
2.5992431762763637;1.4563407602986402;4.43778432782682;-0.0815743856429081;0.032502444232165084;-0.0346691138982359;3.3733666138430465;0.9213339747089108;0.8488562929529198;4.883634524647095;2.9969387504815943;0.07718976241460185;0.0018237161264614658;0.12134189864382594;-0.0469052717446721;0.0005570733030404908;0.07545630671969;30.0;53.721744130000005;86.83564621000001
4.43778432782682;1.2332554345183537;4.43778432782682;-0.0479249515652085;0.032179161190115595;-0.0346691138982359;4.883634524647095;0.860621951165218;0.7406701428274268;4.883634524647095;2.881974334105719;0.07718976241460185;0.0015756094019467911;0.10706638115631706;-0.058121749770572;0.00040508540642496374;0.06423982869379011;30.0;53.72163918;86.83547725999999
1.4132530050638064;1.3168493315988827;4.43778432782682;-0.0591414295911083;0.03358396668628232;-0.0316100744366268;2.5046947674625013;0.8950594255520049;0.801131375269485;4.883634524647095;2.881974334105719;0.07718976241460185;0.0015090655980166117;0.10706638115631706;-0.058121749770572;0.00048384046048608023;0.06423982869379011;30.0;53.72153541;86.83529413
0.6188929297432977;1.1795293483172544;4.43778432782682;-0.0836137452839808;0.0324351515449851;-0.0316100744366268;2.213046773329458;0.8341378863172099;0.6957860133897424;4.883634524647095;2.6705877513176373;0.07922912205567456;0.0016512221097112032;0.0989089425920261;-0.0622004690527174;0.0003793458933769711;0.0601611094116447;30.0;53.72143363;86.83510019
2.0490301391481562;1.1696467009728806;4.43778432782682;-0.1468338941572346;0.034648447559239376;-0.0285510349750178;2.6116408278895498;0.868777881701501;0.7547750077337473;4.883634524647095;2.7421817016804946;0.07922912205567456;0.0017161023185431274;0.0989089425920261;-0.0622004690527174;0.0003693296645562307;0.0601611094116447;30.0;53.721335090000004;86.83489925
2.2568122362522987;1.109257452777913;4.43778432782682;-0.0632201488732537;0.034229800903534585;-0.0285510349750178;2.632741309858981;0.8665651726457035;0.7509351984424779;4.883634524647095;2.7421817016804946;0.07922912205567456;0.001356523169701665;0.0989089425920261;-0.0622004690527174;0.0003068870846529988;0.0601611094116447;0.0;53.72123032;86.83467672
3.5570739339158646;1.2422614307888125;4.43778432782682;-0.0316100744366268;0.03369043661787132;-0.0285510349750178;3.7463093156127387;0.9494809024897158;0.9015139841926852;4.883634524647095;2.7421817016804946;0.07922912205567456;0.0012253302118143202;0.0989089425920261;-0.0622004690527174;0.00040394168479491435;0.0632201488732538;0.0;53.72112833999999;86.83445185999999
3.4359929866517884;1.1806635854218912;4.220919937273816;-0.0479249515652085;0.03338506409841902;-0.0285510349750178;3.5504998054556474;0.7989475977758362;0.6383172639917795;4.260524695912171;2.11907187294557;0.07922912205567456;0.0008884059934428393;0.0989089425920261;-0.0622004690527174;0.00039838481505699526;0.0632201488732538;0.0;53.72102943;86.83422750999999
1.9450804367260703;1.1165037728223728;4.220919937273816;-0.0285510349750178;0.03381639157115796;-0.0285510349750178;2.1414528229666008;0.7794586333140702;0.6075557610478381;4.260524695912171;2.11907187294557;0.07922912205567456;0.0008359680896166099;0.0989089425920261;-0.0622004690527174;0.0003625366512383589;0.0632201488732538;0.0;53.72093459;86.83400723
2.2979812154299557;0.9872372961845537;4.220919937273816;-0.0520036708473539;0.035145852005573644;-0.020393596410727;2.430567477177508;0.9333430049387835;0.8711291648681581;4.260524695912171;2.971551381150836;0.07922912205567456;0.0008886486010613357;0.0999286224125625;-0.0764759865402263;0.00026225883559357553;0.0489446313857449;0.0;53.72084553;86.83378249
4.220919937273816;0.9703798842942113;4.220919937273816;-0.0601611094116447;0.019059498264483346;-0.0050983991026817;4.260524695912171;0.9541214430440952;0.9103477280765466;4.260524695912171;2.971551381150836;0.07922912205567456;0.0008389140392697706;0.0999286224125625;-0.0764759865402263;0.0002598905231273106;0.0489446313857449;0.0;53.72076204;86.83355308
4.025492544160287;1.0048497547524957;4.220919937273816;-0.0571020699500356;0.02075437424416335;-0.003059039461609;4.042117511376825;0.9978839912480613;0.9957724599891608;4.260524695912171;2.971551381150836;0.07922912205567456;0.0007723702353395911;0.0999286224125625;-0.0764759865402263;0.0002870279181675869;0.0489446313857449;0.0;53.72068253;86.83332253
3.1730883725119794;1.2296918820590796;5.27770908756588;-0.0458855919241358;0.022457661958022547;-0.003059039461609;3.178583281379358;1.2085523471471615;1.460598775794913;5.292880406375715;4.00390709161438;0.07922912205567456;0.0006814270366350133;0.0999286224125625;-0.0764759865402263;0.0004408064900624852;0.06831854797593559;0.0;53.72060553;86.83309449
1.2840326007676737;1.7071859683179587;6.916837477555646;-0.020393596410727;0.022086525401970973;-0.003059039461609;1.2889733147613347;1.6815666888069412;2.82766652890514;6.9234227700127455;5.634449455251411;0.026205771387784238;0.00015277348318970242;0.04690527174467218;-0.0764759865402263;0.0008320401567457343;0.0938105434893444;0.0;53.72053118;86.83287166
2.268454054119343;2.04429379632494;7.686520643093026;-0.0050983991026817;0.022776400172232772;-0.003059039461609;2.276953905745782;2.031921119781893;4.1287034370157025;7.6878132354360496;6.398839920674715;0.026205771387784238;0.00017717287796410145;0.04690527174467218;-0.0764759865402263;0.0011980310783617192;0.1080860609768533;0.0;53.72045888;86.832656
3.965648036375404;2.1919524328467306;7.686520643093026;-0.003059039461609;0.021943789821689944;-0.003059039461609;3.9818036516550714;2.1896994499353233;4.794783681047057;7.6878132354360496;6.398839920674715;0.026205771387784238;0.00017329115606817445;0.04690527174467218;-0.0764759865402263;0.0013985289459325975;0.1080860609768533;0.0;53.72039972;86.83246884
5.27770908756588;2.253690702531632;7.686520643093026;-0.0081574385642908;0.022096722864209658;-0.003059039461609;5.292880406375715;2.252394121949458;5.07327928059247;7.6878132354360496;6.398839920674715;0.026205771387784238;0.0001728752572936108;0.04690527174467218;-0.0764759865402263;0.0014793172828915801;0.1080860609768533;0.0;53.7203397;86.83229106
6.916837477555646;2.366539481612475;7.686520643093026;-0.020393596410727;0.02251546019875755;-0.003059039461609;6.9234227700127455;2.3653573848154887;5.594915557901167;7.6878132354360496;6.398839920674715;0.026205771387784238;0.00021119570827215313;0.04690527174467218;-0.0764759865402263;0.0016197062247942763;0.1080860609768533;0.0;53.72027519000001;86.83211647
7.686520643093026;2.895209361910133;7.686520643093026;-0.0479249515652085;0.022028191724794303;-0.003059039461609;7.6878132354360496;2.5719512171901133;6.614933063605706;7.6878132354360496;6.666891625481874;0.026205771387784238;0.00023424343202922018;0.04690527174467218;-0.0346691138982359;0.0024797848905918386;0.1498929336188437;0.0;53.72020125;86.83193757000001
7.525080634758153;3.254467408625167;7.686520643093026;-0.040787192821454;0.02246698394492039;-0.003059039461609;7.5279395017278015;2.55399480561689;6.5228894671180555;7.6878132354360496;6.666891625481874;0.026205771387784238;0.0001906202716749916;0.040787192821454155;-0.0295707147955541;0.0031578847370303436;0.15499133272152552;0.0;53.720115379999996;86.83177234
2.9611003517690158;3.5273706293661955;7.686520643093026;-0.061180789232181;0.02052635993804926;-0.003059039461609;2.9660100145583117;2.668799153588844;7.122488922196529;7.6878132354360496;6.666891625481874;0.026205771387784238;0.00025619364513118886;0.04384623228306317;-0.0295707147955541;0.0037052421825872783;0.15499133272152552;0.0;53.72000662000001;86.83162774
2.216467191633356;3.915270192657644;7.686520643093026;-0.0601611094116447;0.018712737663982338;-0.0081574385642908;2.225369628670259;2.7265133928222385;7.433875281239033;7.6878132354360496;6.666891625481874;0.026205771387784238;0.0005335634695339086;0.07341694707861735;-0.0158050372183134;0.004565554791445532;0.16875701029876622;0.0;53.71987818;86.83150954
-0.972178700220844;4.1118711681314775;7.686520643093026;-0.0229427959620679;0.01860748822410336;-0.020393596410727;1.0209216099541754;2.703018393893294;7.306308437725483;7.6878132354360496;6.666891625481874;0.026205771387784238;0.0005313800009674497;0.07341694707861735;-0.0101967982053635;0.00503676810302611;0.1743652493117161;30.0;53.71973004;86.83141772
-1.3289758108424952;4.284034140725791;7.686520643093026;-0.0469052717446721;0.01724443423249717;-0.0229427959620679;1.4388938648078302;2.5242760452202435;6.371969552472752;7.6878132354360496;6.666891625481874;0.023146731926175224;0.0005126645561120867;0.07035790761700833;0.040787192821454;0.005562880052849083;0.2253492403385336;30.0;53.71956198;86.83134950000002
-0.7630046155354617;3.523409531949579;7.525080634758153;-0.0285510349750178;0.01772739753442954;-0.0229427959620679;1.138301274087808;2.154279629905659;4.640920723826464;7.5279395017278015;6.87892036122523;0.07922912205567456;0.0011855541151248087;0.12644029774650767;0.040787192821454;0.0038129859588726576;0.22432956051799718;30.0;53.71937256;86.83129832
-2.1367043691031125;2.398682284382598;2.9611003517690158;-0.0591414295911083;0.017458160655654375;-0.0229427959620679;2.2594833396266707;1.3549048093024427;1.835767042270889;5.325179864619402;4.676160724116831;0.07922912205567456;0.00134923338840307;0.12644029774650767;0.040787192821454;0.001780419331117827;0.1447945345161618;30.0;53.71915216;86.8312648
-2.416527721145418;2.0930663302483414;2.216467191633356;-0.0774956663607627;0.017879242361269834;-0.0229427959620679;2.546808121275617;1.4727047686310193;2.1688593355485444;5.325179864619402;4.676160724116831;0.07922912205567456;0.001551998481932507;0.12644029774650767;0.040787192821454;0.0013631342273056626;0.133578056490262;30.0;53.71891017;86.83124553
-5.265216634331145;1.559148088158216;-0.0910832772895489;-0.0683185479759355;0.022435595219322584;-0.0061180789232181;5.325179864619402;1.4728346790266607;2.169241991743567;5.325179864619402;4.676160724116831;0.07922912205567456;0.0015467073253005584;0.12644029774650767;0.040787192821454;0.0007336021155411978;0.0876924645661261;30.0;53.71864832999999;86.83125249
-0.0910832772895489;1.6925106232453933;-0.0910832772895489;-0.0652595085143265;0.02110323952267682;-0.0061180789232181;0.6490191405025715;1.5913175377167974;2.5322915058450506;5.325179864619402;4.676160724116831;0.07922912205567456;0.0014885739188115552;0.12644029774650767;0.040787192821454;0.0008627617905306757;0.0876924645661261;30.0;53.71837192;86.83128583999999
-2.8173417446730746;1.6527011241196419;-0.0910832772895489;-0.0448659121035994;0.02193194105113132;-0.0061180789232181;2.9544353862905326;1.5364470505628554;2.3606695391832977;5.325179864619402;4.676160724116831;0.07922912205567456;0.0016722625442438213;0.12644029774650767;0.040787192821454;0.0008157421235175113;0.0876924645661261;30.0;53.718083060000005;86.83133746000001
-4.007866183341346;1.4970696433515207;-0.0910832772895489;-0.037728153359845;0.022521360106969722;-0.0061180789232181;4.163015947414568;1.3912018645887831;1.935442628035307;5.325179864619402;4.676160724116831;0.07922912205567456;0.001754587396119942;0.12644029774650767;0.040787192821454;0.0006561063105475089;0.0876924645661261;30.0;53.717794409999996;86.83139185
-2.134586458012018;1.4885035815831575;-0.0910832772895489;-0.0061180789232181;0.02362906160023962;-0.0061180789232181;2.562870212727256;1.3707828903226598;1.879045732401345;5.325179864619402;4.676160724116831;0.07922912205567456;0.0015336527248767566;0.12185173855409415;0.040787192821454;0.0006423585454994337;0.0876924645661261;30.0;53.71750282000001;86.83145098
-4.814502062501894;1.460021136348377;-0.0910832772895489;-0.0560823901294993;0.025729943254875515;-0.0061180789232181;5.0089776030349675;1.3317646681553488;1.7735971313469265;5.325179864619402;4.676160724116831;0.07922912205567456;0.0016778309667254787;0.12185173855409415;0.040787192821454;0.0006150247538156137;0.0876924645661261;30.0;53.71720761;86.83150649000001
-3.486378021586383;1.4496027563861373;-0.0910832772895489;-0.0683185479759355;0.029860354346347675;0.0081574385642908;3.7224641687139894;1.3137294860590232;1.725885162540905;5.0089776030349675;4.359958462532396;0.07922912205567456;0.0015733941633350585;0.12185173855409415;0.0316100744366268;0.0006073306264861873;0.0785153461812989;30.0;53.71690788000001;86.83156004
-3.451442147135852;1.5861227339836337;0.5126355229407547;-0.0836137452839808;0.04038427021418782;0.0081574385642908;3.667783244495519;1.2109128504822408;1.4663099314630257;5.0089776030349675;3.856266945744842;0.04150096869582964;0.0010367692167106118;0.08412358519424923;0.0316100744366268;0.0007596188944388992;0.0917711838482715;30.0;53.716604069999995;86.83160439000001
-4.06033347212864;1.5883487388761006;0.5126355229407547;-0.0336494340776996;0.042570055129146085;0.0081574385642908;4.2585192261423845;1.2065982830882196;1.4558794167514393;5.0089776030349675;3.856266945744842;0.04150096869582964;0.0009376235699521384;0.08412358519424923;0.0316100744366268;0.0007615828608743386;0.0917711838482715;0.0;53.71630655;86.83163199
-3.182847903552719;1.540987847116283;0.5126355229407547;-0.0101967982053635;0.04556345080979629;0.0081574385642908;3.4050804416530536;1.1658178070531935;1.3591311592423172;5.0089776030349675;3.856266945744842;0.04150096869582964;0.0007125732337523338;0.07341694707861746;0.0316100744366268;0.0007132692865625317;0.0917711838482715;0.0;53.7160116;86.8316468
-1.0390406604305815;1.5242867804399736;0.5126355229407547;0.0081574385642908;0.05123049750992983;0.0081574385642908;1.5551920166372206;1.1463623995356815;1.3141467510692055;5.0089776030349675;3.856266945744842;0.04150096869582964;0.0007467809079601912;0.07341694707861746;0.0316100744366268;0.000696933706917172;0.0917711838482715;0.0;53.71572351;86.83164031
0.5126355229407547;1.6211593836488873;0.5126355229407547;-0.1274599775670439;0.05375785796780332;0.0081574385642908;1.1527106572901253;1.170356716475093;1.3697348437983612;4.2585192261423845;3.3267058956310542;0.04150096869582964;0.0008306884857284012;0.07341694707861746;0.0188640766799225;0.000805229126716044;0.0790251860915672;0.0;53.71545007000001;86.83161263
-3.119620380787731;1.7927959394468937;0.5126355229407547;-0.0887121443866625;0.05883011577191833;0.0081574385642908;3.2759997929027524;1.2675931504585902;1.606792395089534;4.2585192261423845;3.3626617868157154;0.04150096869582964;0.0006443658347238996;0.07341694707861746;0.0188640766799225;0.0009898419716473387;0.0800448659121035;30.0;53.71519781000001;86.83155749
-3.057621376678335;1.7893271899829792;0.5126355229407547;-0.1050270215152442;0.06860457564048926;0.0560823901294993;3.212184048949349;1.3227821719524264;1.7497526744351788;4.2585192261423845;3.565824113154241;0.04150096869582964;0.0005754306128399793;0.0652595085143266;0.0188640766799225;0.0009784047553468398;0.0800448659121035;30.0;53.714961300000006;86.83148482
-2.9433633085763224;1.7419394766719507;0.9664850789454249;-0.1560110125420618;0.06844643782958579;0.0560823901294993;3.097155990886506;1.1591593480026914;1.3436503940620246;3.4050804416530536;2.7123853286649102;0.04150096869582964;0.000553884745768837;0.0652595085143266;0.003059039461609;0.0009324103943404122;0.0734169470786172;30.0;53.71473354;86.83140298000001
0.13501876046482542;1.67796675718253;0.9664850789454249;-0.0193739165901906;0.06712707144115392;0.0560823901294993;0.9318133305113302;1.072917384992618;1.1511517150193975;3.2759997929027524;2.583304679914609;0.02824513102885695;0.00037321138645215687;0.05200367084735391;0.0020393596410727;0.000864849948961301;0.0723972672580809;30.0;53.714513880000005;86.83132667999999
0.4751457697489907;1.6940284146960958;0.9664850789454249;0.0071377587437544;0.06377687680681914;0.0560823901294993;0.8958574393266691;1.1367425794540396;1.2921836919438234;3.2759997929027524;2.781725270525562;0.02824513102885695;0.00035624040590121386;0.05200367084735391;0.0020393596410727;0.000881751613049817;0.0723972672580809;30.0;53.7142738;86.83125812
-0.20461122807417675;1.6973012259702145;0.9664850789454249;0.0560823901294993;0.05938318269287948;0.0560823901294993;0.6926951129881435;1.1619260754154435;1.3500722047303348;3.2759997929027524;2.781725270525562;0.027225451208320428;0.0002617851731003207;0.05098399102681739;0.0020393596410727;0.0008906703312154585;0.0723972672580809;30.0;53.71403764;86.83120371999999
0.9664850789454249;1.5131559603532687;0.9664850789454249;-0.0479249515652085;0.0580959290416039;0.0560823901294993;1.0595613377483863;0.9930835146054012;0.9862148669810161;3.212184048949349;2.717909526572159;0.020087692464565987;0.000156204648079852;0.04384623228306295;0.0010196798205363;0.0007084257987504292;0.0713775874375445;0.0;53.71379631999999;86.83116976
0.7938019177056952;1.2252015875683426;0.9664850789454249;-0.0499643112062812;0.054233617184130306;0.0560823901294993;0.8866504739704937;0.7654246553317778;0.5858749029897709;3.097155990886506;2.602881468509316;0.020087692464565987;0.00015757942458465962;0.04384623228306295;-0.0010196798205363;0.00046535607050547114;0.0693382277964719;0.0;53.71355148;86.83115276000001
0.0880038078444052;1.0762817048747635;0.9664850789454249;-0.0703579076170082;0.035476172158089334;0.0560823901294993;0.49427452237719016;0.5509098596538133;0.30350167346378426;2.314154420521597;1.8198798981444066;0.020087692464565987;0.00013263705085458068;0.04384623228306295;-0.0122361578464362;0.00036026076072199223;0.05812174977057201;0.0;53.7133105;86.83115242
0.5554233307646581;1.8809350601175894;0.9664850789454249;-0.0392576730906494;0.035476172158089334;0.0560823901294993;0.7253182663629809;1.3977914154325384;1.9538208410568991;5.120415582949824;4.626141060572634;0.020087692464565987;8.966084414967391e-05;0.03364943407769949;0.0367084735393086;0.001082503640982927;0.10706638115631681;0.0;53.71306373;86.83117956999999
-1.671160168447816;2.383622655590028;0.9664850789454249;-0.0326297542571632;0.033458388430800706;0.0560823901294993;1.7033988938219273;1.906081506452859;3.6331467092415997;5.671545036837027;5.1772705144598365;0.020087692464565987;9.131288650418992e-05;0.03364943407769949;0.0469052717446721;0.0017437826925390779;0.1172631793616803;0.0;53.712800779999995;86.83123150000002
-0.7273118704334269;2.653712194923918;0.9664850789454249;-0.037728153359845;0.013532811308770277;-0.0193739165901906;0.7330134968416142;2.1245873183850876;4.513871273442737;5.671545036837027;5.1772705144598365;0.006831854797593628;6.563113717488718e-05;0.02651167533394516;0.0469052717446721;0.0021768719497846584;0.1172631793616803;0.0;53.71252181;86.83130581
-2.301012852960374;2.5043102121932153;0.7938019177056952;-0.0346691138982359;0.013335018552643888;-0.0193739165901906;2.314154420521597;2.0963914953732528;4.394857301873302;5.671545036837027;5.1772705144598365;0.006831854797593628;5.731316168361495e-05;0.02651167533394516;0.0469052717446721;0.0019295392591004218;0.11318446007953491;0.0;53.71223166;86.8313843
-5.116342666867964;2.256689578869141;0.5554233307646581;-0.0193739165901906;0.01669504068895867;-0.0193739165901906;5.120415582949824;2.003419978381924;4.013691609779829;5.671545036837027;5.1772705144598365;0.006831854797593628;9.755136812264543e-05;0.03262975425716341;0.0469052717446721;0.0015690474435036677;0.1091057407973894;0.0;53.71193257;86.83146153
-5.661240827969982;2.161858559632742;0.5554233307646581;-0.0367084735393086;0.013442875649719677;-0.0193739165901906;5.671545036837027;1.9758569707438176;3.904010768836935;5.671545036837027;4.95657413959779;0.03232385031100238;0.0002504750369809405;0.05812174977057216;0.0469052717446721;0.00143024122749306;0.1091057407973894;0.0;53.71163987;86.83151955000001
-5.346536079688191;1.8844095714815776;-0.7091135521682999;-0.0336494340776996;0.013491665217237266;-0.0193739165901906;5.354106596013013;1.8795472865739373;3.53269800246745;5.671545036837027;4.95657413959779;0.03232385031100238;0.0002520346573855539;0.05812174977057216;0.0469052717446721;0.001086061886054191;0.0866727847455898;0.0;53.71132816000001;86.831556
-3.5793485944485353;1.8522386983193213;-0.7091135521682999;-0.0438462322830631;0.014303410042856434;-0.0193739165901906;3.5799922504138944;1.8480706630177006;3.415365175506684;5.671545036837027;4.95657413959779;0.03232385031100238;0.00026381845599818905;0.05812174977057216;0.0469052717446721;0.001048527021649825;0.0866727847455898;0.0;53.71101736000001;86.83156776000001
-2.6023172241791204;1.8179248085869761;-0.7091135521682999;-0.0723972672580809;0.021072286499312053;0.0101967982053635;2.603587867867158;1.8088951612510729;3.272101704397545;5.671545036837027;4.95657413959779;0.03232385031100238;0.0002763878411850007;0.05812174977057216;0.0469052717446721;0.0010141460562858992;0.0856531049250534;0.0;53.71067891;86.83154162999999
-0.7091135521682999;1.985127550665652;-0.4526447140454075;-0.0418068726419904;0.021073382957751245;0.0101967982053635;0.7149708972392367;1.9784722235214511;3.914352339245915;5.671545036837027;5.215159880938575;0.03232385031100238;0.0003237194322790881;0.05812174977057216;0.0469052717446721;0.001202883230731617;0.0907515040277352;0.0;53.710337700000004;86.8315025
-1.6703209596530804;2.0205427808507124;0.22445350250416407;-0.0428265524625267;0.0208041339977388;0.0101967982053635;1.720578432524647;1.9570368495944952;3.829993230670747;5.671545036837027;5.427779909486319;0.03232385031100238;0.00031872864698432435;0.05812174977057216;0.0469052717446721;0.0012501917163382295;0.10298766187417141;0.0;53.70999898;86.83145306
-2.1957122575650643;1.6874410397341426;0.22445350250416407;-0.023452635872336;0.021177355833303855;0.0101967982053635;2.224200935560341;1.6257497219296768;2.6430621583544216;5.354106596013013;5.110341468662305;0.03232385031100238;0.0003251057615276331;0.05812174977057216;0.0418068726419904;0.0008706609790614535;0.09788926277148971;0.0;53.70966575999999;86.83139888000001
-0.9915528927715531;1.2659069526301805;0.3562654851830822;0.0101967982053635;0.02324140646333975;0.0101967982053635;1.0350101035967494;1.1022184488213171;1.2148855089220705;3.5799922504138944;3.336227123063187;0.03232385031100238;0.0002988001640364845;0.05812174977057216;0.0101967982053635;0.00048522678973462113;0.0693382277964718;0.0;53.70934361;86.83134553000001
-0.4526447140454075;0.960346249839952;0.3562654851830822;-0.0326297542571632;0.02271348085487177;0.0101967982053635;0.4563851558984516;0.7900819465974465;0.6242294823392103;2.603587867867158;2.3598227405164502;0.03232385031100238;0.00036072287047151177;0.060161109411644764;-0.0071377587437544;0.00027708100580926885;0.0520036708473539;0.0;53.70903253;86.83129813
0.22445350250416407;0.959661503488896;0.3562654851830822;-0.023452635872336;0.02204915985164351;0.0101967982053635;0.24376512735070738;0.8040071179683588;0.6464274457437864;2.6713593129180477;2.42759418556734;0.03232385031100238;0.00032672314565093484;0.060161109411644764;-0.0071377587437544;0.00027708100580926885;0.0520036708473539;0.0;53.70872306;86.8312549
-0.6560405033446215;1.0535071734138368;0.3562654851830822;-0.0209034363209952;0.02302566836825034;0.0101967982053635;0.7017815453481774;0.885903737563658;0.7848254322292587;2.6713593129180477;2.42759418556734;0.01498929336188437;0.00016386411717806445;0.04282655246252676;-0.0071377587437544;0.0003366007415468175;0.0520036708473539;0.0;53.70843363;86.83123171
0.3562654851830822;1.4030168197852964;0.3562654851830822;-0.0020393596410727;0.024319892199398226;0.0101967982053635;0.6031427081456083;1.2467122267378772;1.554291376297716;4.10846011302712;3.8646949856764126;0.01498929336188437;0.0001928037402414497;0.04282655246252676;0.0193739165901906;0.0006054099828397679;0.07851534618129889;0.0;53.70816459;86.83123147
-1.125402597010698;1.6307054304266375;0.3562654851830822;-0.023452635872336;0.030730985629857887;0.0101967982053635;1.2980581579466033;1.4725562318173562;2.1684218558641315;4.10846011302712;3.8646949856764126;0.01498929336188437;0.00020938192750530533;0.04282655246252676;0.0193739165901906;0.0008223358520059074;0.07851534618129889;0.0;53.70790063;86.83125679
-2.5986616944569665;2.598817707187908;0.3562654851830822;-0.0693382277964719;0.026334655774677737;-0.0020393596410727;2.6713593129180477;2.447023263515429;5.987922852185703;8.086253780713701;7.842488653362993;0.01498929336188437;0.00024918112968229573;0.04588559192413577;0.0917711838482716;0.002137904545156796;0.1509126134393799;0.0;53.70765977;86.83131801
-2.4197025123456144;2.5173463111274916;0.3562654851830822;-0.0520036708473539;0.027811132329282912;-0.0020393596410727;2.496265550934741;2.3434302730755623;5.491665444767005;8.086253780713701;7.842488653362993;0.004792495156520804;0.0001751511478099714;0.035688793718772205;0.0917711838482716;0.002013238887481351;0.1509126134393799;0.0;53.70740651999999;86.83138476
-4.081456895237733;2.3307431409478596;0.3562654851830822;-0.0560823901294993;0.026633463043540927;-0.0020393596410727;4.10846011302712;2.1850979889411457;4.774653221274638;8.086253780713701;7.483111072568093;0.003772815335984392;0.00013498225783336877;0.03466911389823579;0.0917711838482716;0.0017370821011711082;0.1509126134393799;0.0;53.70714031;86.83144623000001
-4.080013635772395;2.271261043852315;0.3562654851830822;-0.0897318242071989;0.024871270789828048;-0.0020393596410727;4.090976248832263;2.12192651118599;4.502572118873949;8.086253780713701;7.483111072568093;-0.003364943407770049;9.057639909089952e-05;0.02753135515448135;0.0917711838482716;0.0016574028276109616;0.1509126134393799;0.0;53.70686511;86.83149359000001
-8.080678415495571;2.3143542783718343;0.6244845786362743;-0.0520036708473539;0.019926270336596823;-0.023452635872336;8.086253780713701;2.1131402668829367;4.465361787522089;8.086253780713701;7.411473483381532;-0.003364943407770049;9.445812098682667e-05;0.02753135515448135;0.0917711838482716;0.0017379485569514502;0.1570306923625981;30.0;53.706583699999996;86.83152706
-2.4192982061951716;2.2773366918063758;0.6244845786362743;-0.0734169470786173;0.018757674783427193;-0.0275313551544814;2.433052499429337;2.081625867165607;4.333166250852965;8.086253780713701;7.411473483381532;0.002753135515448202;0.00013084926376114375;0.0336494340776996;0.0917711838482716;0.0016794916736377855;0.1570306923625981;0.0;53.70629469000001;86.83154013000001
-2.5973889571844455;2.3711867416393644;0.6244845786362743;-0.0489446313857448;0.02271163699851966;-0.0112164780258998;2.600980103615521;2.1770125087353303;4.739383463190097;8.086253780713701;7.411473483381532;0.002753135515448202;0.00014406560259727636;0.0336494340776996;0.0917711838482716;0.0018214517886888343;0.1570306923625981;0.0;53.70600605;86.83153565
-1.3375334595834616;2.395131297009654;0.6244845786362743;-0.0591414295911083;0.03337900775674312;0.0275313551544814;1.3393580511038812;2.197479821740367;4.828917566956075;8.086253780713701;7.411473483381532;0.002753135515448202;0.00017262398511731235;0.0336494340776996;0.0917711838482716;0.0018558327540527599;0.1570306923625981;0.0;53.705712719999994;86.83151624
0.6244845786362743;2.3542669273941472;0.6244845786362743;-0.0275313551544814;0.03986330128490476;0.0300805547058223;0.6747802973321685;2.1624452133783607;4.676169300862984;8.086253780713701;7.411473483381532;0.002753135515448202;0.00018537821420393016;0.0336494340776996;0.0917711838482716;0.0017941439906784251;0.1570306923625981;0.0;53.705422150000004;86.83149958999999
-1.6534347101377325;2.3342380997128;0.6244845786362743;-0.0305903946160905;0.03633775444719353;0.0300805547058223;1.6936177838904005;2.16112879135997;4.670477652845005;8.086253780713701;7.411473483381532;0.002753135515448202;0.00017990221367217594;0.0336494340776996;0.0917711838482716;0.0017637140636728539;0.1570306923625981;0.0;53.70512569;86.83156153
-0.7844359504305913;1.4457645871123517;0.6244845786362743;-0.0112164780258998;0.03695938878778605;0.0300805547058223;1.0059236035931451;1.2844104840602824;1.649710291563969;4.143582116613647;3.4688018192814787;0.004792495156520804;0.00017343267717896433;0.034669113898236015;0.0142755174875089;0.0006677745817227689;0.0795350260018354;0.0;53.70485509;86.83167492999999
-3.8198166501573225;1.499405352354752;0.6244845786362743;0.0275313551544814;0.031159149278041715;0.0300805547058223;3.9184766092751517;1.3606267627495257;1.8513051875102537;4.143582116613647;3.4688018192814787;0.004792495156520804;0.00016777183274740406;0.034669113898236015;0.0142755174875089;0.0007178903840576847;0.0795350260018354;0.0;53.70461444;86.831849
-2.5626107586080265;1.5021203962853933;0.6244845786362743;0.0300805547058223;0.029495216806071846;0.0300805547058223;2.8204035063175885;1.3773582579219357;1.8971157706657493;4.143582116613647;3.4688018192814787;0.005812174977057216;0.00019526736284355446;0.03568879371877243;0.0142755174875089;0.0007206861480422513;0.0795350260018354;0.0;53.70440261;86.83208772999998
-3.7440383212413275;1.6472507932033453;0.6244845786362743;0.0076475986540226;0.02381582470868624;0.0300805547058223;4.069897957963875;1.4851891851509613;2.2057869156893766;5.142509785655184;4.467729488323015;0.005812174977057216;0.00020264667790612404;0.03568879371877243;0.0326297542571632;0.0008672673605884505;0.09788926277148971;0.0;53.70421758;86.83239422
-3.7630001506552686;1.17365422219724;-0.7844359504305913;0.0173345569491179;0.022395588167761615;0.0300805547058223;4.143582116613647;1.2295669926628678;1.511834989446009;5.142509785655184;4.136586182062039;0.019068012644029797;0.0002237188824840136;0.04690527174467218;0.0326297542571632;0.0004344091582176262;0.0723972672580809;0.0;53.704055870000005;86.83276499
-3.4610894803084036;1.1192968220095212;-0.7844359504305913;-0.0122361578464362;0.0221142306031235;0.0300805547058223;3.8945481122624317;1.1156470531509624;1.2446683472044264;5.142509785655184;4.136586182062039;0.019068012644029797;0.0002194559200447365;0.04690527174467218;0.0326297542571632;0.00039679342460709465;0.0723972672580809;0.0;53.70391914;86.83320426
-2.7063565493714266;0.8122370468666726;-2.124342565608449;-0.0346691138982359;0.023444999345372326;0.0300805547058223;3.294888307896928;0.753025015562603;0.5670466740630585;5.142509785655184;2.474588477984114;0.019068012644029797;0.0002477023784838494;0.05200367084735402;0.0326297542571632;0.0002063435559022362;0.0479249515652084;0.0;53.703808790000004;86.83370319
-4.830918445798046;0.846902924802598;-2.124342565608449;-0.0101967982053635;0.020953531277909332;0.0300805547058223;5.142509785655184;0.817066137411304;0.6675970729042279;5.142509785655184;2.562747619441689;0.019068012644029797;0.000239661668842286;0.05200367084735402;0.0326297542571632;0.00022474707667667631;0.0479249515652084;30.0;53.703724;86.83426352000001
-3.2382326571418587;0.8288993017537069;-2.124342565608449;-0.0040787192821454;0.017642474598872176;0.0173345569491179;3.6762786065760062;0.7792755441518924;0.6072703737132279;5.142509785655184;2.562747619441689;0.019068012644029797;0.00024103644534709362;0.05200367084735402;0.0326297542571632;0.0002153460314599778;0.0479249515652084;0.0;53.703658960000006;86.8348692
-2.124342565608449;0.8074363822718078;-2.124342565608449;-0.0285510349750178;0.01744450695203079;0.0173345569491179;2.66792130767107;0.7652923950479062;0.5856724499181606;5.142509785655184;2.562747619441689;0.019068012644029797;0.00021977939686939759;0.05200367084735402;0.0326297542571632;0.00020413987003423608;0.0479249515652084;0.0;53.703625699999996;86.8354401
-2.51941775801663;0.8117083348898003;-2.124342565608449;-0.0275313551544814;0.014195987523365466;0.0081574385642908;2.9119798983570666;0.7948028336351646;0.6317115443544872;5.142509785655184;2.6500752055231596;0.019068012644029797;0.0002096707460987542;0.05200367084735402;0.0326297542571632;0.00020663526268161804;0.0479249515652084;0.0;53.70359877;86.83600453
-2.2476759526573673;0.8709636746741579;-1.847332279169318;0.0020393596410727;0.014581381819015339;0.0081574385642908;2.579762166213495;0.8689536559780469;0.7550804562376139;5.142509785655184;3.0999383235031552;0.019068012644029797;0.0002096707460987542;0.05200367084735402;0.0326297542571632;0.0002380125146736957;0.0530233506678902;0.0;53.7035738;86.83656068
-3.467217977539871;0.8889831514489137;-1.847332279169318;0.0081574385642908;0.019885644706768624;0.0081574385642908;3.6337090699582846;0.8786119467282663;0.7719589529336338;5.142509785655184;3.0999383235031552;0.019068012644029797;0.0002426653822141349;0.05200367084735402;0.0326297542571632;0.0002482251401379799;0.0530233506678902;0.0;53.70355163000001;86.83712987
-3.1751590364605;1.1667066425127723;-1.847332279169318;-0.0254919955134087;0.020365535910787307;0.0081574385642908;3.3152169055098466;1.1090655405236498;1.2300263731770156;6.025582018524024;3.9830105563719953;0.019068012644029797;0.00025157254763603893;0.05200367084735402;0.0520036708473539;0.0004317289216704385;0.0723972672580809;0.0;53.70352934;86.83771686
-2.358938588369065;1.5827463544814349;-1.847332279169318;-0.0142755174875089;0.020936156527854844;0.0081574385642908;2.4924345801320245;1.5158499142368889;2.2978009624919835;6.546656976769421;4.504085514617392;0.004792495156520804;0.00018202503033401134;0.03772815335984503;0.0591414295911083;0.0007767169551709584;0.07953502600183529;0.0;53.70350771999999;86.83830708
-1.847332279169318;1.735264373552664;-1.847332279169318;-0.0040787192821454;0.02063826806861064;0.0081574385642908;2.042571462152029;1.6996171382895484;2.8886984167675536;6.546656976769421;4.504085514617392;0.026205771387784238;0.0003135876760209691;0.05914142959110846;0.0591414295911083;0.0009175911123106453;0.07953502600183529;0.0;53.703487759999994;86.8388964
-3.4534936240318395;1.7166827825172728;-1.847332279169318;-0.0601611094116447;0.020670429952027843;0.0081574385642908;3.5941293581038165;1.7018965410523583;2.8964518364459813;6.546656976769421;4.504085514617392;0.026205771387784238;0.00024538027699253504;0.05506271030896304;0.0591414295911083;0.0008967239689341026;0.07953502600183529;0.0;53.70347116000001;86.83948907999999
-5.90647019236347;1.6191954155173887;-1.847332279169318;-0.0326297542571632;0.019888912332525537;0.0081574385642908;6.025582018524024;1.6246990002131547;2.6396468412936245;6.546656976769421;4.504085514617392;0.026205771387784238;0.0003204846640324824;0.05506271030896304;0.0591414295911083;0.000795348642634221;0.07953502600183529;0.0;53.70346163000001;86.84007603
-6.400865415291351;1.726253207855773;-1.847332279169318;0.0020393596410727;0.017960473235273382;0.0020393596410727;6.546656976769421;1.7262391753455186;2.979901690497576;6.569664523214525;4.527093061062496;0.026205771387784238;0.0005723344775182275;0.07749566636076255;0.0632201488732537;0.0009300998455928325;0.08361374528398069;60.0;53.70346757;86.84070661000001
-6.116010574196115;1.6909029320701998;-1.847332279169318;-0.020393596410727;0.018802043680542002;0.0020393596410727;6.316503317081179;1.6888432632401498;2.8521915677916376;6.569664523214525;4.527093061062496;0.026205771387784238;0.0007156809218178223;0.07749566636076255;0.0632201488732537;0.0009002360030304164;0.08361374528398069;60.0;53.70348228;86.84133316
-4.993095555311551;1.5177399675608532;-1.847332279169318;-0.0040787192821454;0.018969044378826544;0.0020393596410727;5.242744740021295;1.5094011772237703;2.278291913804504;6.676891020423806;4.634319558271777;0.026205771387784238;0.0007671483951700695;0.07749566636076255;0.0632201488732537;0.0007207063653437886;0.08361374528398069;60.0;53.70350886999999;86.84196134999999
-4.915017611395505;1.0381184810811412;-3.4534936240318395;-0.0107066381156316;0.020547736148550117;0.0112164780258998;5.124184953887982;1.0163435995899377;1.0329543124274316;6.676891020423806;3.0827616623199896;0.026205771387784238;0.0007752930795052737;0.07749566636076255;0.0632201488732537;0.0003403553832616228;0.0550627103089629;60.0;53.70355157;86.84259029
-6.4408595111187115;0.7611882708560174;-4.228754821928526;-0.0183542367696543;0.012631163018741889;0.0112164780258998;6.569664523214525;0.7145321059331372;0.5105561304092441;6.676891020423806;2.138521342225207;0.026205771387784238;0.0007291629737599254;0.07749566636076255;0.0632201488732537;0.00018795158787153265;0.0418068726419904;60.0;53.70361081;86.84319481
-5.792701038751105;0.7944904632583923;-4.228754821928526;0.0010196798205363;0.011375131561884036;0.0132558376669725;5.97169348059522;0.7592429470738425;0.5764498526813736;6.676891020423806;2.138521342225207;0.026205771387784238;0.00072483069485822;0.07749566636076255;0.0632201488732537;0.00020126034865756832;0.0418068726419904;60.0;53.70368972;86.8437806
-6.487767782712949;0.7431343897096233;-4.228754821928526;-0.0081574385642908;0.01114531241624033;0.0132558376669725;6.676891020423806;0.717815540864503;0.5152591507065991;6.676891020423806;2.138521342225207;0.03538288977261139;0.0008787132414467587;0.0866727847455897;0.0632201488732537;0.00018063870108545572;0.0418068726419904;60.0;53.70378674;86.84435634
-4.228754821928526;0.7819963666530046;-4.228754821928526;0.0112164780258998;0.009787657496072305;0.0132558376669725;4.538369678198599;0.7358753413023351;0.5415125179368282;6.676891020423806;2.138521342225207;0.03538288977261139;0.0008706725318051961;0.0866727847455897;0.0632201488732537;0.00020943969122398635;0.0418068726419904;60.0;53.70390209;86.84492737000001
-5.463947642096766;0.8248562436084376;-4.228754821928526;-0.0101967982053635;0.01683973087599364;0.0132558376669725;5.670689148954977;0.8084401799827698;0.6535755246105733;6.676891020423806;2.138521342225207;0.03538288977261139;0.0008655777718167923;0.0866727847455897;0.0632201488732537;0.00022925264673444778;0.0418068726419904;60.0;53.70403205;86.84549253
-4.884267494439029;1.5931699358716505;-1.153349614855768;0.0132558376669725;0.01844715749222469;0.0132558376669725;5.020473685903125;1.6174461019369328;2.616131892670979;6.676891020423806;5.494441781199295;0.03538288977261139;0.0008371118112466586;0.0866727847455897;0.0632201488732537;0.0007933153597363533;0.0948302233098805;60.0;53.70417313;86.84604833
-5.239782528050537;1.6487792897094142;-1.153349614855768;-0.0050983991026817;0.02853099851941113;0.0132558376669725;5.31107173236196;1.685612143919563;2.841288299729106;6.676891020423806;5.494441781199295;0.03538288977261139;0.0006220112755911046;0.0805547058223719;0.0622004690527174;0.0008361991444913581;0.0938105434893442;60.0;53.704317270000004;86.84654830999999
-6.445986999587612;1.64060827290651;-1.153349614855768;-0.0050983991026817;0.03213115223790599;0.0132558376669725;6.475346353532663;1.6764007359837023;2.810319427606699;6.676891020423806;5.494441781199295;0.03538288977261139;0.0004922508579272544;0.06831854797593562;0.0622004690527174;0.0008186736322409975;0.0938105434893442;60.0;53.70447051;86.84704715000001
-4.548065452251968;1.798650894652754;-1.0389929701594691;-0.0469052717446721;0.03297858165882211;0.0132558376669725;4.550767869797096;1.7986175841927035;3.2350252141671967;6.475346353532663;5.292897114308151;0.03538288977261139;0.0004653907287366875;0.06831854797593562;0.0622004690527174;0.0010002481055692302;0.0968695829509533;0.0;53.70462568000001;86.84754536
-1.153349614855768;1.8350376737827614;-1.0389929701594691;-0.0316100744366269;0.03512283486671283;0.0275313551544814;1.1824492392245116;1.8275533156349764;3.3399511214883955;6.475346353532663;5.292897114308151;0.03538288977261139;0.0004780987468483536;0.06831854797593562;0.0622004690527174;0.0010423000927751074;0.0968695829509533;0.0;53.70477475;86.84804515
-2.884367436750215;1.840973820223924;-1.0389929701594691;-0.078515346181299;0.04367450017822005;0.0275313551544814;2.904423140640142;1.8056579648631181;3.2604006860736177;6.475346353532663;5.292897114308151;0.03538288977261139;0.0004603190742357591;0.06831854797593562;0.0622004690527174;0.0010565677312913873;0.0968695829509533;0.0;53.70491399;86.84854791000001
-3.5109342444708993;1.997328110029056;-0.2996313647329498;-0.0683185479759355;0.050325328545302375;0.0275313551544814;3.5636882623118256;1.8879879326799973;3.56449843394529;6.475346353532663;5.574268952975635;0.03538288977261139;0.000633506255610294;0.06831854797593562;0.0622004690527174;0.001224174937440526;0.1080860609768532;0.0;53.70503659;86.84904427000001
-1.0389929701594691;2.140569575082867;0.82241116956448;0.0040787192821454;0.053379586624982725;0.0275313551544814;1.2547755965626601;1.8052220375946106;3.258826605017238;6.475346353532663;5.574268952975635;0.03538288977261139;0.00044710273539962754;0.06831854797593562;0.0622004690527174;0.001432413143315783;0.1294993372081166;0.0;53.70512709;86.84952132999999
-2.713913724830711;1.895882758828833;1.4086553031590743;0.0275313551544814;0.05044742179015163;0.0275313551544814;2.83199001682957;1.2350465761562957;1.5253400452753885;4.550767869797096;3.6496904692400687;0.03538288977261139;0.0003908177679086846;0.062200469052717366;0.0275313551544814;0.0010961820895685748;0.10400734169470771;0.0;53.70518036;86.84996372
-1.6827117984944795;1.8741637128925248;1.9661834931799076;-0.1040073416947078;0.05182274616693073;0.0275313551544814;1.8944104350304802;0.9073885249437729;0.8233539351996358;3.5636882623118256;2.662610861754798;0.03538288977261139;0.00040138852842884314;0.062200469052717366;0.0091771183848271;0.0010909140384241039;0.0978892627714896;0.0;53.70519770000001;86.85036506
-0.2996313647329498;2.10203591311072;2.1408667950222684;-0.1264402977465075;0.05237734942362906;0.0275313551544814;0.9010774005570276;0.8723055398547302;0.7609169548612524;3.5636882623118256;2.662610861754798;0.03538288977261139;0.00033151753430215583;0.062200469052717366;0.0091771183848271;0.0013750191124260076;0.0999286224125624;30.0;53.705181859999996;86.8507281
0.82241116956448;2.01201777962838;2.1408667950222684;-0.1182828591822167;0.053354827130485526;0.0275313551544814;1.0934371878690126;0.8255667262933645;0.681560419562743;3.5636882623118256;2.662610861754798;0.03538288977261139;0.000334151559874392;0.062200469052717366;0.0091771183848271;0.0012594801223034875;0.0999286224125624;0.0;53.70513383;86.85104871000001
1.4086553031590743;1.659677096611065;2.1408667950222684;-0.0601611094116447;0.05582142988722106;0.0275313551544814;1.4755500396015038;0.5733963018558655;0.3287833189819829;2.83199001682957;1.9309126162725425;0.03538288977261139;0.00028368917522733985;0.05608239012949934;-0.0050983991026817;0.0008561622856704206;0.0856531049250536;0.0;53.70505092;86.85132675999999
1.9661834931799076;1.610884412305711;2.1408667950222684;-0.0214132762312633;0.05818355859848964;0.0275313551544814;1.9753543543283516;0.5573127281255595;0.3105974769307538;2.83199001682957;1.9309126162725425;0.03538288977261139;0.0002739040012813571;0.05608239012949934;-0.0050983991026817;0.0008090270912198776;0.0856531049250536;0.0;53.70492543;86.85156223
2.1408667950222684;1.162824487053595;2.1408667950222684;-0.0229427959620679;0.05321172762079798;0.0254919955134087;2.146499315985407;0.3944482015323242;0.15558938369208505;2.146499315985407;1.2454219154283797;0.03538288977261139;0.00024294264806384343;0.05608239012949934;-0.023452635872336;0.0004264002186213487;0.06729886815539929;0.0;53.70477383;86.85175367000001
1.3670297112760244;0.8165508944892402;2.1408667950222684;-0.0142755174875089;0.05290624686614529;0.0254919955134087;1.4489967147580656;0.37452822018082427;0.140271387711816;2.146499315985407;1.2454219154283797;0.03538288977261139;0.0002221477093356623;0.05608239012949934;-0.0458855919241358;0.0002190400212701711;0.0448659121035995;0.0;53.70459645;86.85189885000001
1.2061059007208401;0.6789927630628825;2.1408667950222684;0.0071377587437544;0.04251143018753554;0.0254919955134087;1.4209010894952023;0.32325808875514006;0.10449579194562603;2.146499315985407;1.0530621281163945;0.009890894259202643;6.728317952940385e-05;0.030590394616090588;-0.0540430304884266;0.00014736679912037446;0.0367084735393087;0.0;53.70439416000001;86.85199608
1.29066872454891;0.7293922619812182;2.1408667950222684;0.0254919955134087;0.02672872164800116;0.0254919955134087;1.6136817164178563;0.4714421486335632;0.2222576995082307;2.7999226602436327;1.5439381927279778;0.024166411746711636;0.00014602668084678284;0.04486591210359958;-0.0540430304884266;0.0001620734418986936;0.0367084735393087;0.0;53.70418849;86.85206177
0.05964541550975211;0.7814757033798733;2.142656502961537;-0.0336494340776996;0.019962473356134304;0.0254919955134087;1.2559844675156548;0.6512199408283015;0.4240874113324165;3.195495892072221;1.9395114245565663;0.024166411746711636;0.00015976289315111986;0.04486591210359958;-0.0540430304884266;0.00019205281189848793;0.037728153359845;0.0;53.70398702999999;86.85211119
0.14366958356377246;0.7606161451895986;2.142656502961537;0.020393596410727;0.019753034374573944;0.0254919955134087;1.348987265457389;0.7341168550616869;0.5389275568856617;3.195495892072221;1.9395114245565663;0.024166411746711636;0.0001300954472322483;0.04384623228306317;-0.0540430304884266;0.0001786054181875976;0.037728153359845;0.0;53.70378727;86.85214694999999
0.9070979425430297;0.7274862182059538;2.142656502961537;-0.0010196798205363;0.01798232981037625;0.0254919955134087;1.728784362256392;0.7933718938933498;0.6294389620199207;3.195495892072221;1.9395114245565663;0.024166411746711636;0.00013932608947881306;0.04384623228306317;-0.0540430304884266;0.0001594394163264573;0.037728153359845;0.0;53.703579790000006;86.85217243000001
2.075250884385457;0.726698446051709;2.142656502961537;0.0122361578464362;0.018475395927159043;0.0254919955134087;2.7999226602436327;0.7719325729714046;0.5958798972142528;3.195495892072221;1.9395114245565663;0.024166411746711636;0.0001397419882533767;0.04384623228306317;-0.0540430304884266;0.00015906972852684518;0.037728153359845;0.0;53.70337198;86.85218734
2.142656502961537;0.7611826020986323;2.142656502961537;0.0066279188334862;0.019842971054262533;0.0254919955134087;3.195495892072221;0.7563192758510774;0.572018847023898;3.195495892072221;1.9395114245565663;0.024166411746711636;0.00014004524777649612;0.04384623228306317;-0.0540430304884266;0.0001758905234091961;0.037728153359845;0.0;53.703147799999996;86.85218588000001
1.681266334620524;0.8293619205483199;2.142656502961537;0.0193739165901906;0.018279259902218386;0.020393596410727;2.959852621123267;0.7149828729409147;0.5112005085988441;3.195495892072221;1.9395114245565663;0.024166411746711636;0.00015055824457796516;0.04384623228306317;-0.0540430304884266;0.0002116578180216673;0.037728153359845;0.0;53.70293549;86.85217324999999
1.8221129378641399;0.7273589273586711;2.142656502961537;-0.0050983991026817;0.015554434979920682;0.020393596410727;2.941490181550736;0.5927859486248397;0.3513951808870511;3.195495892072221;1.8465086266148323;0.024166411746711636;0.00015804442252010997;0.04384623228306317;-0.0550627103089629;0.0001667754086000103;0.0367084735393087;0.0;53.70272281;86.85214489
1.242122049799577;0.5958765236118826;2.142656502961537;-0.0183542367696543;0.015716986186583175;0.0214132762312633;2.5182946259029397;0.4281787032545189;0.18333700192072133;3.195495892072221;1.466711529815829;0.024166411746711636;0.00018718044222703874;0.04384623228306317;-0.0571020699500356;0.00011442992672368372;0.034669113898236;0.0;53.70251364000001;86.8521098
1.9812533436637993;0.5723674597514158;2.142656502961537;-0.020393596410727;0.01622478680899158;0.0214132762312633;2.9478292040767005;0.3041235694661712;0.09249114550484507;3.195495892072221;0.9494249312540601;0.024166411746711636;0.00024510589932876035;0.047924951565208596;-0.0571020699500356;0.00010860734387979316;0.034669113898236;0.0;53.70230774;86.85207030000001
0.2969546721907128;0.554479988327697;2.142656502961537;-0.0152951973080452;0.0159902536750564;0.0214132762312633;2.246070960818161;0.35776862738470194;0.1279983907407337;3.3877106722417847;1.1416397114236236;0.013969613541347958;0.00017863141186100762;0.03772815335984492;-0.0571020699500356;0.00010860734387979316;0.034669113898236;0.0;53.70210195999999;86.85202836
1.0220306837671291;0.5388183285879155;2.0021561808724284;-0.0142755174875089;0.018082833261325645;0.0265116753339451;2.4810949379019167;0.40056537214471183;0.16045261736143146;3.4992404352193947;1.2531694744012336;0.013969613541347958;0.00016519268270792113;0.03772815335984492;-0.0571020699500356;9.854779227003555e-05;0.030590394616090602;0.0;53.70189772;86.85198796
1.4197215054342696;0.545940002111212;2.0021561808724284;0.0214132762312633;0.01797293152645981;0.0265116753339451;2.701802353180898;0.4625079485390584;0.2139136024618083;3.609367528389461;1.3632965675712998;0.013969613541347958;0.0001834113595825549;0.03772815335984492;-0.0571020699500356;9.937958981916283e-05;0.030590394616090602;0.0;53.701695189999995;86.85195439
1.8389095586070399;0.9921520082512549;4.139246108486962;0.0112164780258998;0.017877223016024138;0.0265116753339451;3.134047964956314;0.8624297913104028;0.7437851449397049;5.249174329049928;3.0031033682317667;0.013969613541347958;0.00016908595734758586;0.03772815335984492;-0.0571020699500356;0.0003125277117830176;0.0683185479759356;0.0;53.701504650000004;86.85192513
1.8631065313918374;1.092105192350238;4.139246108486962;0.0091771183848271;0.017465355583409593;0.0265116753339451;3.3877106722417847;0.9388825452710688;0.8815004338146807;5.249174329049928;3.0031033682317667;0.013969613541347958;0.0001768840593706537;0.03772815335984492;-0.0571020699500356;0.0003720012365456155;0.0683185479759356;0.0;53.70132020999999;86.85190197
2.0021561808724284;1.1984732297505667;4.139246108486962;0.0265116753339451;0.016547689272557786;0.0341592739879677;3.4992404352193947;1.0046662561748645;1.0093542862964187;5.249174329049928;3.0031033682317667;0.013969613541347958;0.0001966536920920974;0.03772815335984492;-0.0571020699500356;0.00043900715022530994;0.0683185479759356;0.0;53.70115940000001;86.85188964
1.8312442253608223;1.0676708482343806;4.139246108486962;0.0183542367696543;0.01619984613925629;0.0438462322830631;3.609367528389461;0.9323145075619829;0.8692103410105426;5.249174329049928;2.768079391148011;0.013969613541347958;0.00019138564094762497;0.03772815335984492;-0.0693382277964719;0.0003410629888155778;0.056082390129499296;0.0;53.70100523;86.85187883
4.139246108486962;0.9595196505562961;4.139246108486962;0.0061180789232181;0.011536485428686334;0.0438462322830631;5.249174329049928;0.8180990117261199;0.669285992987254;5.249174329049928;2.5473719758690296;0.012949933720811546;0.00016580786631196264;0.036708473539308506;-0.078515346181299;0.0002664322642688845;0.0469052717446722;0.0;53.700857889999995;86.85187741
3.3769719281923862;0.8752294313812775;4.139246108486962;0.0244723156928724;0.011643019153993673;0.0438462322830631;4.634025185316183;0.7048507160614897;0.4968145319323949;5.249174329049928;2.1151263640936135;0.027735291118588745;0.00022644533000615124;0.051493830937085705;-0.0836137452839808;0.00022588213374893175;0.0418068726419904;0.0;53.70071327000001;86.85187615
3.537622279380561;0.8788480646390907;4.139246108486962;0.0341592739879677;0.01138566368213693;0.0438462322830631;4.670481438364134;0.6845220740336679;0.4685704698393544;5.249174329049928;1.9578354568003618;0.027735291118588745;0.0001575101081222317;0.046395431834403866;-0.0836137452839808;0.0002318202440302012;0.0418068726419904;0.0;53.700575879999995;86.85187956
3.4307220853498617;0.8563452968443075;4.139246108486962;0.0438462322830631;0.01032403088554391;0.0438462322830631;4.564266825243125;0.6862644243859387;0.4709588601777637;5.249174329049928;1.9578354568003618;0.027735291118588745;0.00010011607723245282;0.03415927398796781;-0.0836137452839808;0.00022461133193776508;0.0418068726419904;0.0;53.700441409999996;86.85188588999999
2.04629185420585;1.016019459329505;4.139246108486962;0.0224329560517997;0.010666910193414156;0.0438462322830631;3.583996886924138;0.7954495268330426;0.6327399497389113;5.249174329049928;2.5641673150482456;0.027735291118588745;0.00012280855411958027;0.03721831344957682;-0.0683185479759355;0.0003095673212001874;0.057102069950035694;0.0;53.70030445;86.85189485
2.5103963870413164;1.119737298486674;4.139246108486962;0.0168247170388498;0.01658212452327024;0.0438462322830631;3.7964368909298227;0.8826250663894085;0.7790270078189079;5.249174329049928;2.5641673150482456;0.027735291118588745;0.00016569233887458418;0.046395431834403866;-0.0683185479759355;0.0003667880609338985;0.057102069950035694;0.0;53.700166939999995;86.85191094
1.8046680056865876;1.3160396685333795;3.537622279380561;0.0305903946160905;0.02103744423294755;0.0438462322830631;3.291338872249566;0.8196237531045978;0.6717830966532667;4.670481438364134;2.1190818391365545;0.027735291118588745;0.0001728319345045936;0.046395431834403866;-0.0428265524625267;0.0005043465806208148;0.0703579076170083;0.0;53.700008530000005;86.85194453
2.123887035354339;1.2916648739367476;3.537622279380561;0.0285510349750178;0.023762222925785666;0.0438462322830631;3.3711336558311937;0.8000168181005884;0.64002690924379;4.670481438364134;2.2187480817620724;0.027735291118588745;0.00019369618969520142;0.046395431834403866;-0.0428265524625267;0.00048208444343792286;0.0703579076170083;0.0;53.699844469999995;86.85198783
0.8695467782103119;1.172003798485172;3.4307220853498617;0.0336494340776996;0.02948738212672785;0.0438462322830631;2.685007014001682;0.7058909858867685;0.49828208395619394;4.564266825243125;2.1628893263175453;0.027735291118588745;0.00016836968723583806;0.046395431834403866;-0.0428265524625267;0.000400187043080103;0.0693382277964719;0.0;53.69967455;86.85203806999999
0.9507044872427501;1.1382889308527462;3.2489277938589565;-0.0142755174875089;0.031000055404654767;0.0336494340776996;2.717023046209072;0.6040257228554957;0.3648470738711041;4.062713831694786;1.6613363327692063;0.027735291118588745;0.0001918448625112065;0.046395431834403866;-0.0428265524625267;0.0003704271752113284;0.06525950851432649;0.0;53.69950045;86.85209949
-0.5663130103670371;1.1264004492799455;3.2489277938589565;-0.020393596410727;0.03030658902179975;0.0336494340776996;2.5513995992275795;0.5791336832867796;0.3353958231173119;4.062713831694786;1.6613363327692063;0.03334353013153879;0.0003196528664833548;0.05200367084735391;-0.0428265524625267;0.00035708375619407904;0.06525950851432649;0.0;53.699308189999996;86.85217347
0.5615784981237586;1.0663899034216993;3.2489277938589565;-0.0158050372183134;0.03226341898274641;0.0367084735393086;2.4517333566020616;0.5126704702772129;0.2628310110942586;4.062713831694786;1.6613363327692063;0.03334353013153879;0.0002322361428047644;0.05200367084735391;-0.0428265524625267;0.0003279708419746256;0.06525950851432649;0.0;53.6991136;86.8522528
0.47705565410586237;1.3197119831921482;3.770695079211812;-0.0448659121035994;0.032834860122927426;0.0367084735393086;2.40137749892558;0.6933022838579037;0.4806680568025853;4.433662767942704;2.032285269017124;0.03334353013153879;0.00025023531754837834;0.05200367084735391;-0.0428265524625267;0.0005017241077923157;0.0744366268991537;0.0;53.69891777;86.85233601
3.2489277938589565;1.3231483696426944;3.770695079211812;-0.0458855919241358;0.03293287825711481;0.0367084735393086;4.062713831694786;0.686498400047039;0.47128005326714434;4.433662767942704;2.032285269017124;0.03334353013153879;0.000264237242958687;0.05200367084735391;-0.0428265524625267;0.0005017241077923157;0.0744366268991537;0.0;53.69872328;86.85242568
1.8232736178975708;1.3144432363092335;3.770695079211812;0.0122361578464362;0.032026938562672407;0.0367084735393086;2.963790477274388;0.6958694863118481;0.48423434197991533;4.433662767942704;2.032285269017124;0.03334353013153879;0.00025786012841537827;0.05200367084735391;-0.0428265524625267;0.0004956589173299295;0.0744366268991537;0.0;53.698530170000005;86.85251673
1.7652855436604593;1.3010429269129435;3.770695079211812;0.0367084735393086;0.031953628584866764;0.0367084735393086;2.97699124911302;0.6883098617382162;0.4737704657660822;4.433662767942704;2.032285269017124;0.03334353013153879;0.00021384417477406272;0.0489446313857449;-0.0428265524625267;0.00048799944823171637;0.0744366268991537;0.0;53.698339870000005;86.85260291
3.770695079211812;1.118943672516819;3.770695079211812;0.0356887937187723;0.031496985545366334;0.0367084735393086;4.433662767942704;0.6971759275875561;0.48605427400756923;4.433662767942704;2.032285269017124;0.03334353013153879;0.00020067404691288037;0.0489446313857449;-0.061180789232181;0.00035762673514976034;0.0560823901294994;0.0;53.69816949;86.85267829
2.1867879477736514;1.104607008810308;3.770695079211812;0.0295707147955541;0.030711195865744438;0.0367084735393086;3.183584838875091;0.713805858871582;0.5095188041593969;4.433662767942704;2.032285269017124;0.03334353013153879;0.0001550638146357375;0.03976751300091785;-0.061180789232181;0.00036483564724219635;0.0560823901294994;30.0;53.69800058;86.85275002
1.0555430734049027;1.1332679050075924;4.647250038470998;0.0244723156928724;0.024950111093376547;0.0367084735393086;2.546262695348919;0.8209497862447876;0.6739585515353625;5.107887783582526;2.561625088233607;0.03334353013153879;0.0002048185937288453;0.05098399102681772;-0.0713775874375446;0.00042125924765799454;0.06525950851432649;0.0;53.697833849999995;86.85281881
1.8364583605755236;1.2145623243476404;4.647250038470998;0.0152951973080452;0.015015436949633898;0.0367084735393086;2.939369731731643;0.8763134301939214;0.7679252279382367;5.107887783582526;2.561625088233607;0.03334353013153879;0.00020162137189938761;0.05098399102681772;-0.0713775874375446;0.00048508815680977236;0.06525950851432649;0.0;53.69767249;86.85287761
3.0718496819854524;1.3858431594974163;5.26802918067523;0.0244723156928724;0.015015436949633898;0.0367084735393086;3.763188795654182;1.0378187704116824;1.077067800218816;5.683027579567296;3.1367648842183775;0.012949933720811546;0.0001080441476225726;0.030590394616090477;-0.0713775874375446;0.0006197353850747443;0.07443662689915359;0.0;53.697531000000005;86.85292555999999
3.6084338971466563;1.3293719539290445;5.26802918067523;-0.003059039461609;0.013520747646050659;0.0356887937187723;4.188059362241739;0.9958048056883174;0.9916272110319476;5.683027579567296;3.1367648842183775;0.012949933720811546;0.00010631123606189087;0.030590394616090477;-0.0713775874375446;0.0005728427982426968;0.07443662689915359;0.0;53.69739419;86.85297307
4.647250038470998;1.4089569211676305;5.26802918067523;-0.003059039461609;0.020350781563841625;0.0295707147955541;5.107887783582526;1.0989068552550987;1.2075962765266506;5.683027579567296;3.1367648842183775;0.012949933720811546;9.300247527585519e-05;0.030590394616090477;-0.0713775874375446;0.0006441347798491434;0.07443662689915359;0.0;53.69724938;86.85302282
4.1501539583419085;1.3653280454376513;5.26802918067523;0.003059039461609;0.01908978125772086;0.0244723156928724;4.6557480456984575;1.0741707980457205;1.1538429033741802;5.683027579567296;3.1367648842183775;0.012949933720811546;9.300247527585504e-05;0.030590394616090477;-0.0713775874375446;0.0006016206828937514;0.07443662689915359;0.0;53.69710463;86.85306750999999
5.26802918067523;1.1214737030410178;5.26802918067523;0.0122361578464362;0.023749761267393126;0.0244723156928724;5.683027579567296;0.9556979295368767;0.9133585325210729;5.683027579567296;3.120238022873116;0.012949933720811546;0.0001044396915763549;0.030590394616090477;-0.0836137452839808;0.0004173890785058071;0.062200469052717394;0.0;53.69696125;86.85311357
4.175163429257374;1.154286250753525;5.26802918067523;0.0101967982053635;0.022802000612297375;0.0244723156928724;4.611597475642629;1.0018617555579705;1.0037269772496986;5.683027579567296;3.120238022873116;0.0211073722851024;0.00013542415028134418;0.03874783318038133;-0.0795350260018354;0.00044668683662506644;0.06627918833486279;0.0;53.69681622;86.85316054
1.7936162779532072;1.2487930922248196;5.26802918067523;-0.040787192821454;0.020449036953759957;0.0122361578464362;2.5627895566941805;1.0553423402266824;1.1137474550751305;5.683027579567296;3.120238022873116;0.024166411746711636;0.0001758356478764434;0.04180687264199057;-0.0795350260018354;0.0005275560427902146;0.06627918833486279;0.0;53.69667064;86.85320696
3.2132625053792845;1.4224484739570828;5.26802918067523;-0.0061180789232181;0.02084768025854955;0.0122361578464362;3.6328707401844107;1.1317652987125852;1.2808926913699874;5.683027579567296;3.120238022873116;0.024166411746711636;0.0004189284816088775;0.07035790761700833;-0.0764759865402263;0.0006451514212980776;0.06933822779647189;0.0;53.69652363;86.85325451
3.2935955817135207;1.3208588385023536;5.26802918067523;-0.0489446313857448;0.020936984223857345;0.0122361578464362;3.8198806173361337;1.0460488194919981;1.0942181327606029;5.683027579567296;3.120238022873116;0.024166411746711636;0.0003924726984491367;0.07035790761700833;-0.0764759865402263;0.0005437760949981951;0.06933822779647189;0.0;53.69637602;86.85330402
1.6450382809997173;1.2559328581406113;5.26802918067523;-0.0040787192821454;0.02552053057768635;0.0356887937187723;2.626085944753627;1.0006292472796865;1.001258890511512;5.683027579567296;3.120238022873116;0.024166411746711636;0.00041868298580444705;0.07035790761700833;-0.0764759865402263;0.0004924819128020153;0.06933822779647189;0.0;53.696226810000006;86.85335705
1.9568201974872368;1.035257705452539;4.175163429257374;0.0010196798205363;0.02819864888136349;0.0356887937187723;2.9974132074935707;0.8469030646877567;0.7172448009775146;4.920859662345038;2.358070105650857;0.024166411746711636;0.0004205198720587697;0.07035790761700833;-0.0764759865402263;0.00033405913792449083;0.0489446313857449;0.0;53.69607727;86.85341231
1.1798943297369524;0.9140829803433784;4.042515881600101;-0.0224329560517997;0.033321504286327484;0.0509839910268175;2.654650351995099;0.782816881730695;0.6128022703225688;4.920859662345038;2.358070105650857;0.024166411746711636;0.0004447806339083141;0.07035790761700833;-0.0764759865402263;0.0002624898904683347;0.047924951565208596;0.0;53.695926869999994;86.85346926999999
3.179763296797283;0.8666768842090685;4.042515881600101;-0.020393596410727;0.031032832903064633;0.0509839910268175;4.0583963571408335;0.7064086153124004;0.49901313178758283;4.920859662345038;2.2947737175914105;0.024166411746711636;0.0004428051147291371;0.07035790761700833;-0.0764759865402263;0.00023476330549742695;0.047924951565208596;0.0;53.695786080000005;86.85352816
2.8946927362905335;0.9272834984518799;4.042515881600101;0.0356887937187723;0.030853810732953322;0.0509839910268175;3.985017969477041;0.7526521334001232;0.5664852339117568;4.920859662345038;2.2947737175914105;0.024166411746711636;0.00043318167919548424;0.07035790761700833;-0.0764759865402263;0.0002652047852467362;0.047924951565208596;0.0;53.695643659999995;86.85359566000001
4.042515881600101;0.9501430962049289;4.042515881600101;0.0336494340776996;0.030441992242257115;0.0683185479759355;4.920859662345038;0.8061652553147266;0.6499024188766583;4.920859662345038;2.3604798984053077;0.031304170490465966;0.000528665106189048;0.07749566636076266;-0.0744366268991536;0.00029270031534288626;0.049964311206281295;0.0;53.69549971;86.85366675
3.013368731364097;1.0612376007918605;4.042515881600101;0.0509839910268175;0.029803039266877326;0.0683185479759355;3.974839057404122;0.9106392942506304;0.8292639242332862;4.920859662345038;3.013730336485427;0.031304170490465966;0.0005540811424123809;0.07749566636076266;-0.0672988681553992;0.0003459353584870292;0.057102069950035694;0.0;53.695358420000005;86.85374818
2.674792150573552;1.0694621940330806;4.042515881600101;0.0214132762312633;0.029140224062410056;0.0683185479759355;3.6624059181401516;0.986141007897685;0.972474087457462;4.920859662345038;3.013730336485427;0.031304170490465966;0.00045189712405084635;0.07749566636076266;-0.0672988681553992;0.0003477953502288275;0.057102069950035694;0.0;53.69522561;86.85384065
1.469866855314689;1.1046403092345962;4.042515881600101;0.0010196798205363;0.03881072947289162;0.0683185479759355;2.8118690905704082;1.1608835882012887;1.3476507053550992;4.920859662345038;3.638938306895005;0.031304170490465966;0.0002888648044219088;0.061180789232181176;-0.0672988681553992;0.0003779595641284274;0.057102069950035694;0.0;53.69510648000001;86.85394936
1.3832483382362017;1.9823388348330693;4.042515881600101;0.0683185479759355;0.03849600815546991;0.0683185479759355;2.56037976393973;1.1165851676445655;1.2467624366038423;4.920859662345038;3.638938306895005;0.031304170490465966;0.0005365094191870672;0.08565310492505351;0.0040787192821454;0.001217901797590867;0.1284796573875803;30.0;53.69500547;86.85407875
0.7371214364717726;2.3984253990935556;4.042515881600101;0.0305903946160905;0.04546728448158463;0.0683185479759355;1.907129325859611;1.0688642342802566;1.1424707513235193;4.920859662345038;3.638938306895005;0.031304170490465966;0.0022013637665089705;0.16926685020903443;0.0040787192821454;0.0017746862820379099;0.1284796573875803;30.0;53.694923519999996;86.85422464000001
1.7535118427168896;2.1837288409658724;3.013368731364097;0.014785357397777;0.04607531961319904;0.0683185479759355;2.132496243867565;1.0257729566296727;1.0522101585527806;3.974839057404122;3.181153808207791;0.031304170490465966;0.0021948942300157592;0.16926685020903443;0.0040787192821454;0.0014592155087876661;0.1080860609768532;30.0;53.69486204;86.854391
0.8891687848591401;2.0085265416186413;2.674792150573552;-0.0683185479759355;0.04567111527059367;0.0683185479759355;1.2819213554500328;1.0059526295058396;1.011940692809713;3.6624059181401516;2.8687206689438205;0.031304170490465966;0.002082601560883583;0.16926685020903443;0.0040787192821454;0.0012486783069085722;0.1040073416947078;30.0;53.69481805;86.85457229
-3.221616060632126;1.91384554452139;1.7535118427168896;-0.0173345569491179;0.05278601083004703;0.0683185479759355;3.263579645340801;0.8783400046199754;0.7714811637158184;3.263579645340801;2.4698943961444697;0.06087488528602003;0.002790726988296832;0.1988375650045885;0.0040787192821454;0.0011400709630287787;0.0876924645661262;30.0;53.69479156999999;86.85475828999999
-3.1025172785615185;1.8282347313767262;1.7535118427168896;-0.0642398286937901;0.05499135467519372;0.0683185479759355;3.1366894606716835;0.9151344053146075;0.8374709797905204;3.263579645340801;2.4698943961444697;0.06087488528602003;0.0028178181723621572;0.1988375650045885;0.0040787192821454;0.0010385916620352558;0.0876924645661262;30.0;53.69478342;86.85495238
-0.7430361215648218;1.7289460663367557;1.7535118427168896;-0.0336494340776996;0.04266984065209933;0.0305903946160905;0.793685249196331;0.9608276834871178;0.923189837355221;3.263579645340801;2.672680060615366;0.06087488528602003;0.0025104112142409533;0.1988375650045885;0.0040787192821454;0.000948584235573446;0.0876924645661262;30.0;53.69479278;86.85515118
0.9426038833651962;1.6825312082012334;1.7535118427168896;-0.058121749770572;0.035491148803811316;0.014785357397777;0.9470856508349997;0.9593209769126935;0.9202967367447246;3.263579645340801;2.672680060615366;0.06087488528602003;0.002630559749114887;0.1988375650045885;0.0040787192821454;0.0008934429897125527;0.0876924645661262;30.0;53.69481934;86.85536206
-1.825489954770424;1.4969162573315176;0.9426038833651962;-0.1050270215152442;0.028169135656533176;-0.0173345569491179;1.8494603591736798;0.9843208618207451;0.9688875590155342;3.263579645340801;2.672680060615366;0.06087488528602003;0.0026019667083636384;0.1988375650045885;0.0040787192821454;0.0007106785837793175;0.0734169470786173;30.0;53.69485459;86.85557139
-0.7052133025277598;1.399648771673634;0.9426038833651962;-0.0815743856429081;0.02886112222774369;-0.0173345569491179;0.8272715509492802;1.0054034184267469;1.0108360337841884;3.263579645340801;2.672680060615366;0.06087488528602003;0.0026808835008370856;0.1988375650045885;0.0040787192821454;0.0006125986776306645;0.0734169470786173;30.0;53.69489449;86.85576489
0.0026524394197733336;1.240888923198576;0.9426038833651962;-0.0265116753339451;0.03614218009055564;0.0193739165901906;0.590899584725435;0.8393775546486987;0.7045546792480291;3.1366894606716835;2.5457898759462485;0.06087488528602003;0.002601550809589076;0.1988375650045885;0.0020393596410727;0.00048293068191671923;0.0713775874375446;0.0;53.69493448000001;86.85594056
-1.2925021124757603;1.2269203669803235;1.3184155817810144;-0.07545630671969;0.044880844323179826;0.0305903946160905;1.4502076907053107;0.609285828413772;0.37122922070585634;2.466164656648913;1.875265071923478;0.08228816151728358;0.0013588452711929845;0.12236157846436246;-0.0122361578464362;0.0004255135455394654;0.05710206995003571;0.0;53.69497023;86.85610431
-2.3156330801302643;1.2272921034118416;1.3184155817810144;-0.0866727847455898;0.04698943066433394;0.0305903946160905;2.466164656648913;0.5939389432547564;0.3527634683145768;2.466164656648913;1.875265071923478;0.08228816151728358;0.001354686283447349;0.12236157846436246;-0.0122361578464362;0.0004264146595510199;0.05710206995003571;0.0;53.69499833;86.85625529000001
0.13826800023938413;1.0942647954689306;1.3184155817810144;-0.0397675130009177;0.047585058291696375;0.0305903946160905;0.9303779781641742;0.5861179691721742;0.34353427378651374;2.466164656648913;1.875265071923478;0.08228816151728358;0.0014620690364909286;0.12236157846436246;-0.0122361578464362;0.00032475051465769033;0.05710206995003571;90.0;53.69502136;86.85639864000001
-1.8792248866397476;1.051010429824043;1.3184155817810144;0.0193739165901906;0.04578552902064625;0.0305903946160905;1.9432759236031998;0.5663988165704967;0.32080761941245917;2.466164656648913;1.875265071923478;0.08228816151728358;0.0016345861587286623;0.13255837666972548;-0.0122361578464362;0.0002907854480683282;0.05710206995003571;90.0;53.695039210000004;86.85654449
1.3184155817810144;1.3559182728318169;1.3184155817810144;0.0305903946160905;0.04397331049478891;0.0305903946160905;1.3218557446852364;0.8895348533359547;0.7912722552994185;3.608345564264552;3.017445979539117;0.08228816151728358;0.0013645638793432302;0.13255837666972548;0.0081574385642908;0.0005047653675813087;0.0774956663607627;90.0;53.69505077;86.85669429000001
-0.7766228074533852;1.3060930844680825;1.3184155817810144;-0.0010196798205363;0.04396661058053578;0.0305903946160905;0.9861566616040628;0.8177950301081699;0.6687887112696225;3.608345564264552;2.6779675861003778;0.08228816151728358;0.0024843020133933436;0.17640460895278876;0.0081574385642908;0.0004592244517665925;0.0774956663607627;90.0;53.69505561;86.85684761
-0.7833605537127872;1.356352453503372;1.3184155817810144;-0.0112164780258998;0.04804941747360258;0.0305903946160905;1.0740756630718928;0.8324311824109559;0.6929416734501022;3.608345564264552;2.6779675861003778;0.08228816151728358;0.0028066697746551;0.17640460895278876;0.0081574385642908;0.0005165953771688963;0.0774956663607627;90.0;53.69505057;86.85699617
-1.282769302855868;1.3233163518426907;1.3184155817810144;-0.092790863668808;0.04804941747360258;0.0305903946160905;1.5847693399892737;0.8415184121062438;0.7081532379138139;3.608345564264552;2.6779675861003778;0.08228816151728358;0.004328593576451973;0.20801468338941576;0.0081574385642908;0.0004830462093540979;0.0774956663607627;90.0;53.69504102;86.85715558
-3.4730879488979247;1.799034257294726;1.3184155817810144;-0.061180789232181;0.04910734446687632;0.0305903946160905;3.608345564264552;1.4402508150719235;2.07432241031534;5.540864921409292;4.5547082598052295;0.08228816151728358;0.004673419871540166;0.20801468338941576;0.040787192821454;0.0009826301713689702;0.1101254206179259;90.0;53.69502755;86.85733923
-1.186538586658636;1.8532996517701348;1.3184155817810144;-0.0438462322830631;0.044391675073512646;0.0305903946160905;1.5609683182561207;1.4403782964768408;2.074689636961526;5.540864921409292;4.5547082598052295;0.08228816151728358;0.004556968214662353;0.20801468338941576;0.040787192821454;0.0010541185496189612;0.1101254206179259;90.0;53.69501065000001;86.85753224999999
0.029229227478348996;1.6328988441489327;0.029229227478348996;-0.1070663811563169;0.03471922859675826;-0.0010196798205363;1.159128441087481;1.4836786630013628;2.2013023750455116;5.540864921409292;4.5547082598052295;0.05169776690119299;0.00311879025222136;0.17742428877332517;0.040787192821454;0.0008856910986644329;0.0968695829509533;90.0;53.694991890000004;86.85773877
-1.965208368381267;1.7321721958700789;0.029229227478348996;-0.0866727847455898;0.029071507028157684;-0.0112164780258998;2.5477181049455706;1.5778836360388568;2.4897167688792035;5.540864921409292;4.466789258337399;0.05169776690119299;0.0025796814656932694;0.17742428877332517;0.040787192821454;0.0010079653383861353;0.0968695829509533;90.0;53.694976780000005;86.85795406
-5.162474908192386;1.7109684383623736;0.029229227478348996;-0.0713775874375446;0.03430060381779775;-0.0356887937187723;5.540864921409292;1.457682349004471;2.1248378305991924;5.540864921409292;4.381736480321811;0.07209136331192001;0.003070442019678339;0.1978178851840522;0.040787192821454;0.0009887300200625677;0.0968695829509533;90.0;53.69496293000001;86.85818085
-0.01134969610956782;1.733551999209948;0.029229227478348996;-0.0672988681553992;0.05661860900031192;-0.0356887937187723;2.3728031333686173;1.4396662070015194;2.0726387875821417;5.540864921409292;4.381736480321811;0.07209136331192001;0.003171748029515794;0.1978178851840522;0.040787192821454;0.0010124362502126937;0.0968695829509533;90.0;53.69494704;86.85840816
-2.60932642782656;2.119850943954746;0.029229227478348996;-0.0356887937187723;0.07963845189943805;0.0836137452839808;3.742312108837041;1.8393221440006204;3.383105949411039;6.934578118645748;5.775449677558266;0.07209136331192001;0.002830237371880375;0.1978178851840522;0.058121749770572;0.0014975706179974158;0.1142041399000713;90.0;53.694931610000005;86.85863081
-3.935372670976409;2.0647676447833367;0.029229227478348996;-0.0836137452839808;0.0787350864766733;0.0836137452839808;4.9036226229513575;1.6842381826588648;2.8366582559260354;6.934578118645748;5.775449677558266;0.07209136331192001;0.0026375029481013525;0.1978178851840522;0.058121749770572;0.0014102318753390559;0.1142041399000713;90.0;53.694917970000006;86.85887061000001
-1.075905467825064;1.9405997761509823;-0.01134969610956782;-0.1560110125420618;0.08113530813242069;0.0836137452839808;3.2653174417569044;1.4537612329999687;2.113421722573589;6.934578118645748;4.561774985277131;0.07209136331192001;0.0026233970479974038;0.1978178851840522;0.058121749770572;0.0012220492325927556;0.11216478025899859;90.0;53.694904310000005;86.85910271
-3.3944965700904604;1.905456810974627;-0.01134969610956782;-0.2222902008769246;0.08118130441415347;0.0836137452839808;4.621347725666172;1.3749693593260757;1.890540739085559;6.934578118645748;4.561774985277131;0.07209136331192001;0.0015873932005594305;0.1498929336188437;0.058121749770572;0.0011675318348937079;0.11216478025899859;90.0;53.694889739999994;86.85931342
-6.225859486674032;1.9122354907279866;-0.01134969610956782;0.0836137452839808;0.08117404638504964;0.0836137452839808;6.934578118645748;1.3584910052523145;1.845497811351444;6.934578118645748;4.561774985277131;0.07209136331192001;0.0012207668780378626;0.13051901702865298;0.058121749770572;0.0011596182054332614;0.11216478025899859;90.0;53.69487743;86.85949311
-2.6542147881099485;1.5574311467969142;-1.075905467825064;-0.092790863668808;0.08126237945226952;0.0836137452839808;3.88459850434707;1.3053358368332406;1.7039016469211365;6.934578118645748;4.220093927433833;0.07209136331192001;0.0012125297717527554;0.13051901702865298;0.058121749770572;0.0007537010014591698;0.0897318242071988;90.0;53.694868650000004;86.85964305
-5.059498523214015;2.3003935487460114;1.8014832837151822;-0.0142755174875089;0.08258932710339457;0.0836137452839808;5.623936180951468;1.4937058261599665;2.231157095104228;6.934578118645748;4.851537621717304;0.07209136331192001;0.001088730569857652;0.13051901702865298;0.058121749770572;0.0016527817301158095;0.1427551748750891;90.0;53.69486503;86.85976231000001
-2.599668058435837;2.3003935487460114;1.8014832837151822;-0.0892219842969307;0.08258932710339457;0.0836137452839808;3.2191060433123453;1.4937058261599665;2.231157095104228;6.934578118645748;4.851537621717304;0.07209136331192001;0.001088730569857652;0.13051901702865298;0.058121749770572;0.0016527817301158095;0.1427551748750891;90.0;53.69486503;86.85976231000001
-5.223223683647499;2.3003935487460114;1.8014832837151822;-0.0734169470786173;0.08258932710339457;0.0836137452839808;5.3464396561066;1.4937058261599665;2.231157095104228;6.934578118645748;4.851537621717304;0.07209136331192001;0.001088730569857652;0.13051901702865298;0.058121749770572;0.0016527817301158095;0.1427551748750891;90.0;53.69486503;86.85976231000001
-2.708815489870202;2.3003935487460114;1.8014832837151822;-0.061180789232181;0.08258932710339457;0.0836137452839808;2.7144841912119144;1.4937058261599665;2.231157095104228;6.934578118645748;4.851537621717304;0.07209136331192001;0.001088730569857652;0.13051901702865298;0.058121749770572;0.0016527817301158095;0.1427551748750891;90.0;53.69486503;86.85976231000001
1.8014832837151822;2.3003935487460114;1.8014832837151822;-0.0152951973080452;0.08258932710339457;0.0836137452839808;2.083040496928444;1.4937058261599665;2.231157095104228;6.934578118645748;4.851537621717304;0.07209136331192001;0.001088730569857652;0.13051901702865298;0.058121749770572;0.0016527817301158095;0.1427551748750891;90.0;53.69486503;86.85976231000001
-1.5942520340040005;2.1959729991580375;2.9557461798735467;-0.0305903946160905;0.057296368746461095;0.0774956663607627;1.7671740642028388;1.3205654227494132;1.7438930357613365;5.06286883691616;4.502544823371796;0.026205771387784238;0.0005834597697378049;0.07749566636076255;0.0520036708473539;0.0014368869433282819;0.136637095951871;0.0;53.72312908;86.83714124000001
1.0564666157553595;2.1959729991580375;2.9557461798735467;-0.0346691138982359;0.057296368746461095;0.0774956663607627;1.4757460820959794;1.3205654227494132;1.7438930357613365;5.06286883691616;4.502544823371796;0.026205771387784238;0.0005834597697378049;0.07749566636076255;0.0520036708473539;0.0014368869433282819;0.136637095951871;0.0;53.72312908;86.83714124000001
-1.1412153053305696;2.1959729991580375;2.9557461798735467;0.037728153359845;0.057296368746461095;0.0774956663607627;1.6245401874545127;1.3205654227494132;1.7438930357613365;5.06286883691616;4.502544823371796;0.026205771387784238;0.0005834597697378049;0.07749566636076255;0.0520036708473539;0.0014368869433282819;0.136637095951871;0.0;53.72312908;86.83714124000001
0.3651091393036703;2.1959729991580375;2.9557461798735467;0.0520036708473539;0.057296368746461095;0.0774956663607627;1.2116478528370365;1.3205654227494132;1.7438930357613365;5.06286883691616;4.502544823371796;0.026205771387784238;0.0005834597697378049;0.07749566636076255;0.0520036708473539;0.0014368869433282819;0.136637095951871;60.0;53.72312908;86.83714124000001
2.9557461798735467;2.1959729991580375;2.9557461798735467;-0.020393596410727;0.057296368746461095;0.0774956663607627;3.133662276360024;1.3205654227494132;1.7438930357613365;5.06286883691616;4.502544823371796;0.026205771387784238;0.0005834597697378049;0.07749566636076255;0.0520036708473539;0.0014368869433282819;0.136637095951871;60.0;53.72312908;86.83714124000001
-1.2528819124048929;2.1959729991580375;2.9557461798735467;0.0774956663607627;0.057296368746461095;0.0774956663607627;1.5049636649574054;1.3205654227494132;1.7438930357613365;5.06286883691616;4.502544823371796;0.026205771387784238;0.0005834597697378049;0.07749566636076255;0.0520036708473539;0.0014368869433282819;0.136637095951871;60.0;53.72312908;86.83714124000001
-5.034196404626542;2.3068037705679423;2.9557461798735467;0.0173345569491179;0.059511808334639905;0.0774956663607627;5.06286883691616;1.3184269854896145;1.7382497160672319;5.06286883691616;4.502544823371796;0.026205771387784238;0.0010994053050714513;0.10502702151524435;0.0520036708473539;0.0016331218484598828;0.136637095951871;60.0;53.723034940000005;86.83703942
-0.5227625308958912;2.49082950685397;2.9557461798735467;-0.0938105434893443;0.05915949587066758;0.0774956663607627;0.5603240135443645;1.3352568238412867;1.782910785614721;5.06286883691616;4.502544823371796;0.026205771387784238;0.0011977422597682723;0.10502702151524435;0.0520036708473539;0.001880928201637372;0.136637095951871;60.0;53.72292804;86.83692228000001
-3.1623543529727787;2.8239812278799814;3.8516018411388124;-0.092790863668808;0.056958243446150775;0.0774956663607627;3.1722403964223456;1.4659761315334416;2.1490860182257547;5.06286883691616;4.502544823371796;0.026205771387784238;0.0012153601939685365;0.10502702151524435;0.0520036708473539;0.002415127072076863;0.153971652900989;60.0;53.72282045000001;86.83680701
-1.2499713818504892;3.0217210568458603;3.8516018411388124;-0.0081574385642908;0.05188746635165224;0.0774956663607627;1.4230008524726385;1.4723365728325253;2.1677749837002263;5.06286883691616;4.502544823371796;0.024166411746711636;0.001079037817861573;0.10298766187417174;0.0520036708473539;0.0027988716726320326;0.153971652900989;60.0;53.72269283000001;86.83666147000001
1.455774782576408;2.9091131977009344;3.8516018411388124;-0.0632201488732537;0.05467106967916274;0.0774956663607627;1.8557926792124586;1.4776437298498162;2.183430992364477;5.06286883691616;4.502544823371796;0.019068012644029797;0.0009192402664792401;0.0978892627714899;0.0520036708473539;0.0026208669971188045;0.153971652900989;60.0;53.72255815000001;86.83651143
2.683605044248086;2.9028448510537483;3.8516018411388124;-0.023452635872336;0.03723359774839293;0.0173345569491179;3.1372794896730314;1.4166372681108395;2.0068611494005424;5.06286883691616;4.502544823371796;0.019068012644029797;0.0009853219606599036;0.0978892627714899;0.0520036708473539;0.0026002453495466912;0.153971652900989;0.0;53.72242013;86.83635036999999
3.8516018411388124;2.1752411816425044;3.8516018411388124;-0.0387478331803813;0.030735261552532304;-0.0081574385642908;4.3832147015815135;1.2645888198400548;1.5991848832644626;4.3832147015815135;3.822890688037149;0.017028653002957195;0.0009085077675467508;0.0958499031304173;0.0214132762312633;0.001485266945916583;0.12338125828489839;0.0;53.72227802;86.83617498
3.392241124822827;2.1034754807170457;3.8516018411388124;-0.0550627103089629;0.03656977581668674;-0.0081574385642908;4.235348600630634;0.9569661135420598;0.9157841424677946;4.3832147015815135;2.960213849108875;0.017028653002957195;0.0009379932577517516;0.0958499031304173;0.0214132762312633;0.0013900521202149245;0.12338125828489839;0.0;53.722130019999994;86.83598602
1.4151722299547158;1.379095516776389;3.8516018411388124;-0.0866727847455898;0.03523252420550201;-0.0081574385642908;3.323042450699286;0.9612484396529809;0.9239985627352905;4.3832147015815135;2.960213849108875;0.024166411746711636;0.0009593658336668281;0.10298766187417174;-0.0132558376669725;0.0005826770713495648;0.0887121443866626;0.0;53.72198078;86.83578302
1.7606817871549114;0.8548232974236935;3.8516018411388124;-0.058121749770572;0.03000104517969934;-0.023452635872336;3.7385338179379013;0.6999137490291775;0.4898792560800785;4.3832147015815135;2.5274220223690547;0.024166411746711636;0.0010681695741901656;0.10298766187417174;-0.0601611094116447;0.00021330986037618527;0.04180687264199039;0.0;53.72183314;86.83556882
1.621346022618571;0.8288272114600034;3.8516018411388124;-0.092790863668808;0.030900205779119075;-0.023452635872336;3.7257303771810175;0.37120982894972765;0.13779673710888607;4.3832147015815135;1.245935211908482;0.024166411746711636;0.00048096671548128407;0.06729886815539932;-0.0601611094116447;0.00020915087263054922;0.04180687264199039;30.0;53.72168756;86.83534644
1.8361992864160102;0.9590281668350092;3.896807228465441;-0.1300091771183848;0.028247155591321096;-0.0387478331803813;3.719827223958021;0.4072962058935186;0.1658901993352555;4.684911763088281;1.3618693123889951;0.03334353013153879;0.000561004124097305;0.07647598654022647;-0.0601611094116447;0.00026468491177853007;0.04180687264199039;30.0;53.72154687;86.83511870999999
1.6994075295398;0.9390857295011189;3.896807228465441;-0.0616906291424492;0.027000878621306904;-0.040787192821454;3.589475106549466;0.4095554791448472;0.16773569049756537;4.684911763088281;1.3618693123889951;0.03334353013153879;0.0005708470617619775;0.07647598654022647;-0.0601611094116447;0.0002594284133777957;0.04078719282145409;30.0;53.72141161;86.83488617
2.545912278215832;0.9585280704417263;3.896807228465441;-0.0795350260018354;0.02882592551042952;-0.0382379932701131;3.786546916588663;0.402244673525182;0.16180077737938026;4.684911763088281;1.3618693123889951;0.03334353013153879;0.0004881294165987686;0.07647598654022647;-0.0601611094116447;0.000255304083863373;0.04078719282145409;0.0;53.721284149999995;86.83464862999999
2.8550179331916503;1.1350448315774944;4.874434815407028;-0.0938105434893443;0.02936434951688795;-0.0382379932701131;3.881276983020053;0.5297935381243256;0.28068119303829125;5.227456675674535;1.6379815691250692;0.03334353013153879;0.0004775933143098237;0.07647598654022647;-0.0632201488732537;0.000369214137118853;0.05608239012949941;0.0;53.72116268999999;86.83441196999999
3.896807228465441;1.0701883867034003;4.874434815407028;-0.040787192821454;0.03606510290297865;-0.0071377587437544;4.684911763088281;0.5766265975843471;0.3324982330417005;5.227456675674535;1.9176057209406108;0.03334353013153879;0.0004780785295468146;0.07647598654022647;-0.0632201488732537;0.00032577582066443077;0.05608239012949941;0.0;53.72104621999999;86.83417262
3.721118761984907;0.9676355065769567;4.874434815407028;-0.0489446313857448;0.03830662788004215;-0.0071377587437544;4.400368127537986;0.5860165542808318;0.3434154018911791;5.227456675674535;1.9176057209406108;0.03334353013153879;0.00033332265051119986;0.06220046905271759;-0.0632201488732537;0.00028673909957413994;0.05608239012949941;0.0;53.72093729000001;86.83393057
3.5594209801248278;0.918050367852306;4.874434815407028;-0.0382379932701131;0.03547405538307966;0.0076475986540226;4.141513189385836;0.5861271755655755;0.34354506593647893;5.227456675674535;1.9176057209406108;0.03334353013153879;0.00031181144167127133;0.06220046905271759;-0.0632201488732537;0.0002644451923459691;0.05608239012949941;0.0;53.720837460000006;86.83368482
4.874434815407028;0.7482283770303223;4.874434815407028;-0.0948302233098807;0.03515719062319398;0.0076475986540226;5.227456675674535;0.5639868335437923;0.31808114841075324;5.227456675674535;1.9176057209406108;0.03334353013153879;0.0003604715982952138;0.06220046905271759;-0.0780055062710309;0.00018184307462013876;0.04129703273172221;0.0;53.72074187;86.83343307
2.949220727171606;1.2087691662524045;7.031598442403872;-0.0071377587437544;0.03353852850138956;0.0076475986540226;3.3098509547339243;1.0408480789249839;1.0833647234018293;7.034218420648229;3.724367465914305;0.03334353013153879;0.00037114633350901407;0.06220046905271759;-0.0836137452839808;0.0004230152647061518;0.0713775874375446;0.0;53.720649279999996;86.83317664
3.4342059024480767;1.5150378400744549;7.454938522993656;-0.0173345569491179;0.02785616676479385;0.0076475986540226;3.5961946451125657;1.3635614219193282;1.8592997513466598;7.454974016482769;4.145123061748844;0.03334353013153879;0.00037252977457162567;0.06220046905271759;-0.0856531049250535;0.0006555026796872146;0.0774956663607627;0.0;53.72056062;86.83291901999999
4.356218592183736;1.89377396729195;8.313434794234013;0.0076475986540226;0.028935130544265945;0.0076475986540226;4.419269787300504;1.7401331243789078;3.028063290560699;8.315172589312304;5.0053216345783795;0.025186091567248048;0.00029627011315789067;0.054043030488426846;-0.0856531049250535;0.0010488620512182328;0.09483022330988071;0.0;53.72047378;86.83266834000001
4.41082159306088;1.8468562308978635;8.313434794234013;-0.040787192821454;0.02879585161046898;0.0076475986540226;4.4287705523815255;1.7194534168378441;2.956520052675337;8.315172589312304;5.0053216345783795;0.027225451208320428;0.0003180008241288388;0.05608239012949923;-0.0856531049250535;0.0009975678690220533;0.09483022330988071;0.0;53.72038827;86.83242411
7.031598442403872;1.9580400952387946;8.313434794234013;-0.023452635872336;0.03574862951616601;0.0367084735393086;7.034218420648229;1.8948599649864861;3.590494286908587;8.315172589312304;5.677011411308438;0.027225451208320428;0.0003801430326948863;0.05608239012949923;-0.0825940654634444;0.001101946908693784;0.09788926277148981;0.0;53.720312160000006;86.83221744
7.454938522993656;1.9868236876357306;8.313434794234013;-0.0229427959620679;0.02628300423860314;0.0367084735393086;7.454974016482769;1.9302381958878212;3.725819492864271;8.315172589312304;5.677011411308438;0.04659936779851115;0.0005445270233411555;0.07545630671968995;-0.0825940654634444;0.0011547660530633634;0.09788926277148981;0.0;53.72023201;86.83201441000001
8.313434794234013;2.4909991985231;8.313434794234013;-0.058121749770572;0.03277530051308261;0.0367084735393086;8.315172589312304;2.45957042689429;6.04948668485296;8.315172589312304;8.234857863489447;0.04659936779851115;0.0005522789143892718;0.07545630671968995;-0.0346691138982359;0.001828291012981668;0.1458142143366983;0.0;53.72014433;86.83182177
5.699325433962767;2.941139625934887;8.313434794234013;-0.0193739165901906;0.03456632708788022;0.0367084735393086;5.699447027480284;2.8311470025637604;8.015393350125764;8.315172589312304;8.234857863489447;0.04659936779851115;0.00045090358808938947;0.06423982869379008;-0.0305903946160905;0.0025678976670806355;0.1498929336188437;0.0;53.720046780000004;86.83164486
2.6370851671840603;3.492821568522666;8.313434794234013;0.0367084735393086;0.03336849306820196;0.0367084735393086;2.638161178003866;2.970042738721114;8.821153869830015;8.315172589312304;8.234857863489447;0.04659936779851115;0.0004593399792039749;0.06423982869379008;-0.0071377587437544;0.0036332108253816064;0.1733455694911798;60.0;53.71993772;86.83148972000001
4.044078437325135;3.6472619867145606;8.313434794234013;0.0020393596410727;0.03261846678600286;0.0367084735393086;4.047258550276095;3.1813311662901804;10.12086798960924;8.315172589312304;8.234857863489447;0.049658407260120385;0.0005399319195194146;0.06729886815539932;-0.0071377587437544;0.003971027493206842;0.1733455694911798;60.0;53.71981705;86.83137160999999
-0.02093356198015761;3.769703307374009;8.313434794234013;-0.0774956663607627;0.033427643769805206;0.0367084735393086;0.08031472582285755;2.9918354850672713;8.951079569707714;8.315172589312304;8.234857863489447;0.049658407260120385;0.0005399319195194146;0.06729886815539932;0.0020393596410727;0.004253907976372529;0.18252268787600692;60.0;53.71968176;86.83128239999999
-0.2714236283625746;3.706950317760123;8.313434794234013;0.0132558376669725;0.03342103343035674;0.0367084735393086;0.2798253214723665;2.6117964044529716;6.821480458313469;8.315172589312304;8.234857863489447;0.05781584582441124;0.0007269448469622545;0.07545630671969017;0.020393596410727;0.004097945935911172;0.2008769246456612;60.0;53.71952914;86.83122194
-1.5912299235015748;2.9593519829823096;5.699325433962767;-0.0173345569491179;0.03468660399320367;0.0367084735393086;1.6033325728113574;1.777769647700457;3.1604649202850066;5.699447027480284;5.619132301657427;0.05781584582441124;0.0008288400467303412;0.07545630671969017;0.020393596410727;0.0025377478941107086;0.1519322932599163;60.0;53.71935607;86.83118455000002
0.30363493526316576;2.4865855578883003;4.044078437325135;-0.0193739165901906;0.03485257074557734;0.0367084735393086;0.510405389461054;1.4203347545231666;2.0173508149063837;4.047258550276095;3.966943824453238;0.05781584582441124;0.0008494039305837643;0.07545630671969017;0.0254919955134087;0.0017922955516803734;0.1264402977465075;0.0;53.71915918;86.83116942000001
-2.1197553906804716;2.3303528114637917;4.044078437325135;-0.0418068726419904;0.029262619817700466;0.0132558376669725;2.1840560007087877;1.4808744323461915;2.192989084376655;4.047258550276095;3.966943824453238;0.05781584582441124;0.0009651739755810428;0.08667278474559004;0.0254919955134087;0.0015399836284451125;0.1264402977465075;0.0;53.71893901999999;86.83117198
-3.2397396272630004;1.59878482910208;0.30363493526316576;-0.0183542367696543;0.029755904167319956;0.0132558376669725;3.275467790380864;1.5129675547586037;2.289070821752228;4.2653987340508746;4.185084008228017;0.05781584582441124;0.0013877155777939393;0.10808606097685314;0.0397675130009177;0.0007731356046122278;0.07800550627103081;60.0;53.71869964;86.83119884
-2.4921448904623604;1.5310511973914769;0.30363493526316576;-0.0672988681553992;0.026910447570881495;0.0132558376669725;2.547770223333619;1.4307883326663906;2.04715525289427;4.2653987340508746;3.985573412578508;0.05781584582441124;0.0015196941222554616;0.10808606097685314;0.0397675130009177;0.0007109587378149677;0.07800550627103081;60.0;53.71844341999999;86.83124214
-3.5169273854188425;1.412218100308074;0.30363493526316576;-0.0101967982053635;0.024067708054927403;0.0061180789232181;3.62451484992445;1.2157213891018317;1.477978495919687;4.2653987340508746;3.7549933445898205;0.05781584582441124;0.0017317562863079586;0.10808606097685314;0.0397675130009177;0.0006031716387405633;0.07800550627103081;60.0;53.71817376;86.83130272000001
-3.361223700511;1.6456274892523217;0.30363493526316576;-0.0458855919241358;0.025585859843024094;0.0061180789232181;3.4806303106768683;1.2164521148574854;1.4797557477412486;4.2653987340508746;3.7549933445898205;0.05781584582441124;0.001964209043057809;0.10808606097685314;0.0397675130009177;0.0008001690249588634;0.07800550627103081;60.0;53.71789424;86.83137392
-4.168379209076647;1.3872087204507026;0.23116938672763387;0.0061180789232181;0.03185509062866211;0.0061180789232181;4.2653987340508746;0.9445079459943155;0.8920952600464008;4.2653987340508746;2.6689919380803193;0.05781584582441124;0.0019300129215936894;0.10808606097685314;0.0397675130009177;0.0005799592883852316;0.0764759865402263;60.0;53.7176067;86.83144222000001
-3.9911438309871157;1.4315693987697171;0.23116938672763387;-0.0601611094116447;0.03186832517176172;0.0061180789232181;4.165613106444031;0.9246461188113525;0.8549704450328979;4.2653987340508746;2.6689919380803193;0.05781584582441124;0.002122470079523003;0.10808606097685314;0.0397675130009177;0.0006162811146971208;0.0764759865402263;60.0;53.71731339;86.83150987
-1.158526772781105;1.534894658329245;0.23116938672763387;-0.0520036708473539;0.03149198765048279;0.0061180789232181;1.8926041548947834;0.9532194793103956;0.9086273757367819;4.2653987340508746;2.6689919380803193;0.05781584582441124;0.001990318243905413;0.10808606097685314;0.0397675130009177;0.0007246602918880909;0.0764759865402263;60.0;53.717013640000005;86.83157108
0.23116938672763387;1.5595853382453053;0.23116938672763387;-0.0020393596410727;0.03346680374107395;0.0061180789232181;1.596406795970555;0.9925551612999993;0.9851657482232677;4.2653987340508746;2.6689919380803193;0.05781584582441124;0.00273989491585017;0.16926685020903454;0.0397675130009177;0.0007549977969437591;0.0764759865402263;0.0;53.71670549;86.83162132999999
-1.7164154372499791;1.9839005937673662;1.99846611034048;-0.0938105434893443;0.03186016754169597;0.0061180789232181;2.420984519314371;0.96846704074384;0.9379284090071308;4.2653987340508746;2.6689919380803193;0.06699296420923839;0.0031851492122517405;0.1784439685938617;0.0397675130009177;0.001168331862397569;0.1050270215152442;0.0;53.716392989999996;86.83164931
-1.3839062576306058;1.9017709311051147;1.99846611034048;-0.0428265524625267;0.03758257577836751;0.0061180789232181;2.4431967963990644;0.95214592507802;0.9065818626426785;4.2653987340508746;2.6689919380803193;0.06699296420923839;0.003208994075326721;0.1784439685938617;0.0397675130009177;0.0010724440893731795;0.1050270215152442;0.0;53.71608159;86.83165534999999
-0.45151244193030293;1.8058822084507908;1.99846611034048;-0.0244723156928724;0.03215613122742003;-0.0020393596410727;2.130723493679297;0.8214680161554959;0.674809701566446;4.165613106444031;2.5692063104734757;0.06699296420923839;0.0032944266152683333;0.1784439685938617;0.0356887937187723;0.000947813089928948;0.10094830223309881;0.0;53.71577339;86.83163386999999
-3.10061780789429;1.7850086473237468;2.4036645044766622;-0.0836137452839808;0.03636127341468863;-0.0010196798205363;3.8309448400114268;0.7333035177126178;0.5377340490896996;3.8309448400114268;2.234538044040872;0.09962271846640158;0.004317676233619691;0.21107372285102488;0.0214132762312633;0.0008597580771588399;0.0907515040277352;60.0;53.71545954;86.83158626
1.99846611034048;1.962703338110783;2.4036645044766622;-0.0336494340776996;0.0387545410196388;-0.0010196798205363;3.0939963580938294;0.7259347117512955;0.5269812057254365;3.8309448400114268;2.234538044040872;0.09962271846640158;0.0041749767429694155;0.21107372285102488;0.0214132762312633;0.0011111688863825464;0.0999286224125623;60.0;53.715156619999995;86.83153422
-1.9438449812778256;2.0139784777450402;2.4036645044766622;-0.1060467013357805;0.03872113938206857;-0.0010196798205363;3.11206533249968;0.5797352175718975;0.3360929224931353;3.8309448400114268;1.7002213463321296;0.09962271846640158;0.0038722024350870995;0.21107372285102488;0.0214132762312633;0.0011841129103435095;0.0999286224125623;60.0;53.71485937999999;86.83148274
0.9089841931592386;1.9567112483003466;2.4036645044766622;-0.0560823901294993;0.03806440474550657;-0.0010196798205363;2.731395132702931;0.5393797540236649;0.2909305190506293;3.8309448400114268;1.7002213463321296;0.09962271846640158;0.0037766034806561554;0.21107372285102488;0.0214132762312633;0.0011332808378968443;0.0999286224125623;60.0;53.71456773;86.83142661
2.4036645044766622;1.890442263510789;2.4036645044766622;-0.0010196798205363;0.03766567302843351;-0.0010196798205363;3.6475635569734304;0.4897533617926045;0.23985835538715772;3.8309448400114268;1.7002213463321296;0.09962271846640158;0.003504365962658988;0.21107372285102488;0.0214132762312633;0.0010693104076342776;0.0999286224125623;0.0;53.71428089999999;86.83137018
2.3681660919142944;1.8562713722018118;2.4036645044766622;-0.0917711838482716;0.03567426437013951;-0.0010196798205363;3.6016512886375596;0.366221015052454;0.13411783186604975;3.8309448400114268;1.0995497073084959;0.09962271846640158;0.003361989948833375;0.21107372285102488;0.0214132762312633;0.001041159259331002;0.0999286224125623;0.0;53.71399454;86.83131422
1.3643897111896464;1.3568938929827488;2.4036645044766622;-0.116243499541144;0.03576643960867781;-0.0010196798205363;3.25653534446966;0.4404136998394832;0.1939642270063024;3.6475635569734304;1.5256991913117504;0.09962271846640158;0.001797609813799797;0.1345977363107984;-0.0010196798205363;0.0005275011672574594;0.0774956663607627;0.0;53.713712550000004;86.83127031000001
1.4875396524577198;1.6712526394296998;2.4036645044766622;-0.0846334251045171;0.03424165372967844;-0.0010196798205363;3.053785664695987;0.44321528849094105;0.1964397919521081;3.6475635569734304;1.5256991913117504;0.09962271846640158;0.001465999857547738;0.1345977363107984;0.0040787192821454;0.0008220961325733552;0.0825940654634444;0.0;53.71343376;86.83124752
1.6672809565038622;1.8029637286437012;2.4036645044766622;-0.0504741511165494;0.03151678592065996;-0.0010196798205363;3.084214596867697;0.44264257371831256;0.19593244806797178;3.6475635569734304;1.5256991913117504;0.09962271846640158;0.0012556937105434017;0.12338125828489854;0.0112164780258998;0.0009600358928036207;0.0897318242071988;0.0;53.71313497999999;86.83125594
1.317614448472857;2.2812166568475223;2.4036645044766622;-0.0458855919241358;0.03294164700625702;-0.0010196798205363;2.7821866220076847;0.5160095771223929;0.2662658836820308;3.936814535433363;1.814950169771683;0.09962271846640158;0.0011916221937731293;0.12338125828489854;0.0326297542571632;0.0015543090306800792;0.11114510043846221;0.0;53.7128322;86.83129364
-0.5016206363370841;2.350853787227358;2.3681660919142944;-0.0448659121035994;0.02798010222152511;-0.0305903946160905;2.12186436566168;0.486348371288801;0.2365347382552694;3.936814535433363;1.814950169771683;0.016008973182420783;0.00012615884980356532;0.03976751300091774;0.0326297542571632;0.0017229328782781498;0.11114510043846221;0.0;53.71253007;86.83135759000001
-2.2323862514411843;2.1577124360292386;1.6672809565038622;-0.0672988681553992;0.025921681455268502;-0.0305903946160905;2.87822160363723;0.6187101738148038;0.3828022791819447;3.936814535433363;2.236647474775502;0.016008973182420783;0.00012615884980356532;0.03976751300091774;0.0326297542571632;0.0014325864344718591;0.0973794228612215;0.0;53.71221471;86.83142111
-2.6435966701588707;2.031242515722509;1.6672809565038622;-0.0499643112062812;0.02333219403747178;0.0010196798205363;2.955274488939;0.9935264743733512;0.9870948552807413;3.936814535433363;3.5638226013246204;0.016008973182420783;0.00012823834367638341;0.03976751300091774;0.0326297542571632;0.0012689071611936002;0.0973794228612215;0.0;53.71185618;86.83146962
-3.850491374344268;1.8593186205488417;1.6672809565038622;-0.0305903946160905;0.019629314744321818;0.0010196798205363;3.936814535433363;1.2068696226687718;1.4565342861206636;3.936814535433363;3.5932516066717985;0.016008973182420783;0.00012276234314462898;0.03976751300091774;0.0326297542571632;0.0010629795040659204;0.0973794228612215;0.0;53.71149011;86.83150035
-3.206032572474605;1.647417533497;1.317614448472857;-0.0326297542571632;0.020416879970653144;0.0010196798205363;3.250812532329767;1.3597317842049599;1.8488705249772035;3.936814535433363;3.8219114966720156;0.016008973182420783;0.00012781955671588527;0.03976751300091774;0.0326297542571632;0.0008283577196792846;0.0897318242071988;0.0;53.71111463;86.83151143
-1.686728576789675;1.6132887128123696;1.1219079404925232;-0.0632201488732537;0.0382693638807436;0.0652595085143265;1.7001670606578607;1.3609995618104855;1.8523198072483338;3.936814535433363;3.8219114966720156;0.002753135515448202;6.378269817682554e-05;0.02651167533394516;0.0326297542571632;0.0008081866291129491;0.08769246456612609;0.0;53.71073844;86.83150387999999
-0.2730131211775382;1.6451520917854534;1.1219079404925232;0.0010196798205363;0.037891049984851224;0.0652595085143265;0.37299193410874265;1.4357393983603783;2.061347620004221;3.936814535433363;3.8219114966720156;0.00887121443866623;9.362343525176518e-05;0.03262975425716319;0.0326297542571632;0.0008371378049200722;0.08769246456612609;0.0;53.71036259;86.83147619
-0.31774714393465064;1.6264204829165383;1.1219079404925232;-0.0295707147955541;0.035977385905285195;0.0652595085143265;0.34356292876156463;1.4032989826665687;1.9692480347530266;3.936814535433363;3.8219114966720156;0.00887121443866623;0.0001569440236790764;0.041806872641990456;0.0326297542571632;0.0008201552716253909;0.08769246456612609;0.0;53.70998431;86.83143326999999
0.10123961785861413;1.592460514174988;1.1219079404925232;-0.0198837565004588;0.03483205471312176;0.0652595085143265;0.11490303876134762;1.3237677831702228;1.7523611437594058;3.936814535433363;3.8219114966720156;0.00887121443866623;0.0001455183601223145;0.041806872641990456;0.0326297542571632;0.0007895173952325379;0.08769246456612609;0.0;53.70962555999999;86.8313766
1.1219079404925232;1.1890108503399415;1.1219079404925232;0.0652595085143265;0.034393479396460654;0.0652595085143265;1.1246947900566007;0.9391548208318313;0.8820117774916693;3.250812532329767;3.1359094935684197;0.00887121443866623;0.0001446403515982357;0.041806872641990456;0.0214132762312633;0.00044053211239871104;0.07647598654022619;0.0;53.70926914;86.83132226000001
-0.05575110598802646;0.7407569276159416;1.1219079404925232;-0.0152951973080452;0.03430940181824545;0.0652595085143265;0.382491592392402;0.4605981957709916;0.21215069794749272;1.7001670606578607;1.585264021896513;0.00887121443866623;0.00014280346534391333;0.041806872641990456;-0.0056082390129499;0.00016959716625799046;0.049454471296013;0.0;53.70891984;86.83127248
-0.5298215715084769;0.6872484867656068;1.1219079404925232;0.0101967982053635;0.03797176086429978;0.0652595085143265;0.69515109966342;0.39670906049544347;0.1573780786791774;1.426989627997019;1.3120865892356712;0.00887121443866623;0.00012644478021107795;0.041806872641990456;-0.0101967982053635;0.0001460728918217357;0.0448659121035994;0.0;53.708577479999995;86.83123476
0.34532769957817777;1.0303363337826223;1.1219079404925232;0.0112164780258998;0.04304721807203815;0.0652595085143265;0.6245055625344857;0.7345465469016917;0.5395586295651993;2.656801187065792;2.5418981483044445;0.00887121443866623;0.0001383585471907647;0.041806872641990456;0.011726317936168;0.00033089657432624657;0.0667890282451309;0.0;53.708274859999996;86.83122142
-0.44095167706571514;1.4654675405147395;1.1219079404925232;0.0061180789232181;0.046798286550503033;0.0652595085143265;0.5343733564096094;1.1485341010462053;1.3191305812660152;3.78928362285732;3.6743805840959727;0.00887121443866623;0.00022944037882019673;0.05200367084735391;0.0326297542571632;0.0006818458235955128;0.08769246456612609;0.0;53.70796574;86.8312323
-0.8478829570695263;1.4677244026480776;1.1219079404925232;-0.0316100744366268;0.04889090347994915;0.0652595085143265;0.8569411809069406;1.0995033776233334;1.2089076774051186;3.78928362285732;3.406792030464918;0.00887121443866623;0.00023671860737505926;0.05200367084735391;0.0326297542571632;0.0006845116192130288;0.08769246456612609;0.0;53.70765104000001;86.83126576
-1.4243100211473605;1.5436846145432135;1.561035158945661;-0.0815743856429081;0.03750071922601196;0.0112164780258998;1.426989627997019;1.095720636884729;1.2006037140950763;3.78928362285732;3.406792030464918;0.00887121443866623;0.0002643527703960657;0.05200367084735391;0.0326297542571632;0.0007497730685883035;0.0948302233098806;0.0;53.707295710000004;86.83129955000001
-2.655494076971041;1.52502578873442;1.561035158945661;-0.0744366268991536;0.03700078237898847;0.0112164780258998;2.656801187065792;1.0947965343435384;1.1985794516106223;3.78928362285732;3.398237228292013;0.05883552564494765;0.0008145868491437361;0.10196798205363533;0.0326297542571632;0.0007297983746655119;0.0948302233098806;0.0;53.70693602;86.83132898
-3.7871178069268856;1.5169198671659674;1.561035158945661;-0.0744366268991536;0.03658489686326345;0.0112164780258998;3.78928362285732;1.06522438155022;1.134702983049049;3.78928362285732;3.398237228292013;0.05883552564494765;0.0007686300345544558;0.10196798205363533;0.0326297542571632;0.0007200507471366771;0.0948302233098806;0.0;53.706569009999996;86.83135365000001
-1.9718590368878037;1.486973663346419;1.561035158945661;-0.0652595085143265;0.03783670181183706;0.0193739165901906;1.9815519520311398;1.1264527233832167;1.2688957380174657;3.78928362285732;3.7007729279501564;0.05883552564494765;0.0008620224149314642;0.10196798205363533;0.0326297542571632;0.0006838213427746907;0.0948302233098806;0.0;53.70620580999999;86.83137445
1.561035158945661;1.5370345134059933;1.561035158945661;-0.020393596410727;0.04963652224436027;0.0713775874375446;1.5633558789936806;1.13579336836439;1.290026575620527;3.78928362285732;3.7007729279501564;0.05883552564494765;0.000858625908272528;0.10196798205363533;0.0326297542571632;0.00072640475619251;0.0948302233098806;0.0;53.705844809999995;86.83140001
-0.3880497687418121;1.5965882378847776;1.561035158945661;-0.0418068726419904;0.05211618044091616;0.0713775874375446;0.3910463945653072;1.159011487828639;1.3433076289187558;3.78928362285732;3.7007729279501564;0.05883552564494765;0.000856892996711846;0.10196798205363533;0.0326297542571632;0.000780587124323159;0.0948302233098806;30.0;53.705492760000006;86.83145243999999
-1.2744265977433877;1.6131110959390689;1.561035158945661;0.0071377587437544;0.05421494825723553;0.0713775874375446;1.2745206225508336;1.1596830009452626;1.34486466268141;3.78928362285732;3.7007729279501564;0.05883552564494765;0.0008678681032628305;0.10196798205363533;0.0326297542571632;0.0007951435814328856;0.0948302233098806;0.0;53.70515376000001;86.83154096000001
0.03220946906899025;1.8593340253497062;1.561035158945661;0.0193739165901906;0.04947391497547501;0.0713775874375446;0.08851069490716365;1.448855589649657;2.0991825196590557;4.751927793039332;4.663417098132169;0.05883552564494765;0.0008367536761907895;0.10196798205363533;0.0458855919241358;0.0010468980847827948;0.1080860609768532;0.0;53.704834229999996;86.83167711
-2.638215297542014;1.79966959398334;1.561035158945661;0.0713775874375446;0.04330619132909526;0.0713775874375446;2.681592699725938;1.4059080738595988;1.9765775121436073;4.751927793039332;4.663417098132169;0.05883552564494765;0.0006459023496410401;0.09483022330988089;0.0458855919241358;0.0009715395373806146;0.1080860609768532;0.0;53.704545200000005;86.83186936000001
-2.8652359045203055;1.7996466765870542;1.561035158945661;0.0214132762312633;0.03795574655908055;0.0713775874375446;2.923871420479102;1.4063172228134881;1.9777281311818422;4.751927793039332;4.663417098132169;0.05883552564494765;0.00046973456038213357;0.07341694707861757;0.0458855919241358;0.0009718427969037338;0.1080860609768532;0.0;53.70429392999999;86.83211985
-2.2938489826649966;1.563368940779108;0.23063648139452164;0.0622004690527174;0.03811732960471205;0.0713775874375446;2.443994689672764;1.4371226061997489;2.0653213852503587;4.751927793039332;4.663417098132169;0.05883552564494765;0.000549552466867135;0.0795350260018356;0.0458855919241358;0.0007347111789400446;0.0856531049250535;0.0;53.70411139;86.83244675
-4.652908533877197;1.4758442112446155;0.23063648139452164;-0.0193739165901906;0.0350541871241608;0.0713775874375446;4.751927793039332;1.305930089640476;1.7054533990283818;4.751927793039332;4.663417098132169;0.023146731926175224;0.00020212680443791958;0.04384623228306317;0.0458855919241358;0.0006625758470407331;0.0856531049250535;0.0;53.70396082;86.83285169999999
-3.208921909518299;1.4582205664912107;0.23063648139452164;-0.0163148771285816;0.03697954466335287;0.0713775874375446;3.4024469495517433;1.2591901562923866;1.5855598497036452;4.751927793039332;4.663417098132169;0.023146731926175224;0.0005529605262698087;0.08259406546344461;0.0458855919241358;0.0006473695480957514;0.0856531049250535;0.0;53.70384742;86.83333222
-1.525179268892987;1.3591787267655668;0.23063648139452164;-0.0254919955134087;0.03709403131851534;0.0713775874375446;1.9530341043094817;1.1185228278783863;1.2510933164850622;4.751927793039332;3.909581157883902;0.01855817273376159;0.0005255372008220198;0.07800550627103098;0.0458855919241358;0.0005664194727244383;0.0856531049250535;0.0;53.70375884;86.83387852
0.23063648139452164;1.3901106536259293;0.23063648139452164;-0.0224329560517997;0.030678086489426513;0.0622004690527174;1.0734258635153493;1.176840408066175;1.3849533460573613;4.751927793039332;3.909581157883902;0.01855817273376159;0.0005378062146716464;0.07800550627103098;0.0458855919241358;0.0005921965321895788;0.0856531049250535;30.0;53.703694989999995;86.83449051
-2.1164460174071227;1.3727163657145656;0.23063648139452164;-0.0122361578464362;0.029555388767246213;0.0622004690527174;2.2704944515348844;1.1630867766395068;1.3527708499936777;4.751927793039332;3.909581157883902;0.01855817273376159;0.0005324688470647467;0.07800550627103098;0.0458855919241358;0.0005770162269180068;0.0856531049250535;0.0;53.70364506999999;86.83520603
-2.5512340540513634;1.3866328708133204;0.23063648139452164;-0.0285510349750178;0.018393710848605707;0.0346691138982359;2.653944802972141;1.1975938593389384;1.434231051926333;4.751927793039332;3.909581157883902;0.01855817273376159;0.0005159715290070561;0.07800550627103098;0.0458855919241358;0.0005891206141693686;0.0856531049250535;0.0;53.7036054;86.83593436
-0.631275264613663;1.0092108310503536;0.23063648139452164;-0.0150402773529112;0.019696679564841398;0.0346691138982359;0.8423466351554302;0.8050877978419453;0.648166362233993;3.4024469495517433;2.5601003143963132;0.020087692464565987;0.0005622980313959472;0.07953502600183537;0.0214132762312633;0.0003187084296827859;0.061180789232180996;0.0;53.703570389999996;86.83668014999999
-1.1493604971117155;1.4690135715438224;0.23063648139452164;0.0346691138982359;0.019748958216504787;0.0346691138982359;1.3050018857117633;1.2819158724868902;1.6433083041338248;5.313304815189357;4.470958180033927;0.020087692464565987;0.0006475572801814885;0.07953502600183537;0.0591414295911083;0.0006914461536416903;0.098908942592026;0.0;53.70353955;86.83750947
-2.5250982780005478;1.6323396280082372;0.23063648139452164;-0.0020393596410727;0.021462198023298896;0.0346691138982359;2.5601231100211996;1.4419129769821173;2.079113033189432;5.313304815189357;4.470958180033927;0.020087692464565987;0.0006058518752877475;0.07953502600183537;0.0591414295911083;0.0008422094594210022;0.098908942592026;0.0;53.703515249999995;86.83834021
-1.3346524157862092;1.8695389636809179;-0.631275264613663;-0.023452635872336;0.02280910850503266;0.0346691138982359;1.4004496070181098;1.8437872016561203;3.399551244990907;6.37268791773198;5.53034128257655;0.020087692464565987;0.0007903116463645151;0.07953502600183537;0.078515346181299;0.001135695361338062;0.101967982053635;0.0;53.703501349999996;86.83917111000001
-1.6723053464736015;2.062687115768153;-0.631275264613663;-0.0356887937187723;0.02382723667480207;0.0346691138982359;1.7268357220672006;2.059890552116395;4.243149086698387;6.37268791773198;5.53034128257655;0.020087692464565987;0.000782917890372273;0.07953502600183537;0.078515346181299;0.001365618067209316;0.101967982053635;0.0;53.70349801;86.84000233
-5.269916312889046;2.065392658899958;-0.631275264613663;-0.0193739165901906;0.023434541274412246;0.0346691138982359;5.313304815189357;2.0559137591986643;4.226781385262384;6.37268791773198;5.53034128257655;0.020087692464565987;0.0005150328685783506;0.07188742734781262;0.078515346181299;0.0013706781689665068;0.101967982053635;30.0;53.70350626;86.84083233999999
-4.1712468939715;1.8985649033038725;-1.1493604971117155;-0.0428265524625267;0.026396438557215348;0.0346691138982359;4.222181931039691;1.9002201934183542;3.6108367834748876;6.37268791773198;5.067686032020217;0.020087692464565987;0.00045367913477241287;0.07188742734781262;0.078515346181299;0.0011664256596808197;0.09330070357907601;30.0;53.70352934;86.84165926
-6.268968088949044;1.7519935523514483;-1.3346524157862092;0.0091771183848271;0.028958876983034308;0.0489446313857448;6.37268791773198;1.7547526276978167;3.079156784412392;6.37268791773198;4.972238310713871;0.020087692464565987;0.0004960777042904265;0.07188742734781262;0.078515346181299;0.0009901972185172912;0.09024166411746701;30.0;53.70357014;86.8424655
-5.691266286901191;1.6872274147607949;-1.3346524157862092;0.0081574385642908;0.02897323512602004;0.0489446313857448;5.912058914986177;1.684764067030268;2.8384299615563693;6.37268791773198;4.972238310713871;0.020087692464565987;0.0004914103958203234;0.07188742734781262;0.078515346181299;0.000918720393011038;0.09024166411746701;30.0;53.70363614;86.84318942
-2.46914334821906;1.4033214525544826;-1.6723053464736015;0.0035688793718772;0.028092595437372306;0.0489446313857448;2.797733020433561;1.3913866119398182;1.9359567038853664;6.37268791773198;4.64585219566478;0.020087692464565987;0.0005680744032648842;0.07188742734781262;0.078515346181299;0.0006407411613761462;0.08412358519424891;0.0;53.703725;86.84390804
-4.406256963149655;1.0774392264771255;-2.46914334821906;0.0316100744366268;0.029864271374840753;0.0489446313857448;4.496648816895955;1.0497527461413778;1.1019808280313639;6.37268791773198;3.574954897298419;0.019068012644029797;0.0005140075625716145;0.07086774752727643;0.078515346181299;0.0003879526874616978;0.0703579076170082;0.0;53.70383717;86.84460133
