acc_X_std;acc_X_kurt;acc_X_var;acc_X_iqr;acc_Y_std;acc_Y_kurt;acc_Y_var;acc_Y_iqr;acc_Z_std;acc_Z_kurt;acc_Z_var;acc_Z_iqr;acc_Z_range;acc_std;acc_var;acc_iqr;acc_kurt;acc_cv;acc_skew;class
0.0761778524598324;-1.3840707896586746;0.005803065205391993;0.13071020699500355;0.04561239192330833;0.4184584426313874;0.0020804902969654825;0.06092586927704713;0.0336037406238528;1.5276981938690224;0.001129211383915175;0.04027735291118592;0.1193025390027531;0.04781303585837438;0.0022860863979941946;0.07901686019762258;-1.67117061860226;0.41706100250608413;-0.21060297902449387;60.0
0.0761778524598324;-1.3840707896586746;0.005803065205391993;0.13071020699500355;0.04561239192330833;0.4184584426313874;0.0020804902969654825;0.06092586927704713;0.0336037406238528;1.5276981938690224;0.001129211383915175;0.04027735291118592;0.1193025390027531;0.04781303585837438;0.0022860863979941946;0.07901686019762258;-1.67117061860226;0.41706100250608413;-0.21060297902449387;60.0
0.0761778524598324;-1.3840707896586746;0.005803065205391993;0.13071020699500355;0.04561239192330833;0.4184584426313874;0.0020804902969654825;0.06092586927704713;0.0336037406238528;1.5276981938690224;0.001129211383915175;0.04027735291118592;0.1193025390027531;0.04781303585837438;0.0022860863979941946;0.07901686019762258;-1.67117061860226;0.41706100250608413;-0.21060297902449387;60.0
0.0761778524598324;-1.3840707896586746;0.005803065205391993;0.13071020699500355;0.04561239192330833;0.4184584426313874;0.0020804902969654825;0.06092586927704713;0.0336037406238528;1.5276981938690224;0.001129211383915175;0.04027735291118592;0.1193025390027531;0.04781303585837438;0.0022860863979941946;0.07901686019762258;-1.67117061860226;0.41706100250608413;-0.21060297902449387;60.0
0.0761778524598324;-1.3840707896586746;0.005803065205391993;0.13071020699500355;0.04561239192330833;0.4184584426313874;0.0020804902969654825;0.06092586927704713;0.0336037406238528;1.5276981938690224;0.001129211383915175;0.04027735291118592;0.1193025390027531;0.04781303585837438;0.0022860863979941946;0.07901686019762258;-1.67117061860226;0.41706100250608413;-0.21060297902449387;60.0
0.0761778524598324;-1.3840707896586746;0.005803065205391993;0.13071020699500355;0.04561239192330833;0.4184584426313874;0.0020804902969654825;0.06092586927704713;0.0336037406238528;1.5276981938690224;0.001129211383915175;0.04027735291118592;0.1193025390027531;0.04781303585837438;0.0022860863979941946;0.07901686019762258;-1.67117061860226;0.41706100250608413;-0.21060297902449387;60.0
0.07780049096381775;-0.9126013805576128;0.006052916394211087;0.11350311002345267;0.044427606972353505;1.500593154388375;0.0019738122612899135;0.04894463138574487;0.03297069873022704;2.4784524616807184;0.001087066974759395;0.03364943407769962;0.1193025390027531;0.044824615364245236;0.00200924614255253;0.07361614954273077;-1.3374086696361245;0.3507182236924314;-0.507405922832181;60.0
0.07091073567491743;0.9269955554167139;0.005028332433958008;0.09534006322014893;0.04382676314232039;2.109570878649464;0.0019207851675330527;0.03798307331497919;0.03674323319949122;1.5231006755498362;0.001350065185952194;0.03364943407769962;0.13153869684918928;0.04136281236630448;0.0017108822468501108;0.0476546938614536;0.09712180507344977;0.3027714912853115;-1.0615088767399936;60.0
0.06854358914111071;3.065599963107983;0.004698223612345389;0.0693382277964719;0.041522662191157196;2.5659163356108325;0.0017241314754409553;0.030080554705822493;0.03711787837943256;1.3890196576770353;0.001377736895390347;0.037855613337412046;0.13153869684918928;0.03742066515716131;0.0014003061808043867;0.033903598123923184;3.325557251322336;0.2579986056841691;-1.7948139626928192;60.0
0.044421333179054445;-1.1855890016199027;0.0019732548414045635;0.0693382277964719;0.040751630146244035;2.6329782944968634;0.0016606953595762657;0.02625675537881117;0.03739478701244597;2.0038260989301255;0.0013983700957061974;0.03224737432446209;0.13153869684918928;0.02819631322020616;0.0007950320792119727;0.033903598123923184;0.17824744908145465;0.1895422219833841;-1.0904825272312564;60.0
0.06096789109784428;0.6604495145503486;0.0037170837449186;0.0831039053737127;0.04074028890517635;2.8224635044864774;0.0016597711400772352;0.023707555827470278;0.03546965860056844;2.643639722447639;0.001258096681240879;0.02689405526664619;0.13153869684918928;0.03917593365705891;0.0015347537779022812;0.033903598123923184;1.2771380944086528;0.27372807149611117;-1.4608174517660595;60.0
0.07517936729009132;-0.982162460343359;0.0056519372661384525;0.10120322218823294;0.04095410710305998;4.94047221017254;0.0016772388886089082;0.029570714795554343;0.03530573378846721;2.6324898710153897;0.0012464948383421148;0.02689405526664619;0.13153869684918928;0.04562058497330606;0.0020812377733066384;0.0661708448692275;-1.0406557672289156;0.339585825162123;-0.845456571712159;60.0
0.0782851024256107;-1.5000684878490094;0.006128557261788358;0.12822473743244622;0.019470871539358867;-1.1788887535031332;0.00037911483850221515;0.02778627510961562;0.021759541570382485;0.23155076100521757;0.00047347764935320346;0.0276588151320485;0.0764759865402264;0.04972204738623283;0.0024722819962787828;0.08981236093968617;-1.957990778806815;0.385686799194836;-0.5144576945643257;0.0
0.07840594498362188;-2.0157209418971997;0.006147492208774742;0.13587233608646887;0.01716915283919692;0.30496997528312975;0.00029477980921570373;0.017844396859386324;0.021421097743224732;0.43852966729995807;0.00045886342852478765;0.024854695625573575;0.0764759865402264;0.05280098067281964;0.0027879435600114727;0.09690235030631844;-2.229163588930162;0.45376795938419756;-0.09611459197136359;0.0
0.0787500514425975;-1.9525770447121178;0.006201570602211753;0.1458142143366983;0.016445004656733736;3.078409291763486;0.00027043817815999426;0.009686958295095277;0.018465935778270624;0.5278964003933047;0.00034099078416721516;0.024854695625573575;0.058121749770571995;0.05563668549853865;0.003095440773263301;0.1042914141471211;-2.094843048944013;0.5279463800570896;0.31475435579478805;0.0
0.07307855564367195;-1.1154208599100086;0.005340475294965257;0.11267462016926684;0.015402829136268103;6.500281716241062;0.0002372471454010696;0.008922198429692968;0.01860306403289205;-0.6003663653595385;0.00034607399141188175;0.02459977567043952;0.057102069950035694;0.05147779018108847;0.0026499628819281686;0.08305624620055789;-1.2481881359803322;0.5309557036075095;0.7665262476403198;30.0
0.05950646965123485;0.13119360455082024;0.0035410199303533346;0.05786682981543793;0.018517477875887065;1.0255921506936576;0.0003428969868839669;0.009686958295095277;0.017470315876108426;-0.32206914524006997;0.00030521193681100616;0.019756296522891854;0.057102069950035694;0.04298980955351826;0.0018481237254477703;0.03117474464269855;0.30887886872416154;0.4868978675567069;1.1659240518888732;0.0
0.05049034208811793;3.807471969162634;0.0025492746441751727;0.046650351789538046;0.01784391129096043;0.7394580471497311;0.00031840517015966507;0.010961558070766042;0.015649492467785707;-0.989958243330258;0.00024490661449928157;0.019756296522891854;0.0469052717446722;0.03473852526033923;0.0012067651372632267;0.030190310128446765;4.05856117710138;0.42743837719816186;1.7061874125764034;0.0
0.026170678487576732;-0.4614988411011924;0.0006849044125001116;0.029570714795554124;0.017820588447370018;0.5099159446756799;0.0003175733726105378;0.01249107780157055;0.016319213732024725;-1.2602820001550832;0.0002663167368315044;0.02536453553584176;0.0469052717446722;0.017831770150259645;0.0003179720266916909;0.028033673340781648;-1.1353621357067039;0.24574400382741596;-0.49653800605806875;0.0
0.02341720355738623;-0.2846136814935965;0.0005483654224480622;0.0295707147955541;0.017626096356963415;0.4955196898848056;0.0003106792727849589;0.012236157846436446;0.016590134623058722;-1.3537689314493424;0.0002752325668112118;0.026511675333945127;0.0469052717446722;0.016651932919078224;0.000277286869941481;0.021175010746762993;-0.891548778118609;0.2338156721278947;-0.5279302704158775;0.0
0.022549107423076212;0.10782693820351039;0.0005084622455774308;0.021923116141531526;0.019693361710650368;0.07030933092386452;0.00038782849546650994;0.016059957173447575;0.016371427998765887;-1.0911848770328076;0.00026802365471877566;0.0249821556031406;0.0469052717446722;0.01609549785305855;0.00025906505113781246;0.014465307477006223;-0.2015015321026777;0.22267922831062825;-0.7678319571886028;0.0
0.01949584974198683;0.9340257109341731;0.0003800881571621279;0.019628836545324702;0.015314917288459004;1.0762457397992793;0.00023454669155234049;0.016059957173447575;0.01693413987327224;-1.28239665733788;0.0002867650932475488;0.028423574997450796;0.0469052717446722;0.01822195044165778;0.0003320394778982322;0.02817762381713671;-1.322367466332281;0.25987286025164213;-0.5339377630915166;0.0
0.019379953227610106;1.0791600697136283;0.0003755825871043554;0.018099316814520178;0.015402922891029618;1.014281693346149;0.0002372500335870042;0.016824717038849885;0.017740426519484088;-1.8725000712065574;0.00031472273309321425;0.0322473743244621;0.0469052717446722;0.0190068113739919;0.00036125887860650774;0.03234695735042915;-1.8830788055866639;0.2787771282781575;-0.19392386105439566;0.0
0.021098106654540885;0.36665623737995645;0.00044513010440638237;0.021413276231263326;0.015420164065240908;0.7396729218206224;0.00023778145979894702;0.011981237891302454;0.018115466508045117;-1.894639349083374;0.00032817012680410435;0.0322473743244621;0.0469052717446722;0.019346260717861843;0.0003742778037634842;0.03444946630053148;-1.9083592440374686;0.2849274516935183;-0.2010574051861913;30.0
0.02063266957999072;0.5603819731598837;0.0004257070539970745;0.017589476904252003;0.014129200259620953;2.050775956242734;0.0001996342999764728;0.010451718160497836;0.01684316073108824;-1.8974120419655383;0.000283692063413273;0.0296981747731212;0.0438462322830631;0.018503851062738733;0.00034239250415201734;0.031220199058835045;-1.8960430005596756;0.2698707093846501;-0.16650590540482021;0.0
0.02056986240595181;0.5692079348623876;0.0004231192393997897;0.0166972570612827;0.01408087625879168;2.1374212323501576;0.00019827107621540318;0.009941878250229685;0.015527673682669075;-1.5212990284627839;0.00024110864999545378;0.026384215356378055;0.0438462322830631;0.017842304075271778;0.0003183478147144599;0.028467894359189623;-1.6394717812181143;0.2676027838609954;0.1403945483570945;0.0
0.01568129582166829;-0.5348345518383962;0.0002459030386466714;0.01695217701641675;0.010851195895494235;1.23962232688035;0.00011774845236239093;0.01249107780157055;0.016004696883795435;-1.7368288857726912;0.00025615032234217126;0.02816865504231668;0.0438462322830631;0.016274486620687555;0.00026485891476693823;0.02787602640442937;-1.5175404404357284;0.2489612986208431;0.06921626173059583;0.0
0.01307385680615486;-0.5087567008264534;0.00017092573178784177;0.015932497195880427;0.012113869701481223;0.638434652726349;0.0001467458391444648;0.01249107780157055;0.014442964692786045;-1.9168275596266977;0.00020859922911706428;0.027148975221780322;0.0367084735393086;0.014201524411661502;0.00020168329561501755;0.02660269706481482;-1.9519108362857953;0.22248443767911819;-0.2342233030617342;0.0
0.014410532844912246;-0.7592741726386875;0.00020766345687429463;0.01669725706128265;0.014338602293990001;0.024442924721806696;0.00020559551574521535;0.01656979708371592;0.013364441865395366;-1.7751529506288395;0.0001786083063735324;0.02370755582747021;0.034669113898235904;0.01369262882481254;0.00018748808413408723;0.024468195058579813;-1.9242986792002017;0.21613778531105293;-0.26425590792965953;0.0
0.011644011358107572;-0.11118994802840275;0.00013558300050773816;0.010706638115631599;0.014680871471879868;-0.366617761410477;0.0002155279871738562;0.018609156724788578;0.012190754506759051;-1.4371752043201877;0.00014861449544406613;0.018099316814520247;0.034669113898235904;0.012573673636383004;0.000158097268714273;0.022506625299132825;-1.7329745549682873;0.20419451288768395;-0.06610645089920254;0.0
0.011644011358107572;-0.11118994802840325;0.00013558300050773816;0.010706638115631599;0.011930689652924405;-1.1249374037363553;0.00014234135559439747;0.01758947690425222;0.013998074386791683;-1.6009527077073262;0.00019594608653815334;0.02370755582747021;0.0387478331803813;0.013980481283376011;0.00019545385691482697;0.024468195058579813;-1.787691249242592;0.2225118238570134;0.016422983729782684;0.0
0.01189140796338385;0.19482365556515596;0.00014140558335162882;0.011726317936168025;0.012047766279385632;-1.0391251967984207;0.00014514867232270153;0.01758947690425222;0.0163038977138855;-0.6281418360259232;0.00026581708066484086;0.023962475782604277;0.0520036708473539;0.01585054722893933;0.00025123984745683626;0.02253888841880136;-0.7730444191797022;0.23358600363915008;0.18179580386827845;0.0
0.0217361681973679;3.974489548656759;0.0004724610079042677;0.015677577240746324;0.012469961135137523;-1.1366012743088827;0.0001554999307118403;0.019118996635056673;0.01760109019563684;-0.6485140379638134;0.0003097983760749433;0.018609156724788398;0.0540430304884266;0.01969631602792696;0.0003879448650719725;0.019141542001423928;-0.03363793259438858;0.2675807972208391;0.4073406585257296;0.0
0.03038406333651885;1.1661127593727778;0.0009231913048375891;0.015677577240746324;0.012469961135137514;-0.3914087922326906;0.00015549993071184006;0.0168247170388498;0.021959315190120086;1.2312553111397853;0.0004822115236190388;0.026256755378811072;0.0764759865402264;0.026968564321158274;0.000727303461544451;0.025536950896083002;1.682780990901178;0.3237412108197498;1.232777176739719;0.0
0.03417579962613057;-1.1476452014049785;0.0011679852800854263;0.05238605078005493;0.012469961135137514;-0.39140879223269004;0.00015549993071184006;0.0168247170388498;0.026635360710892696;0.2450810045104451;0.0007094424401993662;0.026511675333945092;0.0795350260018354;0.03171306970544471;0.0010057187901423954;0.031788399423142794;-0.1468438309757225;0.3393949758260175;1.0503732566998376;0.0
0.03572313069930242;-2.0199858648313485;0.0012761420669594428;0.06398490873865595;0.012469961135137514;-0.3914087922326906;0.00015549993071184006;0.0168247170388498;0.026728883730790718;-0.8841739734949873;0.0007144332254941288;0.03849291322524721;0.0795350260018354;0.03176366679145799;0.0010089305280387712;0.04904979145542451;-1.221825923343602;0.31745905960718335;0.5761891155544168;0.0
0.0366966697917642;-2.2971097020750313;0.0013466455738057792;0.06398490873865595;0.011740963608933338;-0.22141562157642522;0.00013785022646629696;0.015805037218313445;0.029522621810409846;-1.572927316842853;0.0008715851985604871;0.04843479147547668;0.0795350260018354;0.03382546697734282;0.00114416221623531;0.0625039068169207;-1.790792753015625;0.3163150733651138;0.10665637128486219;30.0
0.03568782258192072;-1.9764137740950747;0.0012736206806386505;0.06296522891811959;0.010649160563957453;2.6212395476675545;0.00011340462071694663;0.008284898541857794;0.029029552045450668;-1.4353370117736017;0.0008427148919595291;0.04155195268685635;0.0795350260018354;0.032728775824782654;0.0010711727669888774;0.0549196463556656;-1.5088695208595782;0.2904761916945426;-0.3544918951850871;30.0
0.031204535022125685;-1.225602050334547;0.0009737230059470685;0.04868971143061072;0.008044958583207789;1.546800321080653;6.472135860552867e-05;0.007265218721321548;0.028196805209824413;-0.6702390571326079;0.0007950598240407811;0.04104211277658819;0.0836137452839808;0.03145933823224814;0.0009896899620109897;0.04657419295915144;-0.5446182353287767;0.2620458521334503;-0.8469269311445774;30.0
0.028941667746885714;0.526676950639505;0.0008376201319711249;0.020903436320995242;0.008071302369376067;1.4845676353253217;6.514592193789572e-05;0.0076475986540227026;0.021572113260074275;-0.8056863571648378;0.00046535607050547244;0.03390435403283373;0.0632201488732538;0.02377859682420795;0.0005654216669282325;0.030574463906179683;-0.15920524199091549;0.18670825841373503;-1.0024660950139195;30.0
0.02340480499972678;5.651844361861914;0.0005477848970752357;0.010196798205363518;0.006170724702986416;1.4733443726287143;3.807784336004679e-05;0.0076475986540227026;0.02557682767970561;0.9548745105163893;0.0006541741141573551;0.03390435403283373;0.08157438564290811;0.024772632362523816;0.0006136833141687623;0.030574463906179683;0.23372016517125108;0.1952137487800091;-1.103251397498396;0.0
0.011850533864668252;0.42052544811944564;0.00014043515287764905;0.010706638115631675;0.009038221670801002;1.108303564405235;8.168945097053686e-05;0.008412358519424928;0.029319415219130517;-0.26951390556213944;0.0008596281087917822;0.03390435403283373;0.08157438564290811;0.023964028148814116;0.0005742746451171553;0.030574463906179683;0.6869860006070435;0.1879248184174125;-1.1645889460132524;0.0
0.01224606738759013;-0.08299388260389863;0.00014996616646139856;0.013510757622106677;0.010082291016906346;0.8832205838499709;0.00010165259214959041;0.008412358519424956;0.0352548143526474;-1.0685560229133242;0.001242901935039633;0.055317630264097084;0.09279086366880801;0.030638429504331845;0.0009387133624919122;0.03696529479195723;-0.19895857381794205;0.24887342068843998;-1.1081409189077083;0.0
0.015224126676274376;1.1982661817260651;0.0002317740330552491;0.010706638115631675;0.010176384174466892;0.5130952428954966;0.0001035587948663402;0.01045171816049753;0.03579319864940472;-1.7235640336520544;0.001281153069555748;0.06449474864892424;0.09279086366880801;0.03207047087641708;0.001028515102235116;0.05522981138537156;-1.471812021672721;0.27356538746441467;-0.5556689829024569;0.0
0.0205909830597295;0.8904590137305541;0.0004239885833660672;0.016059957173447548;0.01016275203951327;0.2233918436750173;0.00010328152901663112;0.010834098093198657;0.03392485643169578;-1.5889845813649208;0.0011508958839111705;0.0542979504435607;0.09279086366880801;0.02973955548276285;0.0008844411603123301;0.04540824237697713;-1.3645615845976071;0.26185134757422446;-0.4441042158925428;0.0
0.025451232378192783;-0.25955563129615555;0.0006477652295687687;0.028933414907719047;0.0097005147250521;0.5901769929825846;9.409998593095264e-05;0.009049658407259992;0.0337608735871127;-1.5683111357611732;0.001139796585365004;0.0542979504435607;0.09279086366880801;0.029198382723770684;0.0008525455536837903;0.04540824237697713;-1.2837299058181375;0.26036478244043265;-0.31030865693655585;30.0
0.031229561548917345;-0.7416037404210424;0.0009752855145376167;0.0429540124400938;0.009655003325786032;0.6397723769573135;9.321908922093936e-05;0.008667278474558837;0.031438244551006585;-1.3450835874560454;0.0009883632204488952;0.05111145100438462;0.09279086366880801;0.026585889746905147;0.0007068095336345962;0.040160955979636176;-0.9012925402947499;0.244464979656847;-0.2356972897137001;30.0
0.03797480319909934;-0.9183284144899508;0.001442085678010326;0.054552870398694775;0.011177270274150865;-0.10454684352750172;0.00012493137078141653;0.010706638115631606;0.03117031659353969;-1.3041851035499659;0.0009715886365414957;0.04958193127358003;0.09279086366880801;0.026473647620074262;0.0007008540183118636;0.039305597265657105;-0.875368286746515;0.2436884374680963;-0.23662955733516497;30.0
0.03841730087066708;-1.157865036283267;0.0014758890061873575;0.05633731008463337;0.0129935290427718;0.63243512649184;0.00016883179698535424;0.014402977465075961;0.029953112807679268;-1.4703157269554004;0.0008971889668695597;0.04958193127358003;0.08463342510451721;0.024789535038126722;0.0006145210474065123;0.039305597265657105;-1.04564260231437;0.23056900149790938;-0.47735455083407957;0.0
0.03618231347719903;-0.47837505941263864;0.0013091598085622986;0.04652289181197097;0.012898154829718183;0.8796338720396487;0.00016636239801138248;0.014402977465075906;0.029339356231779235;-1.4022145093752485;0.000860797824095243;0.04575813194656875;0.08463342510451721;0.023324707605681134;0.0005440419848905193;0.02870027452305994;-0.780941061858832;0.22034762901001193;-0.5001156664073592;0.0
0.03503312963357925;-0.11893205627050664;0.0012273201719231685;0.0411695727541551;0.012952676663431521;0.8323005361934049;0.00016777183274740355;0.014657897420210009;0.026595698454473182;-0.061050979364536725;0.0007073311762812672;0.029443254817987152;0.08463342510451721;0.021059812322940064;0.0004435156950774581;0.013390859179498851;0.8813490758094947;0.19305669267876252;-0.9134784491975277;0.0
0.027714591975031972;-0.31940405705236635;0.0007680986083425066;0.029698174773121123;0.010215051131856941;-0.13898722950628337;0.00010434726962645176;0.014657897420210009;0.025293232798807654;0.5558004213801969;0.0006397476254146793;0.029443254817987152;0.08463342510451721;0.02279830531821034;0.0005197627253823379;0.026708113311684337;-0.4994722228279664;0.21301065767985836;-0.6329500842821857;0.0
0.027082957521360612;-0.3352062542740768;0.0007334865881038233;0.029698174773121123;0.010002482139747169;0.3713641641542275;0.0001000496489559611;0.011598857958600939;0.021502716062472088;-0.8350841241975395;0.00046236679806329516;0.029443254817987152;0.0662791883348628;0.020476224009301946;0.0004192757496791134;0.026708113311684337;-1.0621363954308798;0.18904343163125806;-0.35714668094252083;0.0
0.031183054495566558;-0.7199629146514565;0.0009723828876734737;0.042316712552258495;0.009419552011260443;0.8699115469118733;8.872796009284066e-05;0.008794738452125944;0.021383649953437632;-0.7898295886485174;0.0004572604853311532;0.028678494952584926;0.0662791883348628;0.019098554875490652;0.0003647547983321278;0.016712376934262904;-0.43119214156509705;0.17418110608539358;-0.439570343749702;0.0
0.03496789884967027;-1.3614424670493546;0.001222753949960771;0.05531763026409697;0.008784942592582048;1.555190469173149;7.71752163549622e-05;0.005608239012949823;0.021190989530393802;-0.7413982835092879;0.00044905803727725974;0.028678494952584926;0.0662791883348628;0.019221093476438366;0.00036945043442998147;0.017557833323452163;-0.47590367954235446;0.17479062903259218;-0.4846225021064713;0.0
0.034741681806708315;-1.2269144865800885;0.0012069844547585675;0.0545528703986947;0.008298548392429437;2.075769806206313;6.886590542149319e-05;0.004588559192413466;0.02095353127790929;-0.7587537858104376;0.0004390504730143229;0.029060874885286053;0.0662791883348628;0.019487323561400045;0.0003797557795866973;0.020638194493970544;-0.8409039531124368;0.18023280398021893;-0.1507901527020603;0.0
0.03316076537033189;-0.3581911066711311;0.001099636359946203;0.0359437136739063;0.009246721386742325;0.14734374453887408;8.55018564040379e-05;0.008922198429693273;0.02192667287564484;-1.1117716028514784;0.0004807789833955391;0.03492403385337002;0.0662791883348628;0.020223285656763478;0.00040898128275505537;0.026357774275068052;-1.1398402864844377;0.1848746824486743;-0.28404646179727405;0.0
0.028150879372472456;0.4030382471404041;0.0007924720094434953;0.0359437136739063;0.009351081079319177;0.4744534417889272;8.74427173520011e-05;0.006372998878352132;0.02223354114395794;-1.176799120137188;0.0004943303518000705;0.03568879371877233;0.0662791883348628;0.019634952141015218;0.0003855313455799581;0.026357774275068052;-1.040821667553794;0.1803733413627968;-0.3216052620389063;0.0
0.027668439851037886;0.7991702892834535;0.0007655425637905014;0.030590394616090498;0.009143065880069263;1.079657092410521;8.359565368728673e-05;0.006882838788620338;0.021200187319418043;-1.2997564538750461;0.00044944794237841365;0.03568879371877233;0.059141429591108394;0.018614391141868778;0.0003464955575824829;0.026357774275068052;-1.178417042126492;0.1721065727462331;-0.51442197990177;0.0
0.02809912308278588;0.3550599368754216;0.0007895607180215502;0.0344141939431018;0.009143065880069263;1.079657092410521;8.359565368728673e-05;0.006882838788620338;0.021061318775413174;-1.264022933073118;0.00044357914855957153;0.03517895380850415;0.059141429591108394;0.01850529452122651;0.00034244592531733586;0.026357774275068052;-1.1503828298754744;0.17144410463426232;-0.48910430369980595;0.0
0.026797787948493912;0.8538047169744526;0.0007181214389324455;0.022687876006933748;0.009049718247427303;1.2948711575589198;8.189740035781868e-05;0.006627918833486235;0.02106241580480556;-1.2883653913227764;0.00044362535953452304;0.03517895380850415;0.059141429591108394;0.01857368048909241;0.00034498160691089205;0.026357774275068052;-1.297126479253826;0.1732430973537742;-0.34087998186310453;0.0
0.026605253184394505;0.956264212448409;0.0007078394970057339;0.020903436320995176;0.008547488016858631;2.28919776884252;7.30595513983419e-05;0.006627918833486235;0.019437616397170933;-0.5928584482923098;0.0003778209312035683;0.026766595289079237;0.059141429591108394;0.016813487636823797;0.0002826933665136266;0.026357774275068052;-0.9466096010916374;0.15477359729454826;-0.3060218902621682;0.0
0.024774699232275897;1.9800491500771875;0.000613785722049732;0.02052105638829402;0.009163890780156522;1.0483563528506943;8.39768942306377e-05;0.007392678698888544;0.015074180461316122;-0.9536098543430518;0.00022723091658032475;0.02319771591720199;0.045885591924135896;0.013376890687628113;0.00017894120446875172;0.02503576663501994;-1.8237424289051118;0.1202767206146499;0.17361297485461782;0.0
0.01949725705567021;1.8397558137995824;0.0003801430326948818;0.023962475782604173;0.009769936384044954;0.35292614407976786;9.54516569482854e-05;0.011981237891302399;0.012162766279244524;-1.3360635404392853;0.00014793288356352766;0.019118996635056604;0.034669113898236;0.012464769950219782;0.00015537048991190206;0.020636955048893735;-1.4883191928576482;0.11076441007676517;0.012851233362931794;0.0
0.012538791390272957;-1.7100993817760082;0.00015722128952878322;0.020138676455592898;0.010701106677151887;-0.7275501557379594;0.0001145136841157847;0.01427551748750916;0.014016219435447527;-1.4433821170013184;0.000196454407262617;0.02319771591720199;0.0397675130009178;0.014079433800246439;0.0001982304561355219;0.024352639916545446;-1.4511602144924203;0.12826904190300284;0.20465709815862668;0.0
0.012656176038823101;-1.6745077531499502;0.00016017879192567998;0.0207759763434281;0.011681776286924584;-1.2576848915445293;0.00013646389721775351;0.01886407667992271;0.013796485270723087;-1.2587080058179159;0.00019034300582527908;0.020393596410727036;0.0397675130009178;0.013805716767801079;0.00019059781547274386;0.021598655554503673;-1.3123322273963294;0.12302216313889933;-0.26228502247120067;0.0
0.013455331110835678;-0.5960940458822063;0.0001810459353022225;0.017971856836953074;0.011897357036855686;-0.9258712724337893;0.0001415471044624195;0.01605995717344738;0.01438877063986056;-1.3347346191525595;0.0002070367205265133;0.021923116141531557;0.0397675130009178;0.014883984343017024;0.0002215329899231759;0.02222119514428611;-1.2935432890341478;0.1316668890201903;-0.09787510410929132;0.0
0.014934915852898122;-0.9027258772990854;0.00022305171153314766;0.018736616702355373;0.012670430741197863;-1.385128386741783;0.00016053981516749185;0.021158356276129386;0.013565531873120932;-0.9404019523906629;0.00018402365500065992;0.016824717038849787;0.0397675130009178;0.01420970121769545;0.00020191560869617554;0.01746824867892602;-0.878258668638417;0.12684190573175763;0.04466813105357884;0.0
0.015206283375616981;-1.018118014248808;0.00023123105409956539;0.019756296522891723;0.011967067291557878;-0.5443943485739767;0.00014321069956067442;0.017589476904252194;0.012066929272694637;-0.3724604346333774;0.0001456107820722147;0.012491077801570327;0.0397675130009178;0.012862539509080347;0.0001654449226226529;0.013160923636870714;0.048268014949454444;0.11755361423399369;0.41564875028494797;0.0
0.018397380831916027;-0.8391773347586222;0.00033846362147455124;0.027021515244213246;0.013948985562372677;-0.702139634257377;0.00019457419821928139;0.020393596410727327;0.014048739232326505;-0.38361786652088575;0.0001973670740179099;0.01631487712858165;0.045885591924135896;0.013648441133957061;0.00018627994538709112;0.017637951085165277;-0.004101448933477668;0.12734035421459772;0.712466305474118;0.0
0.019214945670463113;-0.5245921530820244;0.00036921413711884913;0.017971856836953178;0.014432562412124898;-0.8976890539575031;0.00020829885777988045;0.02166819618639751;0.01429815908379437;-0.5691217309942159;0.00020443735318549148;0.017844396859386172;0.045885591924135896;0.013613483445391109;0.00018532693151793777;0.017392390009824565;0.006478437080616065;0.12689790405057638;0.6939475292581375;0.0
0.018111878931713593;0.5798712557171898;0.0003280401584370508;0.0249821556031406;0.0162193565734041;-0.6464344802899353;0.0002630675276552267;0.020011216478025978;0.01541032771474453;-0.908076160743266;0.00023747820027582338;0.021668196186397523;0.045885591924135896;0.013557155840441208;0.00018379647448200914;0.016951292060421494;0.03561129218323141;0.12630360422095635;0.6997859912750355;0.0
0.013438577986395927;-1.6984870992772443;0.00018059537829644522;0.0249821556031406;0.016229325447469686;-0.8834761841318526;0.00026339100447988714;0.02179565616396459;0.01766431588305508;-1.1833030104312137;0.00031202805561635197;0.027276435199347415;0.053023350667890295;0.016784068086832978;0.0002817049415434452;0.02104529468642667;-0.09907075297834515;0.16064470659492233;0.12819102403153865;0.0
0.013583085278383849;-1.7428533118618905;0.00018450020567984806;0.025491995513408777;0.016561646355680977;-1.094307983961529;0.000274288130010641;0.023452635872336147;0.017424627920709715;-0.8402106129707114;0.00030361765817517653;0.025746915468542894;0.053023350667890295;0.016795875235580453;0.0002821014249291847;0.01943825489680996;0.025398143508580415;0.16285476924504036;0.41040054221422984;0.0
0.014911304240915257;-1.652675156116713;0.00022234699416513731;0.025746915468542853;0.017049722171297327;-1.2524290207324458;0.00029069302611842764;0.025237075558274702;0.017084159850392237;-0.7328085828942739;0.00029186851779375414;0.02421739573773836;0.053023350667890295;0.016304032376940135;0.00026582147174831214;0.018659711818438757;0.2732036162877764;0.15500648060015934;0.05640095842734503;0.0
0.013454901804118983;-1.2677359878158936;0.00018103438255848427;0.021540736208830402;0.01632629142537466;-0.8909487544343041;0.00026654779170626213;0.02141327623126346;0.015451131005310008;0.6911351180087217;0.00023873744934325224;0.01555011726317937;0.053023350667890295;0.015214030677565701;0.00023146672945791025;0.012979549463821044;1.506389438968732;0.14713572997727292;0.3272039693711753;0.0
0.013596155800438136;-1.4032358232996305;0.0001848554525497876;0.022432956051799728;0.013794915115225112;-0.5877092303339414;0.00019029968303626625;0.014530437442643096;0.010995429196574981;0.016757008248181444;0.00012089946321689352;0.012236157846436224;0.037728153359845;0.010873350862113402;0.00011822975897062227;0.00788337814388615;2.028434472094457;0.10867182737588718;-0.9145092364020441;0.0
0.015247537997364023;-1.7627427938094549;0.00023248741498105971;0.025746915468542853;0.013881738138062713;-0.4276093547586345;0.00019270265373374484;0.01402059753237489;0.009531567381846072;-0.3882812695214639;9.085077675467199e-05;0.012236157846436224;0.02855103497501779;0.009493895832274037;9.013405807407032e-05;0.00788337814388615;3.4346430514943913;0.09600415535822157;-1.572472222875061;0.0
0.018459678472076777;-1.1029279752923813;0.00034075972929245476;0.02931579484042008;0.014801561817765181;-0.5974177662269048;0.00021908623224512413;0.019628836545324796;0.010900457299768443;-0.17072041172796254;0.00011881996934407516;0.012236157846436224;0.0367084735393086;0.010533446389079791;0.00011095349283161809;0.008221216132047862;2.216830615611452;0.10546605727816699;-1.1231784305917512;0.0
0.017687844785769655;-0.8028297116068605;0.0003128598531654788;0.027021515244213305;0.012976179714368015;1.4059636696518518;0.000168381239979576;0.011981237891302204;0.010720925680562661;0.7235165068426233;0.00011493824744814795;0.0076475986540225915;0.0367084735393086;0.010631594428997696;0.00011303080010269487;0.010563667469653898;3.321234358311901;0.10469839322805383;-1.540919319536644;0.0
0.016844789667610143;-0.28652596752295373;0.0002837469389460254;0.020393596410726952;0.012863961337837175;1.5970483504514743;0.0001654815013013696;0.011981237891302204;0.011190698911086726;-0.2518337120143827;0.00012523174211859762;0.014020597532374834;0.0367084735393086;0.011192578609613976;0.0001252738159323883;0.012178459786104101;1.2080610243381014;0.1116809330399355;-1.0233316120790712;0.0
0.01727246520584036;-0.37758124967919315;0.00029833805428696586;0.020393596410726952;0.009115383763109247;-0.8810116885630056;8.309022114875569e-05;0.011981237891302204;0.01174674300413588;-0.5388408392709957;0.00013798597120521524;0.014020597532374834;0.0367084735393086;0.011511543802603223;0.00013251564071925268;0.015903272624230996;0.4557300492463351;0.11543565460222432;-0.8444047803936956;0.0
0.01799477296964281;-0.4619260723489041;0.00032381185422898753;0.026256755378811048;0.009253746526196236;-1.0405041774204942;8.56318247710889e-05;0.012236157846436307;0.01256042469363448;-0.04512960288871223;0.00015776426848446281;0.014020597532374834;0.040787192821454;0.009931172776350338;9.86281927137221e-05;0.015903272624230996;-1.0120176344366523;0.09883630989687596;-0.3310184972239182;0.0
0.017793339825242237;0.19885366901792928;0.0003166029421365515;0.020138676455593002;0.010444323556793023;-0.3278940450840823;0.00010908389455898166;0.01045171816049767;0.01462291810290908;-1.2376936718273335;0.00021382973384438607;0.021413276231263365;0.040787192821454;0.01161909259006402;0.0001350033126164806;0.018029783339228084;-1.4530921970611819;0.11745185750964134;-0.31270503732036836;0.0
0.016263813225146747;0.44904985227941857;0.00026451162062245825;0.014785357397777074;0.011108973705700773;0.07750804618645445;0.00012340929679395117;0.012491077801570605;0.017679678576604047;-1.3242422789872523;0.00031257103457203207;0.02931579484042006;0.052003670847353904;0.014571885859263367;0.00021233985749539967;0.01901268796594155;-0.2581573441571981;0.1541593287815191;-0.549988122763864;0.0
0.017687844785769655;-0.09046901717841445;0.0003128598531654788;0.0214132762312634;0.010971894910845022;0.22959054783706787;0.00012038247793462688;0.010961558070765987;0.018501249801286205;-1.624336584022706;0.00034229624420959283;0.03110023452635867;0.052003670847353904;0.01462412673127527;0.0002138650826523999;0.02084674585030795;-0.604114413452612;0.15837973213637727;-0.10037280050133789;0.0
0.018025242436208334;-0.49920562364183646;0.0003249093648840858;0.02625675537881105;0.011451049279906776;-0.3834969196730995;0.00013112652961085348;0.015295197308045294;0.018069092140342177;-1.2034592906526542;0.0003264920907761754;0.02829611501988369;0.052003670847353904;0.014680812615517767;0.00021552625905194562;0.01922029367751371;-0.5697002847045053;0.16223860097771997;0.30187966214806056;0.0
0.017403066678956733;-0.060688459466948785;0.00030286672983221414;0.02625675537881105;0.012844301022742985;-0.7141878724197623;0.0001649760687628365;0.015295197308045294;0.017015045050520067;0.14642338719999515;0.0002895117580712274;0.014275517487508896;0.052003670847353904;0.014652068724532548;0.00021468311790842485;0.009224477732776543;0.15591097242028898;0.16763094900075434;0.7740040051339141;0.0
0.013223661270709315;-1.7413748656125294;0.0001748652174024575;0.02358009584990315;0.011506780435022792;0.19408067641396595;0.00013240599597982332;0.015040277352911191;0.012940964926321435;3.039293756499615;0.00016746857322428153;0.008922198429693093;0.046905271744672204;0.01158487691475756;0.00013420937313008265;0.010458246798218607;2.3057433250882107;0.13837723943656402;1.0558499564670412;0.0
0.015272615501402968;-1.567980732983793;0.0002332527842536942;0.026894055266646275;0.011506780435022785;0.838029581682342;0.00013240599597982315;0.013510757622106684;0.007381242406792491;0.5219580111089651;5.44827394678318e-05;0.008157438564290811;0.0265116753339451;0.007242026513623466;5.2446948024025255e-05;0.006270514157516172;0.26492397076385693;0.08994278157730652;-0.33624451585230364;0.0
0.019188849277629656;-0.9556702745659581;0.00036821193659958816;0.0293157948404201;0.012815373774403848;-0.9171343664115277;0.00016423380497767792;0.017334556949117952;0.005941816629866157;0.8863686258484853;3.530518486295402e-05;0.005863158968083995;0.0193739165901907;0.00642720882283033;4.130901325226804e-05;0.004959589011561988;1.3148895640005753;0.08103360763729514;-0.23769565909702803;0.0
0.022271180921587044;-0.5371741194158578;0.0004960054996420627;0.026511675333945106;0.013025054387247027;-0.8999847520236415;0.00016965204179074302;0.017334556949117952;0.00542233647175258;1.6366938745310173;2.940173281289822e-05;0.005098399102681742;0.0193739165901907;0.004989371828847558;2.4893831246497623e-05;0.005056104079260687;1.7358560958405616;0.0640694869488504;-1.1663882236207532;0.0
0.02304992693613758;-0.7128984918708758;0.0005312991317612808;0.02638421535637805;0.013278042859689837;-0.321196101755703;0.00017630642218376027;0.015040277352911191;0.006380585312671633;0.7845392256849105;4.071186893228096e-05;0.005863158968083995;0.0224329560517997;0.005523919035036434;3.051368150563785e-05;0.005056104079260687;1.3651033666357546;0.07062551589113847;-0.5957107518194286;0.0
0.021033325193566224;0.2566743297502804;0.00044240076869830766;0.023580095849903074;0.013672415529913082;-1.3746669830273082;0.00018693494642260845;0.020393596410727133;0.010577181588571275;2.7206702044819573;0.00011187677035761115;0.007902518609156736;0.039767513000917694;0.008993638769481808;8.088553831592625e-05;0.00544784463642041;2.6976664532977273;0.11223500074736685;1.179056823311609;0.0
0.020783577371551457;0.47846203752967803;0.0004319570883592657;0.0224329560517997;0.012462547364485141;-1.3357531403365859;0.00015531508681203553;0.018864076679922515;0.009120926907746785;4.519558715951162;8.319130765645935e-05;0.006118078923218112;0.03262975425716319;0.007936239202352358;6.298389267695439e-05;0.00544784463642041;4.12858043206373;0.09800317550186718;1.9390462447874282;0.0
0.017679025116916266;-0.7026203852262317;0.00031254792908455613;0.0224329560517997;0.012215368930917975;-0.6663936531308176;0.00014921523811843614;0.0168247170388498;0.010670835509296393;3.052400565398223;0.00011386673046646083;0.006118078923218112;0.04231671255225859;0.009267899121160758;8.589395412001237e-05;0.005256177865848741;2.887125429423787;0.11683081533978486;1.2653868189111768;0.0
0.021618387894848334;-0.9657069758785107;0.0004673546951721249;0.03428673396553475;0.01827096283860627;1.706230151147418;0.0003338280830497313;0.01835423676965442;0.016796454693325025;2.7191207908179584;0.00028212089026492023;0.00560823901294992;0.06525950851432649;0.009747614449900535;9.501598746390972e-05;0.003888216825853802;2.7828670071079205;0.12486899030697245;1.4157984271715203;0.0
0.02437913973746577;-1.124212787430316;0.0005943424543388826;0.03645355358417447;0.017396427074473076;2.079788401568026;0.0003026356749574598;0.01835423676965442;0.017194115285126994;1.8552284688023721;0.0002956376004382378;0.013255837666972553;0.06525950851432649;0.009880555283690638;9.762537271406698e-05;0.005523723439415457;2.6319854845084225;0.12692655855214624;1.4133922364700906;0.0
0.024152101875383046;-1.0442821118002814;0.0005833240249988813;0.03479657387580293;0.017607652624631754;1.6549910715319425;0.0003100294309497015;0.019883756500458705;0.017274555245659105;1.8160504974221336;0.0002984102589353285;0.013255837666972553;0.06525950851432649;0.009896985838025072;9.795032867806885e-05;0.007090304235569736;2.324354381139856;0.12664063798244587;1.2921157562150725;0.0
0.024928396936955324;-1.2582060301568885;0.0006214249738464036;0.039130213113082374;0.0202369269594978;-0.39828328448073336;0.0004095332127640489;0.022432956051799624;0.017414431122067624;1.3454382826858793;0.0003032624113052375;0.016059957173447527;0.06525950851432649;0.00991539953282826;9.831514789561089e-05;0.007090304235569736;2.3914355934046148;0.12710361872500334;1.3367819910470073;0.0
0.026638234064102116;-0.9882110130719225;0.0007095955140538903;0.042444172529825554;0.02442151501172621;0.3112218381668827;0.0005964103954679687;0.022432956051799624;0.018451619065578104;0.3341890435686596;0.00034046224614120543;0.017462016926685024;0.06525950851432649;0.010121480511900687;0.00010244436775278539;0.007628355965025202;2.4363296971137567;0.13083416281733184;1.4620246226489837;0.0
0.024648473389467292;0.7640893836865337;0.0006075472404312772;0.01835423676965433;0.02983500213272637;-0.5145011662331862;0.0008901273522597871;0.028805954930151756;0.01974959802791386;-0.2493025172161154;0.000390046622264179;0.025364535535841726;0.06525950851432649;0.01066389390960695;0.0001137186333153522;0.009340490414227312;2.1070413815928037;0.1395997436506785;1.4579581901275591;0.0
0.022127287053658795;4.810848527136476;0.0004896168323550161;0.020393596410727;0.029467786315125328;-0.3746253147768438;0.0008683504303138875;0.026511675333945106;0.020872948043551453;0.26515752406148607;0.00043567996002879844;0.026256755378811086;0.06831854797593559;0.013047761418531641;0.00017024407803492282;0.008597888260046566;2.8617196636651547;0.17990337235381396;0.5157771768204447;0.0
0.021852785066186257;5.960056757670988;0.00047754421514893306;0.017844396859386127;0.029841197027924326;-0.4161099999118975;0.0008904970400593996;0.02829611501988366;0.021764385746591085;0.6938549452812411;0.0004736884869264171;0.02421739573773833;0.0723972672580809;0.015284160598506595;0.00023360556520094148;0.008418093008827787;3.031208846576221;0.23369332247475977;-1.7821517431377703;0.0
0.022057999801987443;5.219223108290139;0.00048655535526447805;0.01937391659019065;0.029848938838908746;-0.38522746185873097;0.0008909591498089149;0.02829611501988366;0.022715006691767688;-0.49291011398164336;0.0005159715290070509;0.027148975221780405;0.0723972672580809;0.02097285855670077;0.00043986079603937665;0.01871989841801664;0.49265729870901964;0.3517019757486036;-1.2901154093391929;0.0
0.028037589904339567;0.4678507396974518;0.0007861064476439241;0.0221780360966656;0.031215454791298662;-1.0568292962929071;0.0009744046178276106;0.04129703273172228;0.026710508087200574;-0.9053678285000848;0.0007134512422764072;0.040022432956051804;0.0825940654634444;0.021313705497325752;0.00045427404202673404;0.025497829798558178;-0.4244583437538668;0.3700990759099417;-0.9145536950994427;0.0
0.025326040597120552;0.8663382043923572;0.0006414083323269984;0.0221780360966656;0.027572028378908688;-0.8965145502950135;0.0007602167489273461;0.03925767309064945;0.02679794961354782;-0.9726909699891324;0.0007181301034902479;0.04053227286631998;0.0825940654634444;0.021542115749047918;0.00046406275094537837;0.03016160361884638;-1.1260391034617416;0.3939085424990563;-0.47282849318015063;0.0
0.02652234932006715;-0.8616151635925213;0.0007034350134556665;0.036453553584174424;0.029335172204894563;-0.8828239763132453;0.0008605523282908185;0.037473233404710954;0.031429377985629;-0.7387045543656247;0.000987805800563541;0.04129703273172221;0.0978892627714897;0.02564652044416109;0.0006577440108927726;0.033658365731589625;-0.7226120299128372;0.44523258383422765;0.05063784586241109;0.0
0.027410659272200065;-1.5347176435178262;0.0007513442417366474;0.042826552462526604;0.029395561240063903;-0.8928628699702621;0.0008640990206183472;0.03772815335984506;0.03243604198210432;-0.8214422016943063;0.001052096819464834;0.04129703273172221;0.0978892627714897;0.026439848194216693;0.0006990655725332236;0.033658365731589625;-0.9232538905414377;0.45330273696722806;0.05475709517100994;0.0
0.027072451227672975;-1.532459964612164;0.000732917615474732;0.04257163250739253;0.026477664190585365;-0.734930438723013;0.0007010667009894066;0.03619863362904044;0.033999692515607194;-1.2232750061689843;0.001155979091155836;0.053533190578158474;0.0978892627714897;0.026579993545223425;0.000706496056864119;0.0350004999902342;-0.9763105105842109;0.4543116280810225;0.04265442787163323;60.0
0.02426395214358146;-1.2430459137586947;0.0005887393736260113;0.038237993270113076;0.02388364031720203;0.3659095413079214;0.0005704282748014782;0.02855103497501768;0.03407758501612933;-1.2617835382892062;0.001161281800531522;0.05429795044356073;0.0978892627714897;0.026195073769290138;0.0006861818897785522;0.03380500936826248;-0.7248958355173762;0.4613886994900652;0.2750147215183804;60.0
0.023283061378525743;-0.922822789269526;0.0005421009471561971;0.03211991434689497;0.017202763835776208;-0.05713754448467918;0.0002959350835894897;0.01860915672478841;0.0342313196442856;-1.3371766623197527;0.0011717832445892534;0.05455287039869483;0.0978892627714897;0.025966945798236687;0.0006742822740885619;0.030671332957185195;-0.4810292846989199;0.4683985290520516;0.4672746285488933;60.0
0.01915774297271608;-1.107860714810973;0.0003670191158086523;0.0316100744366268;0.017294189273566154;-0.17610879989332215;0.00029908898262993064;0.01937391659019072;0.03406486965704083;-1.2864647584315902;0.0011604153447511809;0.05455287039869483;0.0978892627714897;0.026504987198180466;0.0007025143463757105;0.03372644184242104;-0.6201628470633095;0.4876177209982824;0.5536227940172845;60.0
0.01915774297271608;-1.1078607148109738;0.0003670191158086523;0.0316100744366268;0.016574807573143807;0.34795461763672264;0.0002747242460867453;0.014785357397777144;0.032237224069149875;-1.0100674785286496;0.001039238615684576;0.047670031610074506;0.0978892627714897;0.02647809359544941;0.000701089440449379;0.03372644184242104;-0.6154845130699336;0.4868922626792218;0.5552435754557763;0.0
0.022952487167864494;-0.7128583819897081;0.0005268166671909843;0.03211991434689497;0.019551693981408748;-0.5940962011738122;0.00038226873754265505;0.01937391659019072;0.030318975353386107;-0.29867622636675506;0.0009192402664792343;0.041551952686856373;0.0978892627714897;0.024053286754822392;0.0005785606037097144;0.03781154898537643;-1.256798342251653;0.3970225842633878;0.40742966396572394;0.0
0.019774954431892835;-0.9230515394167124;0.00039104882278343813;0.02804119506474955;0.017057089385200713;-0.7960267441613301;0.0002909442982947268;0.01937391659019072;0.02345041907230534;-1.0325979172880138;0.000549922154666742;0.034159273987967774;0.0703579076170083;0.02400007767056691;0.0005760037281932444;0.03762002994898895;-1.2443662303518184;0.3956440324185766;0.403358811977444;0.0
0.02154934076225423;-0.7262405466784497;0.0004643740872877517;0.02804119506474955;0.01751060740085929;-0.4492567460168258;0.00030662137154702815;0.020903436320995283;0.029614828947754617;0.17556666984305533;0.0008770380936047649;0.034159273987967774;0.0978892627714897;0.024663263782664105;0.000608276580413271;0.039398834325879616;-1.3153744409835997;0.4107894483939324;0.36904942894359766;0.0
0.019745722281285405;0.25916634754898077;0.0003898935484096509;0.021158356276129227;0.016483947728468975;1.6013926024127128;0.0002717205327148975;0.009686958295095471;0.03157826196101835;-0.5699104996672878;0.0009971866284786985;0.032629754257163274;0.0938105434893443;0.022654797049489177;0.0005132398293535435;0.03720622362097567;-1.2779290909806922;0.4336810155503292;0.399720629982595;0.0
0.023952469742529063;0.7506661616582733;0.0005737208067667703;0.020393596410727;0.01741111380319654;3.057609280929223;0.000303146883867861;0.013255837666972498;0.03174974342561375;-1.2984624376122993;0.0010080462075923037;0.05098399102681754;0.0897318242071989;0.019505096964586844;0.00038044880759793495;0.025182387103919554;-0.9503326393870566;0.39237858741888454;0.3294436113673315;0.0
0.024086900807622477;0.8772802128392273;0.0005801787905162444;0.028041195064749704;0.023475346003205246;0.5799515809020994;0.0005510918699702046;0.013255837666972498;0.02884270312957634;-2.0084575194165644;0.0008319015238208728;0.05429795044356062;0.0723972672580809;0.017198670147339945;0.0002957942548370022;0.022548313716011133;-0.2471716803950252;0.3601400659963412;0.3090626643617175;0.0
0.02406674801551432;0.9176489957573141;0.0005792083600422625;0.028041195064749704;0.02289989152672357;0.6166791113280529;0.000524405031935706;0.00790251860915675;0.02823058672357925;-1.8298707593019417;0.0007969660267575291;0.0471601916998062;0.0723972672580809;0.019853027190116855;0.0003941426886115192;0.026522751811812788;-0.45979270014809714;0.45311640145355897;0.3189307777247561;0.0
0.024082104053456097;1.0126260184078646;0.0005799477356414866;0.02753135515448153;0.022937382208236292;0.3646819650770701;0.0005261235025667148;0.01312837768940528;0.025658002687329144;-1.076009320971608;0.0006583331019029896;0.0392576730906495;0.0723972672580809;0.019935687820693913;0.0003974316488841636;0.025480251728649247;-0.15195599479911998;0.4799880843079141;0.6902399751514521;30.0
0.02765403089013584;0.7901116349196309;0.0007647454244725872;0.021923116141531553;0.023182864176581715;-0.1016963406432078;0.0005374451914298359;0.019756296522891847;0.02771516513369141;-0.17459903413171826;0.000768130378387784;0.03059039461609045;0.0897318242071988;0.02207203507219256;0.0004871747322280984;0.031230914797260652;-1.3132296918315691;0.49070708176911454;0.2912169208966101;0.0
0.029136011439506105;0.38556022778082066;0.0008489071626030305;0.0336494340776996;0.023836431984938337;-0.24885635301307474;0.0005681754897725915;0.024344855715305286;0.02782478525231859;0.4306284179428305;0.0007742186743376462;0.025491995513408725;0.0897318242071988;0.021544322418383235;0.0004641578284672505;0.029646888648973378;-1.1681946023412126;0.4538002166599179;-0.06063104496601929;0.0
0.029333596887202714;0.3312919197925278;0.0008604599063409087;0.034669113898235945;0.02100914389615571;1.5315227113311758;0.00044138412724937674;0.022050576119098525;0.02019892813608942;1.4832088181343377;0.0004079966978469048;0.016314877128581574;0.0723972672580808;0.018350524322428383;0.00033674174290803565;0.026037987644966933;-0.9444953934574453;0.41847042542764396;-0.09389692310002;0.0
0.02934304752476005;0.7819126437070553;0.0008610144380403268;0.03339451412256553;0.021051717329679972;1.5157283369901364;0.000443174802528748;0.022305496074232628;0.0137851761593516;1.32248162012004;0.0001900310817443557;0.008412358519424925;0.0509839910268174;0.01833541622730527;0.0003361874882285293;0.026037987644966933;-0.9394574355228836;0.42067898348547583;-0.03991738375222334;0.0
0.01997115231544006;-0.12998535309940656;0.0003988469248065068;0.02600183542367705;0.021600210846145718;0.48315793575086424;0.00046656910859795117;0.025491995513408833;0.014149116447103281;0.636739326802947;0.00020019749623368857;0.014020597532374824;0.0509839910268174;0.01818148915382451;0.00033056654785063836;0.02527829140566576;-0.8304610391619107;0.4142591225356937;-0.08939196085798241;0.0
0.02039812781760672;0.06396691756479557;0.00041608361846342114;0.02600183542367705;0.02025746801338149;0.9342578654013971;0.0004103650103131742;0.021158356276129386;0.01430623668405662;0.4794601975422615;0.00020466840806024735;0.015295197308045225;0.0509839910268174;0.018415194041671204;0.0003391193715924026;0.02527829140566576;-0.868653690769255;0.4212589940321533;-0.10760754810881348;0.0
0.024326719835867962;-0.3471144779711674;0.0005917892979728117;0.024727235648006527;0.016315673733993518;2.145566213619571;0.000266201209394126;0.013510757622106684;0.014254866172838549;0.5294380721095594;0.00020320120960553673;0.015040277352911125;0.0509839910268174;0.018662968804147268;0.0003483064045845741;0.02844501462690706;-0.7552303251174577;0.4731511818572819;0.3289592433009799;0.0
0.02750490630653406;-1.2149472444591294;0.0007565198709312171;0.04002243295605175;0.010935376099191926;-0.37640108200352984;0.00011958245043077801;0.013510757622106684;0.01913722888075686;0.5217726536726742;0.0003662335292344744;0.016824717038849725;0.067298868155399;0.017983339556675915;0.00032340050161070463;0.026056367516820743;-0.3334323669313782;0.46425907676054656;0.39195988550487165;0.0
0.029515772944811364;-1.6736271790667392;0.0008711808525296585;0.04996431120628113;0.011292950815550287;-0.8736825595620894;0.00012753073812243787;0.016569797083715587;0.01904494532400714;0.5624236600111792;0.0003627099423944215;0.0155501172631793;0.067298868155399;0.017964852640425022;0.0003227359303921859;0.026056367516820743;-0.33288299396978055;0.4636316041397105;0.395670099187238;0.0
0.03127923135911701;-1.9362692092215812;0.0009783903144171692;0.05251351075762203;0.011388326891486552;-0.8288150171703198;0.00012969398938735577;0.016569797083715587;0.01776214735716698;-0.4772111715733526;0.00031549387873771386;0.016569797083715677;0.0550627103089628;0.017792556880972008;0.0003165750803626244;0.024665770352902464;-0.3173875910416726;0.4437334486709791;0.13933690344216526;0.0
0.030617762664997723;-2.0776264237262994;0.0009374473906101286;0.05251351075762203;0.013349738315279625;-0.6239702079078862;0.0001782155130864449;0.018736616702355324;0.022152073108630568;-0.4960794379976135;0.0004907143430101135;0.0249821556031406;0.0683185479759354;0.02167584179340893;0.0004698421174528933;0.024665770352902464;1.7620698837788475;0.518233319360256;0.9697742171479722;0.0
0.029889163931203982;-2.054957831021853;0.0008933621205063851;0.05251351075762203;0.01250061198439809;-0.794810759962445;0.0001562652999844772;0.018736616702355324;0.0252412809579911;-0.7217649172948397;0.0006371222644002442;0.035178953808504075;0.07851534618129889;0.02144450914235839;0.0004598669723566925;0.023956757459222832;2.131380549275896;0.5178157917733727;1.0536485312764075;30.0
0.02912173355166039;-1.8604891619937358;0.0008480753650539025;0.049709391251147074;0.01877129649734463;1.1323856120421343;0.0003523615721912228;0.019756296522891625;0.023612432435768643;-0.2641562208587419;0.0005575469655337391;0.025746915468542873;0.07851534618129889;0.022660913297105477;0.0005135169914589319;0.026242919555275353;0.5781618856666222;0.5206669380086135;0.6887362530129666;30.0
0.028937076888745198;-1.8186137781844793;0.0008373544188651514;0.04817987152034255;0.017306543102197862;1.561703907059668;0.0002995164341482324;0.012873457734271287;0.023789858405945052;-0.4278003926587845;0.0005659573629749144;0.02829611501988375;0.07851534618129889;0.022833876804603786;0.0005213859299278228;0.027266681086081334;0.2840112810498902;0.5139038149019786;0.5319864389112594;30.0
0.028801016529341365;-1.4302238460001964;0.0008294985531233945;0.04792495156520848;0.01732255656211434;1.7328726970098935;0.00030007096584765066;0.012745997756704264;0.022325581197966966;0.46957454087281697;0.0004984315758270162;0.026766595289079223;0.07851534618129889;0.02295233910192843;0.0005268098702499128;0.027963722360417217;0.23677032551526725;0.5198319487814826;0.5616864304709839;30.0
0.029074089952340926;-1.8741822913267987;0.0008453027065568116;0.04894463138574483;0.01732255656211434;1.7328726970098935;0.00030007096584765066;0.012745997756704264;0.022078939620450697;0.7497021094425976;0.0004874795747635076;0.025237075558274702;0.07851534618129889;0.021484064353928623;0.0004615650211637466;0.015879929879474286;0.8936835948114208;0.4636893668320148;0.4796599265216604;30.0
0.027385359455156;-1.6566638016927462;0.0007499579124881021;0.046140511879269826;0.017788469607599375;1.4127307226087678;0.0003164296509804867;0.017334556949117952;0.02157077436687847;1.5071314141016114;0.00046529830678678126;0.0191189966350566;0.07851534618129889;0.02036509678017585;0.0004147371668659287;0.015879929879474286;1.388729309732896;0.43099446438265093;0.6261071579884749;30.0
0.026964485529805744;-1.609116122459898;0.0007270834798871034;0.04435607219333125;0.0186639014509411;0.20646347368201542;0.0003483412173704413;0.024599775670439583;0.02045157908401889;2.1379203316381625;0.0004182670870298789;0.011726317936168025;0.07851534618129889;0.02123215604448172;0.00045080445029722156;0.025173914082551263;0.420582691028783;0.4355544276309198;0.38751405886210133;30.0
0.028957630280638517;-1.298160071576701;0.0008385443514701528;0.04435607219333125;0.020120490407757617;0.03564426194184175;0.0004048341342486663;0.024599775670439583;0.02071843976569184;1.8211523845516109;0.00042925374632460096;0.011726317936168025;0.07851534618129889;0.019239083320898052;0.00037014232702845754;0.025173914082551263;0.5333857439386195;0.3844172886826099;0.8434817458551285;30.0
0.028197010068170644;-0.2702383702885674;0.0007950713767845166;0.03823799327011318;0.020674970531718597;-0.22699079752871093;0.00042745440648743233;0.027403895176914606;0.02963997971569732;1.5600749060011643;0.0008785283975469487;0.0196288365453247;0.1070663811563168;0.02084456979622684;0.0004344960899897723;0.029585572324935056;-0.8595084449238242;0.3908772041347324;0.3683634464632789;0.0
0.031003781865546986;-0.22999630911045038;0.0009612344899664201;0.03823799327011318;0.020331826396433158;0.6370282181519806;0.0004133831646146962;0.019501376567757744;0.02650208686666096;2.2458308731877046;0.0007023606082880433;0.0196288365453247;0.0836137452839808;0.020405360212009976;0.0004163787253818798;0.029585572324935056;-1.032519626747005;0.384313891842595;0.2957639372479105;0.0
0.03174701429168158;-0.43485135114806234;0.0010078729164362343;0.04308147241766082;0.019230946953358655;0.8041018134715229;0.00036982932072289454;0.020266136433159998;0.02405834603648879;6.464409921965577;0.0005788040140114358;0.015040277352911125;0.0836137452839808;0.020536824710606548;0.0004217611691941797;0.029585572324935056;-1.1774180836223398;0.3790202905915796;0.10035523149721635;0.0
0.04109884559414583;-0.01558337806837784;0.0016891151091714403;0.045375752013867655;0.030597238923285867;5.3515896343592555;0.0009361910297286396;0.017589476904252055;0.02409673116855264;5.782802451435545;0.0005806524530094963;0.019118996635056548;0.0836137452839808;0.034089561216724;0.0011620981839487727;0.03799413410603078;2.279266133422763;0.5523092577800903;1.377182985627803;0.0
0.04137340313411119;-0.13591997111735868;0.0017117584868976818;0.04563067196900176;0.035424641646504926;0.699507328411878;0.0012549052357832913;0.02523707555827462;0.026128929253485512;4.356435043479068;0.000682720943933651;0.020648516365861076;0.0968695829509533;0.03571627596458802;0.0012756523687786076;0.048335194381406765;0.499084254068876;0.5388665285080869;0.86398810271935;0.0
0.04261508071820948;-0.2876157079035038;0.0018160451046195093;0.04563067196900176;0.03822023916638958;-1.0682364743697026;0.00146078668193602;0.06016110941164465;0.025672406928494537;3.9963528871610228;0.0006590724775022143;0.017844396859386102;0.0968695829509533;0.033983934109416206;0.0011549077775531423;0.03728211899020018;0.89712203245016;0.4923107180182915;0.8159633836345537;30.0
0.04571393947146821;-0.9729146354777717;0.002089764262001059;0.06474966860405826;0.036730654315614425;-0.9692700506243079;0.0013491409664531644;0.04945447129601299;0.025618349263860144;3.771991028295194;0.0006562998190051236;0.017844396859386102;0.0968695829509533;0.03626453213861019;0.0013151162912322914;0.047951867114291294;0.42467843564778157;0.5412732775236905;0.6390854651295085;30.0
0.04566235585858447;-0.8181580641455639;0.0020850507425560034;0.06602426837972868;0.03894055639123501;-1.1949495135822548;0.001516366932058954;0.06322014887325372;0.02644623046657401;1.8895388551037218;0.0006994031058911473;0.013255837666972551;0.0968695829509533;0.03380832503160271;0.0011430028414424942;0.02448325872343298;0.9043087470486435;0.4672851665107949;0.4076305229732859;30.0
0.04673266768495291;-1.2037625397722718;0.0021839422289522425;0.0762210665850922;0.036297395079276006;-1.1159257418540385;0.00131750088954105;0.0559549301519322;0.027879589072839318;1.2512874813032522;0.0007772714868703815;0.023197715917202003;0.0968695829509533;0.03513120868717851;0.0012342018238220868;0.03897962150676896;0.45361781792730327;0.5024020911802621;0.5344218678361368;30.0
0.04275041342908146;-1.0305280162071593;0.0018275978483573885;0.06322014887325378;0.03738613569301962;-1.6546707511122511;0.0013977231420568758;0.06334760885082069;0.027829974720274073;1.3983697800299828;0.0007745074929310941;0.0214132762312634;0.0968695829509533;0.03292021624399759;0.0010837406375515627;0.0339909597291529;1.028934967021836;0.4572066256096215;0.6630105516352084;30.0
0.04241620888260985;-0.9080294695223589;0.0017991347759731908;0.0627103089629856;0.04129252155608073;-1.6907277929953664;0.0017050723364593916;0.07277964719078195;0.018462494522303734;0.008201764586650435;0.00034086370398609534;0.022432956051799777;0.0632201488732537;0.03298104485913948;0.001087749320000571;0.0339909597291529;1.1840477787613477;0.46701582729167873;0.8134032247129335;30.0
0.052859933731670986;-0.4254729651709909;0.0027941725941166484;0.0627103089629856;0.04120149333494808;-1.6760543215655643;0.0016975630530297711;0.07277964719078195;0.01801306083435144;0.7255877579038119;0.0003244703606220458;0.01070663811563165;0.0632201488732537;0.04078620245781589;0.0016635143109299472;0.04211167386640089;-0.28530004036912715;0.5325328204825117;0.7747653193120162;30.0
0.0632020780392718;-1.2596521377502046;0.003994502668482202;0.09712450290608746;0.04140428155939547;-1.6915587043665907;0.0017143145314496957;0.07430916692158657;0.018398558211543858;0.5510926153481301;0.00033850694426356786;0.014657897420210026;0.0632201488732537;0.0480582855515305;0.002309598810152445;0.07741675505588108;-1.2787614680908976;0.5555716739159107;0.430049688423915;30.0
0.06802284770634748;-1.5212387065985509;0.0046271078100809425;0.1200672988681554;0.03672896369975586;-1.374392249893636;0.0013490167744579836;0.05914142959110835;0.021919558830291622;-0.022199687943930155;0.0004804670593146154;0.0166972570612827;0.0723972672580808;0.05053604705633775;0.0025538920520803833;0.0826809942088006;-1.3629173717566871;0.5723676229993512;0.462750184941055;30.0
0.0681511229446193;-1.5067748613723144;0.004644575558612615;0.1200672988681554;0.03146542589131927;-0.04515837626672895;0.0009900730265221048;0.033139594167431535;0.023780144095976355;0.6204191197031658;0.0005654952532253992;0.02179565616396445;0.0841235851942489;0.05081267960308991;0.0025819284084462697;0.07867085955544786;-1.2091589968055179;0.5962379651171732;0.6713986955054233;30.0
0.0641705763268125;-1.4125983185353124;0.00411786286611527;0.11267462016926692;0.025389879652324927;1.3062340171585671;0.0006446459887595434;0.024727235648006607;0.02540369693453324;-0.48524589884842734;0.0006453478179416134;0.03275721423473018;0.0841235851942489;0.05130748595337292;0.00263245811485556;0.08075078890313617;-1.2377359109596202;0.6079793731914112;0.6930667285697011;30.0
0.05825083047852766;-1.3849419939803036;0.003393159251438167;0.09546752319771595;0.023846426156801336;3.4577235281107974;0.000568652040451779;0.019883756500458927;0.025071362827620965;-0.29557343703382494;0.0006285732340342143;0.030717854593657477;0.0841235851942489;0.04671659940536094;0.0021824406600009696;0.07487366153518725;-1.2391838339066479;0.5208025695049475;0.8139235580755169;30.0
0.06037869410736545;-1.3906301655063256;0.003645586702110808;0.1022229020087693;0.0232374295156406;3.5225314072764453;0.0005399781304943649;0.015295197308045294;0.026461515413006814;-0.7820648230330625;0.0007002117979527972;0.03938513306821643;0.0841235851942489;0.04961442622166963;0.002461591289305499;0.07912776824993248;-1.2357718839915697;0.5822741821878619;0.8544767784821949;0.0
0.058908539721926695;-1.3611773355838395;0.003470216052169815;0.10069338227796477;0.025211971624642938;0.9319741261570604;0.0006356435132018007;0.020138676455592974;0.02286909699134793;-0.9107307006311635;0.0005229955971996789;0.03173753441419383;0.07035790761700811;0.049839609876642474;0.002483986712655918;0.07912776824993248;-1.239373438436591;0.5864881922899141;0.8450683543814475;0.0
0.06007773457997017;-1.3253618465506436;0.0036093341922613436;0.10069338227796477;0.017759545511859688;0.0156801526799499;0.0003154014567878156;0.020138676455592974;0.028466949423734643;-0.38323958895401894;0.0008103672094934662;0.0390027531355153;0.0938105434893442;0.049819767259803964;0.002482009209821035;0.07894304067209013;-1.238706065558322;0.5860848244941214;0.8453071645255785;0.0
0.06377008357726878;-1.4195562114753943;0.004066623559451845;0.10273274191903747;0.015211505656113214;0.9867018543673802;0.00023138990432596432;0.016569797083715754;0.027626444981198456;0.11692931049775115;0.0007632204622991853;0.03059039461609045;0.0938105434893442;0.05494112916010859;0.003018527673387735;0.08691095143935806;-1.2160664596803115;0.6891765199738314;0.6511774808270098;0.0
0.060925430779962715;0.06794872096584013;0.0037119081157240283;0.06118078923218111;0.018150428105952188;0.18233669362890176;0.00032943804042933917;0.018609156724788523;0.028079587022718996;0.18761437321144012;0.0007884632073664491;0.0313551544814927;0.0938105434893442;0.050300593580273785;0.00253014971452788;0.03203224804858608;0.539635962306218;0.7221871258961441;1.238887323935736;60.0
0.05231442229948077;0.7077564917161995;0.0027367987805284114;0.06118078923218111;0.03574297366271127;4.333275484995824;0.0012775601662532716;0.016569797083715754;0.029029353062302088;-0.4910938660066648;0.0008427033392157876;0.039257673090649425;0.0938105434893442;0.0464805346566206;0.0021604401019653086;0.03203224804858608;0.6274866482188496;0.6874603586653834;1.1823497159802374;60.0
0.03725825663585791;0.5236341933885852;0.00138817768754345;0.044610992148465346;0.03534955408012763;4.4177175937095265;0.0012495909736638681;0.009686958295095305;0.03609612155760845;-0.18217938896885397;0.0013029299915016453;0.04308147241766078;0.1223615784643621;0.03441027413576695;0.001184066966098632;0.030856585466298117;3.2860149002225976;0.5809822789091189;1.352604835447792;60.0
0.07024706764656487;4.227902737417288;0.00493465051294106;0.02982563475068815;0.035671633075384526;4.428695676890865;0.0012724654062648674;0.014275517487508993;0.043292850830805966;-0.1955832461636149;0.0018742709330584171;0.04308147241766078;0.13969613541348008;0.05284729927671535;0.0027928370408427192;0.03368430464879614;1.5608684787216762;0.7438382555167049;1.4126458446639996;60.0
0.07496946966079934;1.5992668780926442;0.005620421381221514;0.0333945141225654;0.03378751137923868;4.511505707300077;0.0011415959252021833;0.02013867645559289;0.05026756074341058;-1.1490659228965332;0.0025268276630924726;0.07673090649536041;0.1437748546956255;0.05490174830453681;0.0030142019668947108;0.07049163876216062;-0.014559812337894178;0.7028083676814078;0.9034559758196543;60.0
0.07033606567337401;2.101022686023922;0.0049471621344091814;0.04282655246252665;0.03367242909874974;4.499646678353291;0.0011338324814103285;0.02013867645559289;0.052651761034983494;-1.6806010878055229;0.0027722079400850064;0.08947690425206481;0.1437748546956255;0.05489417318233962;0.003013370249372694;0.0710827058808292;-0.03642389025337067;0.7005910247723299;0.8876943972486008;60.0
0.06917007664141955;2.317176938278444;0.0047844995025798556;0.024217395737738276;0.03366213476275763;3.6235283847117827;0.001133139316786056;0.027021515244213257;0.05221550607705539;-1.4129457297457069;0.0027264590748830083;0.08641786479045571;0.1437748546956255;0.05298273693827261;0.0028071704134701968;0.06858456908884247;-0.0034931910457599103;0.6335778552518513;0.6801400118755728;60.0
0.0702811845488697;2.0449121559234604;0.00493944490159228;0.024217395737738276;0.03385416345807248;4.432628830965604;0.00114610438344589;0.02281533598450089;0.0522202627613433;-1.1137741249921511;0.0027269558428637372;0.08565310492505347;0.1437748546956255;0.05085238017080525;0.0025859645690361065;0.06023748247399427;0.32666613976771586;0.582938292363938;0.5909270655962634;60.0
0.07687571382155782;0.9806553906924701;0.0059098753755740556;0.055062710308962926;0.0342810633439503;4.447759267859223;0.001175191303991933;0.023197715917202072;0.04141903226899406;-0.8893573294331562;0.0017155362340999709;0.05761190986030387;0.113184460079535;0.04905012553570301;0.002405914815068224;0.042079042805969774;0.652922540659693;0.5347717363497274;0.3805778000940325;60.0
0.07747210877262518;0.952683646989377;0.006001927637677469;0.061180789232181024;0.0352007445630355;2.8030050139112683;0.0012390924177920733;0.0323748343020292;0.047614183087828256;-0.1392509699650084;0.0022671104311212304;0.05761190986030387;0.1376567757724074;0.04205926247693348;0.0017689815601035848;0.042079042805969774;0.963983692718628;0.4358383473130885;1.113563809019157;60.0
0.07752406013659739;1.043738420915451;0.0060099799000627695;0.06092586927704692;0.031370004024898444;4.179716522536126;0.0009840771525221447;0.031482614459059866;0.0662818899955643;0.18822149698715915;0.0043932889413840865;0.08743754461099207;0.1927194860813704;0.03817796350738407;0.0014575568975711498;0.04121112934229819;1.4828705153837103;0.3753327221287687;1.291447592691561;0.0
0.06780755804107998;1.7652833684512157;0.00459786492749443;0.049709391251147;0.016395138814147003;-0.7193771864235714;0.00026880057673514963;0.023197715917202072;0.0715198770789141;-0.7232805991947175;0.005115092817382982;0.10579178138064638;0.1927194860813704;0.036778525103471855;0.0013526599087867097;0.02279979881096321;4.162857797010643;0.38840669814126;1.9225000795580767;0.0
0.06766702303053096;1.7417703654814585;0.0045788260058144065;0.049709391251147;0.016771330894477587;-0.7928614362519859;0.0002812775399720584;0.024344855715305452;0.07897740384929171;-1.8516061960839703;0.006237430318774118;0.1404608952788823;0.1927194860813704;0.036111705782963584;0.0013040552945553256;0.02081619067315471;4.227880702877049;0.37494612258155224;1.8887353314535271;0.0
0.04451187598596418;0.9240576229835165;0.001981307103789854;0.04665035178953793;0.0164141531885442;-1.3279833877763525;0.00026942442489699567;0.026511675333945273;0.07659645934697282;-2.0529509363012894;0.00586701758449246;0.1291169572754154;0.1927194860813704;0.02047964191565946;0.00041941573299363586;0.021603741055705714;0.47713893427149706;0.24588974582801545;0.5113852092534751;0.0
0.03525415896124421;1.1176101617831466;0.0012428557240646754;0.039257673090649425;0.019503255516851;-0.2921363281470022;0.000380376975755579;0.022815335984501167;0.07111589569009431;-1.8249061804417859;0.005057470619804375;0.11828285918221668;0.1845620475170795;0.014777398975376763;0.0002183715204774662;0.01953510523174873;-1.0954359081531462;0.18910778166653075;-0.23704817668738712;30.0
0.03271267490890832;1.5507436368614316;0.00107011909969592;0.0313551544814927;0.019512730807224068;-0.3074133948951458;0.00038074666355519116;0.022815335984501167;0.06532588229423911;-0.7655408656760615;0.004267470897520782;0.0802997858672376;0.1845620475170795;0.015554040862405753;0.0002419281871493879;0.025453282852010567;-1.5845489095798624;0.20294480385834443;0.02719474206462694;30.0
0.040073402532602886;0.8274980168340623;0.0016058775905400237;0.039257673090649425;0.017589682152615933;1.2560267286865567;0.0003093969182300555;0.012873457734271565;0.05372574718973031;0.8460517051314075;0.002886455911094814;0.037345773427143875;0.1600897318242071;0.01817232734183182;0.0003302334810186883;0.028354805850944978;-1.2399073919589243;0.23150811323184808;0.3136077911931164;30.0
0.038596224443340384;1.6305606326072026;0.0014896685412807058;0.03543387376363815;0.017610932922110713;1.2415625752189305;0.000310144958387083;0.013000917711838589;0.039596654622781155;4.609590011459934;0.001567895057315816;0.03556133374120528;0.136637095951871;0.018688250447765068;0.00034925070479839126;0.02904433899425443;-1.5951631349016755;0.23304363305698458;0.010442214090829242;30.0
0.029734154192041135;-0.7572251750670773;0.0008841199255160775;0.041806872641990275;0.01767845331987559;1.1954952584431726;0.0003125277117830204;0.013255837666972692;0.01891293049207649;-1.4751784828666048;0.00035769893979811665;0.027531355154481497;0.055062710308962995;0.018064416699851215;0.0003263231507058634;0.027615826748264377;-1.2194559204830513;0.22928845236754328;0.2442682125804311;30.0
0.02837732280369413;-0.6155694469105667;0.0008052724495050587;0.03900275313551535;0.012645217517938364;1.625265022511891;0.0001599015260759753;0.012491077801570383;0.016219801743082234;-1.6214418965095068;0.0002630819685848934;0.0272764351993474;0.047415111654940396;0.016538356120351906;0.0002735172231635814;0.02169764912800254;-0.7196144145343385;0.20434747559869035;0.10174707460855623;30.0
0.039260395085269455;0.8082774965436285;0.0015413786222514502;0.041806872641990275;0.012645217517938364;1.625265022511891;0.0001599015260759753;0.012491077801570383;0.01762937322261714;-0.8318266633013504;0.0003107948002223303;0.02498215560314062;0.0520036708473539;0.015536064887432453;0.00024136931218651155;0.018648895771356547;0.008747973267119338;0.19488330073935511;0.2268362873818789;30.0
0.038968582224984824;0.6878912474181037;0.001518550400625403;0.03543387376363815;0.013235777500441304;1.3862539934313125;0.00017518580604118823;0.013000917711838589;0.01964696317388308;-1.4380073249983403;0.0003860031619559179;0.0330121341898644;0.0520036708473539;0.018275831184901503;0.0003340060054990183;0.02387067189473288;-0.4468854509121566;0.23555604130879118;-0.09409976558615148;30.0
0.06380992686640931;2.3616258583039573;0.0040717067666965045;0.03492403385336995;0.013183741105482186;1.5059047327466064;0.00017381102953638065;0.01223615784643628;0.023625944523452524;-0.2972749104020309;0.0005581852546252563;0.031992454369328044;0.0744366268991537;0.03358228811755025;0.0011277700752101568;0.02593927132466127;3.6536663194702927;0.39410531953143063;1.6761948270139995;30.0
0.0658590033323005;0.7804638097036027;0.004337408319923969;0.05174875089221982;0.020063782184482806;3.7700051275598576;0.00040255535554636966;0.01223615784643628;0.03525481435264732;1.0237611154457338;0.0012429019350396278;0.03670847353930862;0.1131844600795349;0.032318698998786415;0.001044498304974158;0.027764850591146778;3.1697236442805377;0.3582945305572236;1.439767763221716;30.0
0.0659126588683202;0.777632829206694;0.004344478599091551;0.05174875089221982;0.016907427097286595;5.437873753801205;0.00028586109105006104;0.015550117263179342;0.04441561122713599;-0.5776958237971362;0.0019727465206800885;0.05429795044356072;0.1254206179259712;0.035880743898549984;0.0012874277827133317;0.0350758312051796;1.9812186140612533;0.41310380273307373;1.018641417895187;30.0
0.06880308006751396;0.3921234494399286;0.004733863826776737;0.08514326501478525;0.0171246853122124;5.6026192046121395;0.00029325484704230306;0.015550117263179342;0.04467767469077079;-1.0352174699623744;0.0019960946157743407;0.061435709187315196;0.1254206179259712;0.03886017471244673;0.0015101131786818846;0.04585846101619596;1.1850140565524572;0.462045601721502;0.7765194737215326;30.0
0.06142587123952562;1.049966905179811;0.003773137657534781;0.052768430712756206;0.017786845905381803;2.5534937799138686;0.00031637188726179737;0.01707963699398385;0.043966479199462165;-1.3208742599842072;0.0019330512931967393;0.0711226674824105;0.1254206179259712;0.03997528014351343;0.0015980230225523793;0.0480274047261549;1.7232220860677205;0.5163510069718658;1.1471803357523236;30.0
0.061228355799551326;1.0344041032500368;0.00374891155391645;0.052768430712756206;0.019587114815388208;1.7539253384081195;0.00038365506679120023;0.01707963699398385;0.03795331148868761;-0.967885069492897;0.0014404538529573469;0.052003670847353876;0.1142041399000713;0.04052872223422579;0.0016425773259390278;0.04141588441208035;2.3106710288909644;0.5553322491276725;1.4550701957854282;0.0
0.05621263431124281;1.6752985874187394;0.0031598602562095124;0.052768430712756206;0.020786356481996747;1.1771575742596545;0.00043207261579664824;0.01707963699398385;0.03991409417984009;-0.6902934021925979;0.0015931349141971446;0.05786682981543785;0.1274599775670438;0.040828810354289646;0.0016669917549465493;0.041353884626233815;2.7105501051582346;0.5792168769056161;1.6395934248919526;0.0
0.05697051323678995;1.546910311041599;0.003245639378463259;0.061180789232181135;0.021077768221134042;1.111334734718962;0.00044427231318384805;0.017844396859386158;0.031425885801875456;-1.3458104130954227;0.0009875862984325171;0.047160191699806106;0.0897318242071988;0.04462974756745059;0.001991814367934362;0.038665190397246;2.4306211428378566;0.7006517780795196;1.5109078674181262;30.0
0.056712290172636376;2.8880538388345087;0.0032162838566253084;0.030845314571224552;0.022147900557621968;0.8953887195786469;0.0004905294991103114;0.02574691546854263;0.02859732813499642;-0.8984619547323638;0.0008178071764606578;0.03747323340471077;0.0897318242071988;0.0454840327299805;0.0020687972333819373;0.01701430180866083;3.4100462249677923;0.7915260614547188;1.83473278897766;0.0
0.05703286073877047;2.963261030945086;0.0032527472040479863;0.030845314571224552;0.022103257224471106;0.967000405187881;0.0004885539799311341;0.02498215560314032;0.024032221144329086;-0.6976910922265672;0.000577547653129938;0.032502294279596076;0.07647598654022619;0.0475374948918479;0.002259813420592465;0.026557260113452108;3.066565429398285;0.8806242662085542;1.7743610935849647;0.0
0.03323766948325861;3.4294421614981374;0.001104742672678341;0.027021515244213177;0.0221635435735034;0.3523486437618004;0.0004912226637345838;0.027786275109615344;0.02546484624326318;-0.8442745379562204;0.000648458394193035;0.032502294279596076;0.07647598654022619;0.02674710168962241;0.0007154074487950021;0.02151550341915117;3.77615349439722;0.6641662684823182;1.6576619775906298;0.0
0.03190672861522415;3.0305991865323563;0.0010180393309255635;0.027021515244213177;0.015694459189003678;-1.2336932668352165;0.000246316049235302;0.024727235648006274;0.02480761066896011;-0.3629473102832951;0.0006154175471027035;0.026894055266646174;0.07647598654022619;0.022244600857983233;0.0004948222673309884;0.02151550341915117;1.8213844382839974;0.5773078400296123;1.0805040470964824;0.0
0.03306691675701288;2.870889834872027;0.0010934209838152189;0.03211991434689493;0.019884192256291084;-0.302593691259952;0.00039538110168514635;0.02778627510961551;0.024149231707738084;0.7928604680745569;0.0005831853920740225;0.029315794840419997;0.07647598654022619;0.022961951847312045;0.000527251232638277;0.02806654835258241;0.737563063625224;0.5702294774981093;0.7645991710112288;30.0
0.03964472946765282;2.3312181869540134;0.00157170457456338;0.03211991434689493;0.021646692264832134;-0.8215036769670766;0.00046857928600834337;0.032119914346894984;0.02464923501548114;-0.040983570557490925;0.0006075847868484215;0.03683593351687563;0.07647598654022619;0.02506472817711962;0.0006282405985928942;0.030873352227143533;-0.7051190223992967;0.5690768837795184;0.33052978271030337;30.0
0.04287791029410924;0.9643216994480497;0.0018385151911896795;0.03211991434689493;0.021232042139081884;-0.8129244931214222;0.0004507996133957489;0.032119914346894984;0.03370436440479925;0.5087550474401722;0.0011359841799314988;0.03683593351687563;0.10298766187417141;0.030449650332872835;0.0009271812053942228;0.043717679291181345;-1.1051327056071574;0.6112917871103113;0.28523716931649057;30.0
0.047420410770079253;-0.20377884379816638;0.0022486953576030485;0.056592230039767405;0.020963453241030935;-0.6503198466640819;0.00043946637178889043;0.031355154481492675;0.03570372162269494;-0.8477928481609369;0.001274755737710894;0.04116957275415513;0.10298766187417141;0.03469257373933883;0.0012035746726594622;0.05886963031123387;-1.6311140124489083;0.6282853117373292;0.09123399533669849;30.0
0.05155521071408446;-0.8460178809781647;0.002657939751773649;0.0788977261140001;0.020234643333010456;0.31017107245379705;0.0004094407908141445;0.027786275109615344;0.039173676676765704;-1.2087303643754983;0.0015345769443757772;0.05340573060059141;0.10298766187417141;0.039040783375964276;0.0015241827666089686;0.07104584735560285;-1.8763886748842171;0.6408636331251645;-0.06330470891715177;30.0
0.050986370224218765;-0.6004596405887997;0.0025996099486411016;0.0788977261140001;0.02016687359379899;0.4599319923425306;0.0004067027905482671;0.027021515244213035;0.03990385391885967;-1.617841851695195;0.0015923175575776921;0.06105332925461403;0.10298766187417141;0.03503082086106487;0.0012271584102000177;0.060180705638641474;-1.4259800367270148;0.5320669018005848;-0.23087694625533564;0.0
0.050314538011207666;-0.11927584115933192;0.002531552735281261;0.07545630671968993;0.01950910409128008;1.3351174621015065;0.0003806051424444012;0.02013867645559292;0.04800831562740065;-1.2290975190697289;0.0023047983693801214;0.07175996737024573;0.1407158152340164;0.035670653280477346;0.0012723955054560294;0.044118769076289394;-0.740920732441795;0.4716406172048487;-0.5148334500604129;0.0
0.05062267880712719;0.2604107510223171;0.0025626556096095643;0.07150504741511159;0.019210736547736088;1.3087568927049449;0.0003690523987065231;0.018864076679922515;0.04686350538867523;-0.9179366726016421;0.0021961881373143925;0.06551442846946062;0.1407158152340164;0.028245278257352714;0.000797795743835282;0.03780837972797657;-0.18885560955104655;0.3420436504517917;-0.5081360566114255;0.0
0.04842208853472576;1.9956843744748696;0.0023446986580648197;0.04002243295605183;0.023331884571816376;0.7768812724966219;0.000544376837672563;0.02421739573773843;0.04066081164443249;0.348350713989577;0.0016533016035840168;0.044356072193331327;0.1407158152340164;0.021143287670763698;0.00044703861352866827;0.02610792456632932;-0.7643053490245448;0.23865526202967835;-0.07950818996974708;0.0
0.04753939356974061;0.6393061134830772;0.0022599939409786948;0.0601611094116447;0.024023506533590134;0.3708610923276601;0.0005771288661694479;0.028041195064749724;0.03800441520209558;2.449037187137772;0.0014443355748532739;0.020903436320995283;0.1407158152340164;0.021236195996778562;0.0004509760204135938;0.026296467682734137;-0.8303021855092148;0.2411750422335954;0.013444513612775124;0.0
0.04810288443031142;0.429249293508502;0.0023138874905158963;0.0601611094116447;0.01817587026605239;-0.31951762986142135;0.0003303622599283673;0.023452635872336147;0.025657102153751457;1.012166069744757;0.0006582868909280377;0.019118996635056625;0.09279086366880801;0.01851422854150207;0.0003427766584869698;0.020908638284941772;-0.4744622054370612;0.19955408116407625;-0.18699024076986231;0.0
0.03723111544648265;-1.3617922705396421;0.001386155957389319;0.0601611094116447;0.017894017029136695;0.1745152931146871;0.00032019584543903405;0.022432956051799735;0.019614227469239777;-0.6913042887294891;0.00038471791921508016;0.028296115019883772;0.060161109411644806;0.017178645786810123;0.0002951058710686892;0.01876127233335373;0.7408556740388365;0.18057867550930592;-0.5401534816905741;0.0
0.0420094886114825;-1.6081371257251749;0.0017647971333982781;0.06678902824513093;0.017314218066496762;1.2772348591101854;0.00029978214725420293;0.01784439685938613;0.019632772144314376;-0.6856509393655433;0.0003854457420705665;0.028296115019883772;0.060161109411644806;0.017573156697919905;0.0003088158363296472;0.020908638284941772;0.13351132325390935;0.18806807340134402;-0.199709043998095;0.0
0.04117621486940012;-1.5308748574393276;0.0016954806709710071;0.0662791883348627;0.016713973086182533;1.4276356974240676;0.0002793568963256341;0.01784439685938613;0.019150203581560273;-0.6525607851227377;0.0003667302972152039;0.02676659528907928;0.060161109411644806;0.017297597865548752;0.00029920689191823674;0.01942149982429746;0.36607740760832996;0.18766066885346827;0.04400200069671448;0.0
0.035289368993626356;-1.723907957901292;0.0012453395639683172;0.0601611094116446;0.01734088713858761;1.2393535308651573;0.0003007063667532332;0.0219231161415315;0.01967979118457885;-0.8544758876188163;0.0003872941810686274;0.02906087488528608;0.060161109411644806;0.017063826127172436;0.00029117416209837265;0.01270378182372553;0.8671772327916756;0.19393413365750617;0.4682058238948057;30.0
0.03526529895859169;-1.1019520376328447;0.0012436413106388484;0.05149383093708562;0.017682292173865286;0.07625759549128373;0.0003126634565219375;0.026256755378811114;0.018863311138998026;-0.8529709448729241;0.00035582450712664696;0.02906087488528608;0.05404303048842671;0.016414169012795275;0.00026942494438060864;0.01270378182372553;0.8873992904472416;0.18573862794463056;0.6696622118012825;30.0
0.0324480159868242;1.0678538664182153;0.0010528737414811989;0.01249107780157025;0.016851646620457766;0.42469116926350886;0.00028397799382078563;0.019883756500458982;0.0199498097724223;0.2799403514838953;0.00039799490995583625;0.022687876006933873;0.06780870806566738;0.018531381409189012;0.0003434120969328362;0.016725933212901695;1.9783633876677433;0.23146897196616353;-1.2235684864947283;30.0
0.023569644111983083;7.352606129565245;0.0005555281235655389;0.009686958295095324;0.01762077015056993;0.06436298536806768;0.00031049154069921623;0.026001835423676956;0.02418556199723676;-0.44560556446633875;0.0005849414091221829;0.022687876006933873;0.0734169470786174;0.023508208682305097;0.0005526358754508047;0.023781209553944416;-0.2913571246906922;0.3128756420698067;-0.8558549601381491;0.0
0.012613773223900305;2.548800691157569;0.0001591072749439843;0.009686958295095324;0.013067117220176819;-1.4415002091373366;0.00017074955244584156;0.02345263587233612;0.03024711176750578;-0.904796353944473;0.0009148877702759867;0.04320893239522789;0.089731824207199;0.02849510771288644;0.0008119711635690003;0.042856953316830586;-1.025543980057589;0.4177296698265628;-0.5621423588529613;0.0
0.012551338645564174;3.868176544875116;0.00015753610179563272;0.009686958295095327;0.01687220075879431;1.1763416554008816;0.0002846711584450592;0.013255837666972692;0.04239550399423305;0.3705014182448707;0.0017973787589250308;0.05238605078005509;0.13561741613133468;0.02811754345804033;0.0007905962501147866;0.043750187611055924;-1.0779751795530583;0.42555422315320324;-0.31891186248341213;0.0
0.012767619289726136;3.826347813766892;0.0001630121023273869;0.010579178138064627;0.0163180633169;1.430897520880599;0.0002662791904143574;0.013255837666972692;0.04420445638180225;-0.8797097893183283;0.0019540339640106577;0.056847149994901605;0.1305190170286529;0.026253161497582184;0.0006892284886181317;0.043429787651096105;-1.398980671937062;0.4436735364905337;-0.02730471203325921;0.0
0.01583342752842487;0.5254718366308698;0.00025069742729788254;0.010579178138064627;0.01625279931478229;1.4133101373562056;0.0002641534855665877;0.013255837666972692;0.04203179232521195;-1.4439798482201514;0.0017666715660697467;0.07010298766187407;0.1182828591822167;0.025467836753964468;0.0006486107089265833;0.034596206822029255;-1.458301046541873;0.49572310918323337;0.15687660436893078;0.0
0.015006297648808902;-0.5596666619936437;0.00022518896912464758;0.019628836545324702;0.016187272182761926;1.4538675139656547;0.00026202778071881806;0.012745997756704486;0.04353052976429525;-1.4250913306484365;0.0018949070215601947;0.07175996737024559;0.1223615784643621;0.02321927832928784;0.0005391348861329358;0.029651450631559037;-0.5774142396102354;0.4932463534151565;0.5658482050516965;0.0
0.01430391484118067;-0.7752951063778214;0.0002046019797837486;0.017844396859386075;0.016116820102069013;1.567454584049367;0.00025975189020245587;0.012745997756704486;0.04800446522544025;-0.41896938968333786;0.002304428681580503;0.06309268889568664;0.1529519730804526;0.02324582502187654;0.0005403683809477014;0.029651450631559037;-0.5660379567909339;0.4936745322789551;0.5697212201110228;30.0
0.014687263845236375;-1.5747550324494324;0.0002157157192595876;0.024344855715305275;0.016070878600873303;1.8681733171277588;0.0002582731390040074;0.012236157846436335;0.042969588057847445;-0.09131356513288173;0.0018463854978611055;0.05761190986030373;0.1468338941572345;0.022085540020688733;0.0004877710780054436;0.02192686729635287;0.8930887251673626;0.5084973911123182;1.1032443664452536;30.0
0.015430649261246135;-1.715097137246038;0.0002381049366235959;0.0279137350871825;0.013846636236784298;3.3972169360966222;0.00019172933507382803;0.00841235851942479;0.035905384935734044;0.3221575450595558;0.0012891966673832373;0.03976751300091762;0.1208320587335576;0.020820692180739505;0.0004335012228851071;0.005481087957518831;3.215180571258621;0.5114915802433225;1.6604916944571948;30.0
0.024092655652002054;2.2967678451120546;0.0005804560563659464;0.023962475782604173;0.025582247360368203;3.8050435234873254;0.0006544513800070659;0.011471397981033638;0.03338592920040153;0.6617885204541248;0.0011146202685742236;0.03976751300091762;0.1152238197206076;0.027996506445818997;0.0007838043731707846;0.02192686729635287;0.2152261117420084;0.5974817725693445;1.1748099735609718;30.0
0.02547975641747383;0.40844416093824015;0.0006492179870937988;0.0196288365453247;0.0255404409205393;3.6293806534910615;0.0006523141224155584;0.013255837666972248;0.031466114302708396;0.922939473683365;0.00099011634931111;0.03976751300091762;0.1029876618741714;0.027668747146164133;0.0007655595686383659;0.022710330760245805;0.17689627174626768;0.5789641002132043;1.1046893709256034;30.0
0.027161917602493296;0.14160700232191306;0.0007377697678446351;0.032374834302029025;0.02849073127697388;0.28559550839063724;0.0008117217686967376;0.03110023452635846;0.03421646684186304;0.5450830293362705;0.0011707666031403128;0.04206179259712445;0.1182828591822167;0.026775464177818023;0.0007169254819376162;0.03394087284058869;-0.6321144548137495;0.5053565739177841;0.7378114173309188;30.0
0.025303222283993898;0.6325085159120414;0.0006402530579532053;0.0193739165901906;0.027705002835779806;1.3988830378732473;0.0007675671821305672;0.015040277352910969;0.03964691495841065;0.09069526343136099;0.0015718778657194462;0.04843479147547662;0.1345977363107983;0.026629818525432135;0.0007091472346974485;0.03164140425551268;-0.37597981760084104;0.5114870652161023;0.8758626908201624;30.0
0.02342947228276848;0.3411925552698837;0.0005489401714490164;0.026001835423676876;0.029993583364688485;1.1678927027430828;0.0008996150430545177;0.015040277352910969;0.041833668646064776;-0.1847650101797425;0.0017500558323887431;0.060161109411644674;0.1345977363107983;0.025961718564336992;0.0006740108308138401;0.029200746918445333;-0.3111492166282197;0.4848369989867768;0.7718629525475116;30.0
0.02709783002344531;-0.18221811621606676;0.0007342923919795342;0.03059039461609045;0.029798823422523543;0.9381704822095003;0.0008879698773667376;0.021413276231263323;0.043435780493610944;-0.22671181204509847;0.001886667027089153;0.06474966860405823;0.1345977363107983;0.022909563051497182;0.0005248480792105248;0.02736818276293221;-0.14964048118746323;0.40149323273247656;1.0347961937801191;30.0
0.026913023267370155;-0.1789195106858088;0.0007243108213900074;0.03059039461609045;0.029562948972597942;1.0316936835339194;0.0008739679519564297;0.01835423676965442;0.04150888764844096;1.1817714019384806;0.0017229877538108944;0.054297950443560596;0.1345977363107983;0.02602958183789035;0.0006775391306554311;0.028708522955981246;-0.2146322089780201;0.47617187009508416;0.5196376223224274;30.0
0.026406010699145232;0.016030132853408423;0.0006972774010433725;0.025491995513408725;0.03115103772256653;0.5481296304480188;0.000970387151192763;0.021413276231263323;0.0271923116008763;0.11681494636399796;0.0007394218101991519;0.023197715917201926;0.0805547058223717;0.023597826143539568;0.0005568573987007196;0.018812625632224834;1.7401940870515742;0.4825781793779637;1.0493976556998572;30.0
0.026739254985760918;-0.10065455305954123;0.00071498775719354;0.026256755378810975;0.03153694019051122;0.43604157806071797;0.0009945785965798815;0.026001835423677178;0.024034324197647883;0.7333110484075759;0.0005776487396376425;0.023197715917201926;0.0805547058223717;0.02390396363004933;0.000571399477226721;0.019627451933329917;1.5893085612111508;0.4926828759997166;1.0343074079208414;30.0
0.03399680418086804;-0.17913957934590843;0.0011557826945122866;0.032629754257163225;0.03416430437622371;-0.06955265655025807;0.0011671996935112587;0.03390435403283393;0.025707258756654295;1.4290268647914703;0.000660863152781579;0.023197715917201926;0.0876924645661261;0.0271158051936384;0.0007352668912993473;0.032466327635143497;-0.4613929848566265;0.5022633901926921;0.5263476133813985;30.0
0.031366827504429866;1.1296403741951349;0.000983877867692658;0.026256755378810975;0.025695178396066498;0.6092767481504292;0.0006602421928056826;0.027276435199347582;0.027095485081437765;-0.07001708684103036;0.0007341653117984165;0.03900275313551535;0.0876924645661261;0.02343212556139344;0.0005490645083249078;0.022926758703227045;0.2575947164530297;0.5085044422328929;0.6873159215645966;0.0
0.03234616262589642;0.5592792460897148;0.0010462742366209384;0.026256755378810975;0.02762566088820643;0.476083335269283;0.0007631771395101783;0.037218313449576906;0.02789279430755664;-0.7931198053587666;0.0007780079742836641;0.042826552462526646;0.0876924645661261;0.023549889867932283;0.0005545973127917397;0.023990854393055885;-0.009500405830695715;0.49880183186954835;0.5031981355281661;0.0
0.02973162861074865;1.2310835287172648;0.0008839697398474876;0.025746915468542825;0.020089964042439654;-1.3603250343835376;0.0004036066552265182;0.03339451412256536;0.028751837000574543;-1.2356609389262176;0.0008266681309076073;0.0430814724176607;0.0876924645661261;0.021941429765333136;0.0004814263401470469;0.022926758703227045;1.4208383370811848;0.48717971741295263;0.7921034923889155;0.0
0.028996900558275408;1.6953770942447761;0.0008408202419865126;0.025746915468542825;0.021580479460551527;-1.054092736250929;0.0004657170937472863;0.032884674212297516;0.024988282179625163;-1.0574330691313811;0.0006244142462885724;0.035433873763638074;0.0734169470786172;0.02184651751467889;0.0004772703275191715;0.022590751599881262;1.8063334770657147;0.4973765776965366;0.9887379010569867;0.0
0.02946700221160824;1.3517777144230922;0.000868304219338925;0.029060874885285977;0.020941673883278746;-0.8166336082217244;0.0004385537050335991;0.02944325481798718;0.023798355174375695;-0.4440863777783193;0.0005663617090057345;0.0244723156928724;0.0723972672580808;0.022181452284468564;0.0004920168254481558;0.023990854393055885;1.2783296281663763;0.496639849382766;0.8454720240512744;0.0
0.02317862797462971;1.1918501698739479;0.000537248794786287;0.029060874885285977;0.02623152625700167;1.3501101815861694;0.0006880929697717682;0.029060874885286136;0.019150203581560138;1.007139595227919;0.0003667302972151987;0.0127459977567044;0.06627918833486271;0.023996791912246268;0.000575846022079648;0.026018001792565436;-0.1432353411538969;0.513647893603492;0.6003033090921863;60.0
0.023241344328765335;0.1211690065911861;0.0005401600862082326;0.028551034975017806;0.024759772746342213;1.7641106827897812;0.0006130463464505107;0.02268787600693367;0.0215453195875967;1.5758417780632001;0.000464200796131678;0.020393596410727053;0.07953502600183529;0.02304066496391832;0.0005308722419795331;0.03555093221676551;-0.8758101722503062;0.4346892571867219;0.33208513791780886;60.0
0.022927306706571438;0.2446196902060862;0.0005256613928171956;0.02727643519934738;0.029526730367228023;0.7157401180573777;0.0008718278061789855;0.029060874885286136;0.02339814037470298;1.6179233361312495;0.0005474729729943057;0.0257469154685429;0.0734169470786173;0.024754070728247892;0.0006127640176190991;0.034098835174994714;-1.1472630141930797;0.41982366663272286;-0.03255911765952717;60.0
0.04110390502064255;3.36940689605427;0.0016895310079460039;0.03594371367390638;0.030565647929309145;0.2972318949385898;0.0009342588333384803;0.03670847353930873;0.027993053691881088;-0.5847672117426832;0.0007836110549965374;0.034924033853370076;0.07545630671969;0.027624150667224984;0.0007630937000855466;0.03707214099489194;-0.49511279159310106;0.41056168500489687;0.006429084228722169;60.0
0.03617844184768951;4.755812487809082;0.0013088796545266512;0.0316100744366269;0.03381506772327856;-0.10446636752142727;0.0011434588051299156;0.040277352911185726;0.028009556842184556;-0.42382540950905323;0.0007845352744955677;0.033649434077699644;0.07545630671969;0.026582825101824595;0.0007066465903941958;0.026703445327903072;0.16615641848613955;0.42105983853769274;0.4507929765598482;60.0
0.03844266551233303;2.045120360665849;0.0014778385316931196;0.035178953808504124;0.03390275675238204;-0.12379453842196904;0.0011493969154111857;0.040277352911185726;0.027356869193741532;-1.0543715879203803;0.0007483982920834845;0.038747833180381344;0.07545630671969;0.022133777054778366;0.0004899040867106333;0.025578560804312714;0.5351975771232337;0.32825329999325015;0.9943496547929515;60.0
0.036841044302528714;1.8637148957514467;0.0013572625453008834;0.03747323340471083;0.03348272230947453;0.5809528289625457;0.0011210926932533835;0.03454165392066874;0.02491767764958287;-0.9553112604917858;0.0006208906594485216;0.03135515448149277;0.0693382277964719;0.022473829421040353;0.000505073008846019;0.026703445327903072;0.4238369477345846;0.33556518750631625;0.9870159330027722;60.0
0.0531501144166659;1.3002660996849928;0.0028249346625046764;0.03976751300091755;0.03324101477084156;0.6351972564996758;0.0011049650629953065;0.031992454369328044;0.02756197048884415;-1.326013916919172;0.0007596622172279158;0.04333639237279491;0.0764759865402264;0.03426336446339383;0.001173978144351359;0.036316309655976126;1.5398836133224865;0.4438269344193983;1.309888135673794;60.0
0.06062890033030319;-0.8750173896857473;0.003675863555261838;0.08233914550831029;0.03365715803833798;0.43826841528155974;0.0011328042872176588;0.031992454369328044;0.02726444100050525;-1.3496382638189475;0.0007433497430700316;0.04333639237279491;0.0744366268991537;0.033211292800382146;0.0011029899694727152;0.04825866251758714;0.40916812800708663;0.3937705282472285;0.9640866029621977;60.0
0.057590098419682996;-1.019932313359815;0.003316619435988774;0.08106454573263985;0.0352199387962189;-0.4578094067663915;0.0012404440888094054;0.046905271744672156;0.026827033453120697;-1.2074384089489796;0.000719689723894857;0.04129703273172221;0.0744366268991537;0.03190291786308602;0.0010177961681788132;0.0403733764611276;0.6689046777627691;0.36870553746516666;0.9173968917698433;60.0
0.056978928176945325;-0.9433485789132661;0.003246598256193494;0.07902518609156718;0.026667275483535494;-0.6469514374420677;0.0007111435817147733;0.025746915468542825;0.031598011405820844;-0.10590115496008425;0.0009984343248023843;0.0390027531355154;0.1060467013357806;0.03363128723707081;0.0011310634812223622;0.04508430307632719;-0.6003407700378699;0.367508909437184;0.4241372476692581;60.0
0.049234570192666055;-0.9791881171364294;0.0024240429020565605;0.06449474864892427;0.025700123602191382;0.5557860057871865;0.0006604963531679145;0.005608239012949712;0.032455091481072465;-0.6457035303263154;0.0010533329630447823;0.04410115223819722;0.1060467013357806;0.03347921869045995;0.001120858084123643;0.04489940286868238;-0.6796168731301963;0.3557695615973336;0.155131254989999;60.0
0.04401795052864209;-0.6446608257009174;0.0019375799687419823;0.05786682981543796;0.0254684753782564;-0.706663743470931;0.0006486432380928525;0.030335474660956513;0.03203825414042937;-0.4210483577479164;0.0010264497283667396;0.04410115223819722;0.1060467013357806;0.033579119844403545;0.0011275572895248157;0.04489940286868238;-0.7007826636575258;0.359175529835761;0.22030235838044956;60.0
0.04335791360296865;-0.025279100168258344;0.001879908672002494;0.04155195268685627;0.03217377554138322;-0.16653219273982448;0.0010351518325873088;0.030335474660956513;0.03154403692300196;-0.13827071330351157;0.0009950262653997107;0.041551952686856346;0.1060467013357806;0.033002432518671306;0.0010891605521494534;0.04225932532191755;-0.39864057393299035;0.35783895379758;0.34868725130107486;60.0
0.04411927288216979;-0.023454804637882125;0.0019465102396513628;0.04155195268685627;0.030755364512268853;0.47744302714480924;0.0009458924462825263;0.030335474660956513;0.03057759873469288;-0.009614898860080854;0.0009349895443798915;0.040022432956051845;0.1060467013357806;0.029588341178405985;0.0008754699336897552;0.029439490420694478;0.3252437859639191;0.3047907751684318;0.2521633829061809;60.0
0.045974915796204927;-0.29135460612024133;0.002113692882468133;0.048179871520342574;0.030935143126723838;0.45928078657952653;0.0009569830802708891;0.034414193943101995;0.03390940094453088;-0.8391275624876917;0.0011498474724169518;0.046395431834404;0.1060467013357806;0.03601717953915288;0.0012972372219555725;0.029439490420694478;0.5055163943889462;0.38608801613306304;-0.4173776286860092;60.0
0.06658406426510131;1.474130583857324;0.004433437614059141;0.05238605078005493;0.04152280130464098;0.6082998039222522;0.0017241430281846944;0.04843479147547672;0.03497768502956186;-1.124975992654578;0.001223438450027236;0.05378811053329252;0.1060467013357806;0.036385628736345196;0.0013239139785391496;0.03199482017184839;1.4173477584591387;0.35261560370722506;-0.7211711815797811;60.0
0.06484396270296952;0.20079506862456903;0.004204739499024103;0.06360252880595481;0.04111388150918618;0.7527334445124916;0.0016903512527514008;0.04843479147547672;0.03677454377884187;-1.0759707033437766;0.0013523670701419575;0.0593963495462425;0.1060467013357806;0.03241444093977092;0.001050695981437897;0.028023759769628412;2.0873618975697243;0.337676194213034;-0.7123914512384523;60.0
0.05547827199775156;0.6121004618575603;0.0030778386638565043;0.054935250331395805;0.03981904461818624;1.7015921691338372;0.001585556314305107;0.034414193943101995;0.043783247505176495;-0.2343061809705078;0.0019169727620995437;0.0593963495462425;0.1478535739777709;0.03811507215608213;0.0014527587254633473;0.023769403645368933;0.07336281795954237;0.4349672172628433;-0.3869024795915703;60.0
0.05311915867862853;-0.013308539413105993;0.0028216450187253167;0.06016110941164465;0.040286171961010316;2.612430584023307;0.0016229756512720936;0.022432956051799735;0.04568527856277656;-0.8081245914709153;0.0020871446773584913;0.06678902824513104;0.1478535739777709;0.03884609628106033;0.0015090191962774092;0.03567116637059453;-0.29743287710709304;0.4514858728662717;-0.2461857781930954;60.0
0.05567740763414081;-1.0478252999039555;0.0030999737208582813;0.08616294483532165;0.04311168014927739;1.8213948788536771;0.0018586169652935979;0.041806872641990345;0.041302312629210386;-1.0093181059464642;0.001705881028521032;0.06678902824513104;0.11981237891302121;0.039394753570521954;0.0015519466088821524;0.03567116637059453;-0.38616451250961653;0.455325017884705;-0.2279588508584614;60.0
0.0706342261535689;0.5805149695258274;0.004989193904313518;0.08616294483532165;0.043851369903642745;1.0293523885268985;0.0019229426424261047;0.05251351075762209;0.040579363839372135;-1.1691579501011813;0.0016466847696081429;0.05863158968084021;0.11981237891302121;0.04158953302433709;0.001729689257182426;0.05439586211094992;-0.8145160061155607;0.4661464694966722;-0.2780126506028953;60.0
0.06785873655234748;1.7091629778928774;0.004604808126480899;0.07328948710105025;0.04356273005795868;1.1973561029383077;0.0018977114501025766;0.05251351075762209;0.04693854116221222;-0.8352942348798064;0.002203226646436691;0.057611909860303886;0.1391862955032119;0.04341224556704502;0.0018846230651734198;0.06850287898954753;-1.3247308239770905;0.5068938518289972;-0.03666311132645452;60.0
0.06896852463386158;2.4500271749646183;0.004756657390171572;0.07188742734781281;0.03857586509894969;2.224046705096711;0.0014880973681323645;0.03161007443662703;0.0451278246129714;-0.08927878563302068;0.002036520554299107;0.03543387376363818;0.1391862955032119;0.04310856079409802;0.0018583480137384452;0.06821446369628331;-1.2348905187482582;0.5131865233228611;0.10006869764788406;60.0
0.07048578503308885;1.5406574399922894;0.004968245891730812;0.08527072499235236;0.03798921294893451;2.342635755158137;0.0014431803004794936;0.02294279596206819;0.044952861128683526;0.9370326794799736;0.002020759723654706;0.0425716325073926;0.16212909146527982;0.042945283165374326;0.0018442973461541834;0.06439807419001548;-1.098181008192414;0.5292578455646988;0.3409581751641205;60.0
0.0711020861393598;1.2315109287533446;0.00505550665336894;0.0887121443866625;0.03941531132561203;2.090432240770589;0.00155356676689492;0.04002243295605187;0.04482933291569642;1.264931253747209;0.002009669089666343;0.039512593045783556;0.16212909146527982;0.04155249017573238;0.0017266094398043358;0.06439807419001548;-1.1015205318672818;0.5055262463521124;0.43313543956399664;60.0
0.06956630179527021;1.361454015509145;0.004839470345470615;0.0887121443866625;0.02522754644780142;-0.7198316954617207;0.0006364290997759782;0.0323748343020292;0.046151574298271436;1.8558114199452709;0.0021299678102088683;0.050219231161415225;0.16212909146527982;0.036924351312621465;0.0013634077198578906;0.0561888991194843;-1.2423071157191907;0.46678780611715504;0.23835821119343076;0.0
0.06689081056368046;1.7184805973451986;0.004474380537866186;0.07673090649536041;0.02516679603536057;-0.7704735201005707;0.0006333676226854405;0.03262975425716319;0.04682589615238915;1.4374234679538855;0.002192664550474333;0.050219231161415225;0.16212909146527982;0.03865039593660782;0.0014938531060565505;0.06487953442200128;-1.4178578114433844;0.5132221241130985;0.4617915708513417;0.0
0.06606062082810375;2.3936482380855275;0.004364005624194496;0.07023044763944115;0.02668454445981545;-0.9046600409694712;0.0007120649130278675;0.04180687264199037;0.04644352732680307;1.3684745695680118;0.0021570012305555035;0.048179871520342525;0.16212909146527982;0.03848398238183427;0.001481016899965331;0.06487953442200128;-1.4260791487316158;0.5101689460935556;0.47521551830309877;30.0
0.06557405899371868;2.214496020515743;0.004299957212911699;0.06704394820026506;0.023526164152662298;1.0692881414310205;0.0005534803997380125;0.023962475782604215;0.046127912825559426;1.6271387867619092;0.00212778434164241;0.04180687264199035;0.16212909146527982;0.043275010133756744;0.0018727265020767488;0.07125387700356911;-1.4581036205835858;0.614608149482727;0.3521792559922322;30.0
0.06282256210476758;2.6851473495413054;0.00394667430940738;0.034924033853369923;0.016121120405459138;0.497345021241348;0.000259890523127311;0.023962475782604215;0.03125928051144925;-1.2101279189879246;0.0009771426180934708;0.04767003161007442;0.09584990313041691;0.03835859034918665;0.0014713814535767152;0.042269651020709294;-0.32876455541835775;0.6144779604534566;0.781166164314452;30.0
0.038392935049326685;0.8075668226404957;0.0014740174617018176;0.017971856836953175;0.015180739577822963;0.6987977846386438;0.00023045485412968053;0.015741307229529877;0.030888473295427505;-1.0682263644604508;0.000954097782522338;0.042699092484959705;0.09584990313041691;0.0298681146078412;0.0008921042702271368;0.027487502416375202;1.3279954854455858;0.5484492964481633;0.9934357725571343;0.0
0.03807111920524713;0.7820287245094661;0.0014494101175401368;0.017079636993983877;0.013088125527357808;2.0292373184451344;0.00017129902981987509;0.010642908126848205;0.03085474680601974;-1.0599122239004868;0.0009520154004635852;0.042699092484959705;0.09584990313041691;0.0298929540743546;0.0008935887032914734;0.027487502416375202;1.3374080829390604;0.5502540265100531;1.0071669301098751;0.0
0.03274819215427269;5.0846423712605;0.0010724440893731674;0.0100693382277965;0.012918208286760845;2.200390734428017;0.00016688010534013657;0.007966248597940373;0.030510462473599773;-0.542429534085792;0.0009308883203529399;0.039894972978484725;0.09584990313041691;0.02805783737320529;0.0007872422380612356;0.012567953945584562;3.7536634166264102;0.553063323225402;1.5383410200431638;30.0
0.03238457911893435;2.5932955052643174;0.001048760964710519;0.01351075762210665;0.012822386460877687;2.313649782663172;0.00016441359455209942;0.0043973692260631525;0.027634232430147468;-0.3183252036929127;0.000763650802003414;0.0391302131130825;0.0825940654634443;0.028693197255352843;0.000823299568734588;0.012567953945584562;2.9517911609574634;0.5578095971757624;1.414135967597144;30.0
0.029118410955893407;3.6205038386101784;0.0008478818565962931;0.011981237891302125;0.00898827341626121;2.4096530810872068;8.078905900546794e-05;0.007328948710105199;0.027500968291791536;-0.15135196294572748;0.0007563032569861234;0.03811053329254615;0.0825940654634443;0.0289512807908743;0.0008381766594320472;0.015599527901345653;2.840666492332216;0.5672846077451076;1.40941301428205;30.0
0.022085479242184305;1.1741212429887966;0.0004877683933569538;0.011981237891302125;0.009659339864247517;4.39964029394072;9.330284661304124e-05;0.0043973692260631525;0.025660310160368186;-0.16603617025594022;0.0006584515175262948;0.03696339349444273;0.0739267869888853;0.02053224618430898;0.00042157313337307063;0.015599527901345653;0.14415746789340897;0.4341055334912239;0.23659219958436906;0.0
0.02254750631287341;1.434946817440593;0.0005083900409290662;0.008157438564290777;0.01304599206393902;0.7987835599985159;0.00017019790893235988;0.007328948710105199;0.025364158348290436;0.5079129527486828;0.0006433405287171514;0.025874375446109953;0.0876924645661262;0.024188751546859455;0.0005850957013956957;0.03454695357287711;-0.7277247628105437;0.46627507604613855;0.11536402366306313;0.0
0.02319482104111278;1.3729902565461904;0.0005379997231292482;0.009049658407260103;0.02393298816926009;5.54590107503159;0.0005727879227099436;0.004397369226063486;0.027103638210513176;0.09453988834094217;0.0007346072042463898;0.021030896298562203;0.0876924645661262;0.028879660520798378;0.0008340347917965605;0.031790139844734465;-0.3102347786465159;0.4819600545306007;0.1919385707792164;0.0
0.022721045457258855;1.4580744236575265;0.0005162459066708233;0.008029978586723729;0.02812301058708129;3.184673320827162;0.0007909037244810863;0.007966248597940706;0.021839366140165992;-0.08930812646677312;0.0004769579134042288;0.013000917711838457;0.0642398286937902;0.02367818519720794;0.0005606564542332771;0.031059667601194572;-0.3611739046398788;0.3610403059377975;0.5418677575817821;0.0
0.04909558031243396;5.416429416684947;0.002410376006214653;0.008029978586723729;0.028888978794866835;2.1165590394110683;0.0008345730958102657;0.015805037218313667;0.026276465091031938;-1.0258441031778445;0.00069045261768022;0.03607117365147342;0.0754563067196901;0.03389579505691581;0.0011489249225404385;0.03720042567586765;0.8788744789231069;0.4501443108662274;0.9663234241660804;30.0
0.049166710446968784;5.483459174488843;0.002417365416176069;0.008922198429693027;0.0295072708026946;1.37085047785164;0.0008706790302235532;0.024408585704089047;0.028142259934242977;-1.6348989285533067;0.0007919867942064975;0.0429540124400938;0.0754563067196901;0.03323477331530969;0.001104550157320021;0.038944142306270996;0.5739844881413306;0.41757560894646845;0.6158402741532163;0.0
0.05104086310560347;5.059811103637904;0.0026051697065649537;0.034924033853370035;0.02968332200201182;1.3067764781172744;0.000881099605075119;0.02632048536759457;0.02775333166806726;-1.4456396552560145;0.000770247418677745;0.042699092484959726;0.0754563067196901;0.03144403336929661;0.0009887272345294386;0.0214270986360119;1.1058553809821998;0.3768163845722105;0.3980984098201964;90.0
0.05436382796685631;4.45919751955535;0.002955425791209948;0.04792495156520851;0.029705789788807904;1.1719695605528944;0.0008824339469768439;0.02632048536759457;0.028307417021038235;-1.6334782268507253;0.0008013098584029652;0.04614051187926992;0.0754563067196901;0.028863859703417954;0.0008331223969785949;0.01481992993334029;2.3692897669035418;0.32931549306648683;0.22607826326647135;90.0
0.05852881735813218;3.34696037792299;0.003425622461341595;0.05519017028652998;0.029741741787735827;1.1656478753665829;0.0008845712045683515;0.02632048536759457;0.028913712107714807;-1.7806797530816685;0.0008360027478478139;0.04996431120628125;0.0754563067196901;0.029357625352365274;0.0008618701663298403;0.02307296315853312;1.9397524137108764;0.3233170213140293;-0.12987271610502285;90.0
0.06076986141932179;3.222476742443144;0.0036929760569235745;0.06258284898541852;0.03242073419202388;0.2892051976915947;0.0010511040055498663;0.0434001223615785;0.026462825140472435;-1.5515916146695576;0.0007002811144152199;0.045375752013867676;0.0754563067196901;0.021089113838138603;0.00044475072247796916;0.018971991897124313;2.780590222481474;0.21643580165899337;1.3457907071207256;0.0
0.06384350268134775;2.579141418232427;0.004075992834623257;0.06602426837972875;0.034047229834487984;-0.4772559190525035;0.0011592138594024486;0.04537575201386765;0.025630071433366833;-1.7420567908985671;0.0006569005616794865;0.045375752013867676;0.0703579076170083;0.021110014225666728;0.00044563270060785163;0.020922908412535787;1.522584438679188;0.20861141030443964;0.8689063323573605;0.0
0.07056631722720892;2.257216194618461;0.004979605127011083;0.07877026613643313;0.03198610613104545;0.1728191619532414;0.0010231109854265037;0.027021515244213257;0.025486103349050007;-1.4680037004495137;0.0006495414639184579;0.04410115223819719;0.0703579076170083;0.024695503936008258;0.0006098679146533994;0.02518185059702137;-0.2954407934110864;0.23104385481653741;0.4812386899701918;0.0
0.0818184780632528;2.03723674674562;0.006694263352586981;0.07290710716834914;0.024731527742099337;-0.06915574538091818;0.0006116484644582292;0.02421739573773829;0.031125762478346804;0.37877722737442;0.0009688130898584618;0.028551034975017882;0.10706638115631689;0.03768706960063592;0.0014203152150831762;0.047688687696037096;1.1604743552099717;0.3261685077091349;1.1323049506223246;0.0
0.0797136506777931;3.1632709549154154;0.006354266104381224;0.04359131232792898;0.019528044398854305;2.042813602619051;0.00038134451804362497;0.01835423676965431;0.046784429339026976;1.4392722903651805;0.002188782828578408;0.03161007443662693;0.16110941164474352;0.034671690906130044;0.0012021261502902206;0.04322965859560493;1.785588304156499;0.29247064380398324;1.4431938052111128;0.0
0.04660260919165017;1.743500506770968;0.002171803183469677;0.03186499439176094;0.01895007879530345;2.1017332279817387;0.0003591054863482095;0.013000917711838478;0.04673513971121722;-0.03951182020173657;0.002184173283826993;0.044356072193331236;0.1529519730804526;0.0340842818904087;0.0011617382719848425;0.023265686473920175;3.881335817847911;0.3012754674614325;1.9809407289578045;60.0
0.04483194210300341;1.9141640103794333;0.0020099030327270498;0.03186499439176094;0.01799059944972372;2.907542438685959;0.00032366166856039936;0.011981237891302232;0.057210106411669494;0.1776595500947045;0.003272996275634547;0.0695931477516059;0.17844396859386152;0.033480091581512765;0.0011209165323064821;0.02639686351855018;3.483933055949675;0.28911422164444384;1.8171943606776324;60.0
0.048341409696904335;1.275595020928028;0.0023368918914839568;0.03186499439176094;0.017974217051926557;3.1772864476732434;0.0003230724786297675;0.013000917711838478;0.074434376430218;0.1646288492444238;0.005540476394555393;0.0933007035790761;0.21617212195370641;0.03679629147719578;0.0013539670664747506;0.040241932819167714;0.14948639015199205;0.2949722438391944;1.132186071159398;60.0
0.04897793077914236;1.1733306288562997;0.0023988377034064603;0.039002753135515406;0.0179433390212338;2.9894308604564706;0.00032196341523093154;0.011981237891302232;0.0772738966472728;-1.140857461013512;0.005971255103053399;0.13357805649026197;0.21617212195370641;0.034917026166385236;0.0012191987163040314;0.0425604289688839;-0.1127169765435657;0.2688990107299715;0.9242631407223387;60.0
0.05275930315951688;0.955138560642104;0.0027835440698778077;0.05786682981543794;0.018284868163981904;2.430151972519261;0.000334336403774199;0.013000917711838644;0.07665787749770336;-1.4993612001462435;0.005876430182452895;0.13587233608646876;0.21617212195370641;0.03421138322040118;0.0011704187418531476;0.040285044325104755;-0.06111223174742112;0.26017515848659556;0.8332644945439172;60.0
0.05631183796366662;0.6658660388081513;0.0031710230948462453;0.06959314775160597;0.013214812686594158;3.9601757597569676;0.00017463127434176988;0.011981237891302232;0.06978133901366995;-1.1612817514649296;0.004869435274540737;0.10120322218823286;0.20699500356887932;0.03311252734642259;0.0010964394672675838;0.03125995874674141;0.14058242529897416;0.24947080967080593;0.8787220309759953;60.0
0.05631183796366662;0.6658660388081513;0.0031710230948462453;0.06959314775160597;0.013214812686594158;3.9601757597569676;0.00017463127434176988;0.011981237891302232;0.06978133901366995;-1.1612817514649296;0.004869435274540737;0.10120322218823286;0.20699500356887932;0.03311252734642259;0.0010964394672675838;0.03125995874674141;0.14058242529897416;0.24947080967080593;0.8787220309759953;60.0
0.05631183796366662;0.6658660388081513;0.0031710230948462453;0.06959314775160597;0.013214812686594158;3.9601757597569676;0.00017463127434176988;0.011981237891302232;0.06978133901366995;-1.1612817514649296;0.004869435274540737;0.10120322218823286;0.20699500356887932;0.03311252734642259;0.0010964394672675838;0.03125995874674141;0.14058242529897416;0.24947080967080593;0.8787220309759953;60.0
0.05631183796366662;0.6658660388081513;0.0031710230948462453;0.06959314775160597;0.013214812686594158;3.9601757597569676;0.00017463127434176988;0.011981237891302232;0.06978133901366995;-1.1612817514649296;0.004869435274540737;0.10120322218823286;0.20699500356887932;0.03311252734642259;0.0010964394672675838;0.03125995874674141;0.14058242529897416;0.24947080967080593;0.8787220309759953;60.0
0.05631183796366662;0.6658660388081513;0.0031710230948462453;0.06959314775160597;0.013214812686594158;3.9601757597569676;0.00017463127434176988;0.011981237891302232;0.06978133901366995;-1.1612817514649296;0.004869435274540737;0.10120322218823286;0.20699500356887932;0.03311252734642259;0.0010964394672675838;0.03125995874674141;0.14058242529897416;0.24947080967080593;0.8787220309759953;60.0
0.026542215456170023;0.5804680489611697;0.0007044892013217509;0.03199245436932788;0.008665612170886057;0.2481048182586473;7.509283429620855e-05;0.004333639237279585;0.011355182643113203;0.7546722040888321;0.00012894017285845937;0.0104517181604976;0.034669113898235904;0.01142231170733552;0.00013046920473953408;0.013634921469425909;-0.677094042500272;0.17624819768199118;0.7212796484812856;60.0
0.026542215456170023;0.5804680489611697;0.0007044892013217509;0.03199245436932788;0.008665612170886057;0.2481048182586473;7.509283429620855e-05;0.004333639237279585;0.011355182643113203;0.7546722040888321;0.00012894017285845937;0.0104517181604976;0.034669113898235904;0.01142231170733552;0.00013046920473953408;0.013634921469425909;-0.677094042500272;0.17624819768199118;0.7212796484812856;60.0
0.026542215456170023;0.5804680489611697;0.0007044892013217509;0.03199245436932788;0.008665612170886057;0.2481048182586473;7.509283429620855e-05;0.004333639237279585;0.011355182643113203;0.7546722040888321;0.00012894017285845937;0.0104517181604976;0.034669113898235904;0.01142231170733552;0.00013046920473953408;0.013634921469425909;-0.677094042500272;0.17624819768199118;0.7212796484812856;60.0
0.026542215456170023;0.5804680489611697;0.0007044892013217509;0.03199245436932788;0.008665612170886057;0.2481048182586473;7.509283429620855e-05;0.004333639237279585;0.011355182643113203;0.7546722040888321;0.00012894017285845937;0.0104517181604976;0.034669113898235904;0.01142231170733552;0.00013046920473953408;0.013634921469425909;-0.677094042500272;0.17624819768199118;0.7212796484812856;60.0
0.026542215456170023;0.5804680489611697;0.0007044892013217509;0.03199245436932788;0.008665612170886057;0.2481048182586473;7.509283429620855e-05;0.004333639237279585;0.011355182643113203;0.7546722040888321;0.00012894017285845937;0.0104517181604976;0.034669113898235904;0.01142231170733552;0.00013046920473953408;0.013634921469425909;-0.677094042500272;0.17624819768199118;0.7212796484812856;60.0
0.026542215456170023;0.5804680489611697;0.0007044892013217509;0.03199245436932788;0.008665612170886057;0.2481048182586473;7.509283429620855e-05;0.004333639237279585;0.011355182643113203;0.7546722040888321;0.00012894017285845937;0.0104517181604976;0.034669113898235904;0.01142231170733552;0.00013046920473953408;0.013634921469425909;-0.677094042500272;0.17624819768199118;0.7212796484812856;60.0
0.026352635916683412;0.8045473990549985;0.0006944614197572726;0.028933414907718828;0.010434778853885801;-0.18007182609764172;0.00010888460972950226;0.008157438564290964;0.022264955283861583;4.337585332397528;0.0004957282337923559;0.01300091771183845;0.0836137452839807;0.015732497071515198;0.0002475114641052343;0.016290601689834587;0.530199741843058;0.2549295051801218;-0.38144283698372694;60.0
0.026481209056142912;1.2651997063421578;0.0007012544330751453;0.026639135311512026;0.011852970792014016;-0.998609663776311;0.0001404929165963374;0.01784439685938613;0.02351634091410682;3.581712084598467;0.0005530182899884945;0.023070255939634923;0.0836137452839807;0.016434622337178236;0.0002700968113656778;0.021262570849854286;0.1701540761891128;0.25939608149016563;-0.6006894606831084;60.0
