acc_X_std;acc_X_kurt;acc_X_var;acc_X_iqr;acc_Y_std;acc_Y_kurt;acc_Y_var;acc_Y_iqr;acc_Z_std;acc_Z_kurt;acc_Z_var;acc_Z_iqr;acc_Z_range;acc_std;acc_var;acc_iqr;acc_kurt;acc_cv;acc_skew;class
2.00853173832271;0.672728047466474;4.034199743849649;2.1507382784337192;1.3811574406503444;-0.9103856913479166;1.9075958758638099;1.9915732090476679;0.06697536366861609;-0.7922377886985176;0.00448569933854338;0.07392678698888552;0.19577852554297942;1.6997772408936114;2.8892426686598984;1.8362210368833753;1.246460853098526;0.5816806654959525;0.8233621957734756;0.0
2.00853173832271;0.672728047466474;4.034199743849649;2.1507382784337192;1.3811574406503444;-0.9103856913479166;1.9075958758638099;1.9915732090476679;0.06697536366861609;-0.7922377886985176;0.00448569933854338;0.07392678698888552;0.19577852554297942;1.6997772408936114;2.8892426686598984;1.8362210368833753;1.246460853098526;0.5816806654959525;0.8233621957734756;30.0
2.00853173832271;0.672728047466474;4.034199743849649;2.1507382784337192;1.3811574406503444;-0.9103856913479166;1.9075958758638099;1.9915732090476679;0.06697536366861609;-0.7922377886985176;0.00448569933854338;0.07392678698888552;0.19577852554297942;1.6997772408936114;2.8892426686598984;1.8362210368833753;1.246460853098526;0.5816806654959525;0.8233621957734756;0.0
2.00853173832271;0.672728047466474;4.034199743849649;2.1507382784337192;1.3811574406503444;-0.9103856913479166;1.9075958758638099;1.9915732090476679;0.06697536366861609;-0.7922377886985176;0.00448569933854338;0.07392678698888552;0.19577852554297942;1.6997772408936114;2.8892426686598984;1.8362210368833753;1.246460853098526;0.5816806654959525;0.8233621957734756;0.0
2.00853173832271;0.672728047466474;4.034199743849649;2.1507382784337192;1.3811574406503444;-0.9103856913479166;1.9075958758638099;1.9915732090476679;0.06697536366861609;-0.7922377886985176;0.00448569933854338;0.07392678698888552;0.19577852554297942;1.6997772408936114;2.8892426686598984;1.8362210368833753;1.246460853098526;0.5816806654959525;0.8233621957734756;0.0
2.00853173832271;0.672728047466474;4.034199743849649;2.1507382784337192;1.3811574406503444;-0.9103856913479166;1.9075958758638099;1.9915732090476679;0.06697536366861609;-0.7922377886985176;0.00448569933854338;0.07392678698888552;0.19577852554297942;1.6997772408936114;2.8892426686598984;1.8362210368833753;1.246460853098526;0.5816806654959525;0.8233621957734756;30.0
1.6636426408984646;1.1616730047342227;2.7677068366156177;1.6781315402305683;1.2190527348960585;-0.8902503412470553;1.4860895704575596;1.752432951215959;0.06548394780880014;-0.5921950478792175;0.004288147420625661;0.06627918833486288;0.19577852554297942;1.1340717475951267;1.2861187286934648;1.669348267947168;-1.2708179072583075;0.4420711667927896;-0.549664844179001;30.0
1.7016450815306343;1.03616089986933;2.895595983497399;1.8511723029528726;1.0729477917853052;-0.87209550447456;1.1512169638969625;1.5373542109025602;0.06553905618378887;-0.5297410101874865;0.0042953678854618345;0.06627918833486288;0.19577852554297942;1.0794838606554944;1.165285405415691;1.4708592742322886;-1.125219768548911;0.4311033936436013;-0.5790641038677733;30.0
1.8337288188638161;0.5808882615531944;3.362561381131686;2.281218942046652;0.9428266926197025;-0.8580857378167792;0.8889221723162071;1.3463369881074712;0.06036230856043937;0.07611394031323979;0.0036436082947456927;0.03262975425716325;0.19577852554297942;1.1777406749465595;1.3870730974235774;1.6003544883346608;-1.1263547694633051;0.45576844857882626;-0.35238144324124526;30.0
2.165770586546411;0.21701732991906095;4.690562233549586;2.4359881899534788;0.8286867843969791;-0.8511218298909223;0.6867217866342052;1.1793812828306913;0.06070345421480237;-0.03867961088407006;0.003684909353608607;0.04053227286631993;0.19577852554297942;1.5551619650386448;2.418528737502859;1.8752371529281475;-0.21351328940520226;0.5391288540536678;0.3190715882056546;30.0
2.4764625471586252;-0.3007736191771124;6.132866747479387;2.809610883445578;0.7281361606549426;-0.856629047291154;0.5301822684533203;1.0364870950722225;0.050201212435116715;-0.1857578404748342;0.002520161729955717;0.05557255021923103;0.16212909146527982;1.9048207628446305;3.6283421385640002;2.183577385377111;-0.6463569941571846;0.6053024932318466;0.5143025949355579;30.0
2.618303692677312;0.2227475454342819;6.855514227087649;3.1099469988678963;0.6889375059069017;-0.6519281949556966;0.4746348870452223;0.9176544248320673;0.04187576171520708;-0.8237216268664775;0.001753579419228803;0.04945447129601288;0.1172631793616803;2.08242673775307;4.336501118108894;3.213171851476515;-1.0277690192332776;0.551800202222875;0.3696998954362416;30.0
2.0282177879897154;-1.2433294506985553;4.1136673955178935;3.0370260438902825;0.6439489209432521;-0.8648438122068559;0.41467021278397875;0.8098616919706696;0.037194482250290616;-0.8033790213287842;0.0013834295098671837;0.04945447129601288;0.1111451004384622;2.103125184182288;4.423135540341782;3.18412821075399;-1.2466625272846028;0.4978626622629735;-0.09717727651498928;0.0
1.8479921204110705;-1.697261065452814;3.4150748771014046;3.0854442572974206;0.6696449948626062;-0.6228589678799794;0.4484244191445399;0.9480912805088693;0.04216649703537652;0.48168495271615697;0.0017780134722344167;0.04945447129601288;0.1345977363107983;1.9417222858864256;3.7702854355080055;3.160275435014422;-1.6603678332493321;0.39880674178943953;-0.1426105024409051;0.0
1.599194176529226;-1.936780822337688;2.5574220142449886;2.5855578184302876;0.6698446643992849;-1.1480870740425277;0.4486918744241906;0.906101243248298;0.04216649703537652;0.13786050371033554;0.0017780134722344167;0.04945447129601288;0.1345977363107983;1.6499612091912528;2.7223719918358613;2.6667775333870325;-1.7598859334346753;0.32128953676044064;-0.036256059503236536;0.0
1.7612667987285096;-1.8021088976523505;3.102060736303372;2.9943244079693816;0.6355343656167923;-1.604437605011123;0.4039039298799386;1.0997225282931988;0.040697731103292105;0.3953907299369734;0.0016563053169558694;0.03951259304578347;0.1345977363107983;1.6867519467328091;2.845132129806921;2.9080154563714506;-1.8052685052288016;0.3305238205464039;-0.04658058618493005;30.0
2.0248838590937432;-1.2192375101973316;4.100154642818371;2.9943244079693816;0.6364240814948454;-1.5519119597863213;0.4050356115065577;1.0810250822195169;0.0359137093861339;1.5863937491978553;0.0012897945218716819;0.02676659528907915;0.1345977363107983;1.69117083051866;2.8600587779971742;2.9080154563714506;-1.7995115373415378;0.3315940419446695;-0.05162152028833485;30.0
2.615797718560724;-0.3769644037799245;6.842397704427488;3.528854904601136;0.6783394463017164;-0.9270672037286732;0.4601444044089191;0.9120609508309214;0.029215799121868957;2.3462397770643713;0.0008535629183293989;0.027531355154481477;0.1070663811563168;1.6776494014425212;2.8145075141604496;2.9080154563714506;-1.7997124777542004;0.3282622369891535;-0.041635821649262376;30.0
2.981506319346678;-1.541254697506224;8.889379932304175;4.734972691581708;0.717029366312793;-0.7453109472258558;0.5141311121549256;0.8204991662819612;0.02680290686840186;3.2509270815460574;0.0007183958165962235;0.027531355154481477;0.0917711838482716;1.7416763204334067;3.033436405158451;3.1020717347722586;-1.9909322435853885;0.34604608410750654;0.022232085738957432;30.0
3.3166001339767144;-1.86795401946574;10.99983644869436;6.103072474947027;0.7268878732170322;-0.9291899317342883;0.5283659802299803;1.0696206197603524;0.025055690919630304;4.133481786768992;0.0006277876474600445;0.015295197308045252;0.0887121443866625;1.7576731042120965;3.0894147412705877;3.1020717347722586;-1.9120268383665733;0.36330062336183894;0.3844703182575991;30.0
3.189280696119776;-1.5750331218576332;10.171511358642244;5.525430033775665;0.6685554287848006;-1.5704055462547741;0.4469663613576285;1.0241595772827434;0.026922679934550005;3.1920704139326213;0.0007248306948582215;0.027531355154481477;0.0927908636688079;1.705528556483044;2.908827656979136;2.61049221424667;-1.0877690117522703;0.374519618749256;0.8865054516922944;30.0
2.8058528072904085;-0.6116649434306792;7.872809976179466;3.4947174690042297;0.5988300304246678;-1.37469242977138;0.35859740533840845;1.00317424046592;0.02774578583708267;1.8271904091858258;0.0007698286317172572;0.03364943407769962;0.0927908636688079;1.4578914815455166;2.1254475719629813;1.098474256240582;1.262230339847061;0.34491559602385086;1.5166447350674541;30.0
2.4434253618105246;1.2326701034817873;5.970327498738893;2.334008966964371;0.48931764979400777;-1.6802818836125684;0.23943176239993125;0.8911486250003651;0.04039571140890539;0.9974885396756343;0.0016318135002315692;0.0374732334047109;0.1233812582848984;1.2554953572038912;1.5762685919605264;0.5937323928361278;6.65327873950739;0.3152636553661074;2.4522842529385547;30.0
1.8496741049065515;-1.0500022655823942;3.4212942943618527;2.334008966964371;0.43848132619835134;-0.8659193874662954;0.19226587342466497;0.594792639736883;0.03924685681462368;1.445196062494363;0.0015403157698275732;0.0374732334047109;0.1233812582848984;0.619372316440665;0.38362206637307533;0.5937323928361278;0.21199840807179982;0.16537045988545931;0.8523350929151073;30.0
1.9684039626588457;-0.8302336653354142;3.8746141602110464;2.334008966964371;0.3911254245286852;-0.13527527526884292;0.1529790977127442;0.5478792212704593;0.039139562751599535;0.9697242369159937;0.0015319053723863976;0.04078719282145407;0.1233812582848984;0.7743896842129115;0.5996793830153729;0.5937323928361278;0.7033342139960196;0.20234192189554634;1.1891451520125311;30.0
2.005246792142392;-1.049774387677623;4.021014697397355;2.762513235648593;0.3319561497281656;-1.3411625356542036;0.11019488534234831;0.5478792212704593;0.03969642047578516;0.0019074654400214846;0.0015758057985903351;0.05633731008463348;0.1233812582848984;0.7465329425058814;0.5573114342464897;0.4555061337137647;0.7247798833405089;0.19170647434483412;1.0570702290365772;30.0
2.030210819577334;-1.148527370872483;4.121755971928869;2.8426733641078625;0.35203896323002754;-1.238010496366839;0.1239314316320727;0.5478792212704593;0.039475790683134684;0.0348147745159757;0.0015583380500586634;0.054807790353828954;0.1233812582848984;0.6755538390783353;0.4563729894934774;0.3115928886329682;1.2737023891554426;0.1702138604869793;1.385659005528796;30.0
1.85101528076489;-0.021309470724387682;3.4262575696251245;1.7245242910446226;0.3735223676735391;-1.6206940676324924;0.1395189591524465;0.660081297435569;0.04087716530377031;-0.1449886005356917;0.0016709426432717632;0.057866829815438;0.1233812582848984;0.630290746684489;0.3972664253560907;0.20061605333681998;1.7262238032504698;0.15678063687904054;1.625694342063529;30.0
1.6725731302582414;2.341745683945414;2.7975008760618523;0.665892061187896;0.37675606022174507;-1.0430081787467411;0.1419451289138112;0.5180389480532428;0.03991337057276001;-0.009183686984599657;0.0015930771504784646;0.054297950443560776;0.1233812582848984;0.6023170667120256;0.3627858488525787;0.16699399060536457;2.0412860927662217;0.1485502819079285;1.778131614557275;30.0
1.0390527249486152;1.3288355742137412;1.0796305652231426;0.7419944937229319;0.35111998088894086;-0.24039607436373295;0.1232852409794502;0.4864746594447795;0.03991337057276001;-0.009183686984599657;0.0015930771504784646;0.054297950443560776;0.1233812582848984;0.5977995098218178;0.35736425394320565;0.23341733598930503;1.9289377815239999;0.1468477131443432;1.7238982108472358;0.0
0.8293706150748607;-0.7546880790466461;0.6878556171496526;1.1650814769588456;0.3136793984874865;-0.6682227794953742;0.09839476503547134;0.35099085973139044;0.03788186394759755;0.2644280686083381;0.0014350356161442908;0.05123891098195173;0.1152238197206077;0.5966667838132115;0.3560112509060016;0.7325139413414257;0.19925285303051155;0.14264292283572277;1.2558929157673646;0.0
0.9751607120063566;-0.8303565164425599;0.9509384142407443;1.3958742990704742;0.3110165841790986;-0.4954155005799191;0.09673131563443432;0.3535173867961441;0.041639908635295125;0.1026674591064263;0.0017338819911557255;0.054297950443560776;0.1325583766697256;0.7337519204341446;0.5383918807407954;1.0854569561708223;-1.0506699319893318;0.16819833913542573;0.8123144383017159;0.0
0.9198971731739418;-1.233408911897422;0.8462108092134091;1.4073211030370363;0.34330619515099725;0.07585235363612089;0.11785914362905461;0.4240038767608869;0.03291686926838375;-0.46364684873927026;0.0010835202824318664;0.035178953808504144;0.098908942592026;0.7174572217822717;0.5147448650875358;1.0810084415694878;-1.2298549666611953;0.16183456705101557;0.541219104087846;0.0
0.9220378387172827;-1.2719389290967018;0.8501537760264379;1.4073211030370363;0.41946301045307355;0.2469997483332043;0.1759492171383553;0.47661375664669414;0.025902454426579322;0.9788212471333567;0.0006709371453210188;0.0142755174875089;0.0866727847455898;0.695337643806785;0.4834944388947714;0.864884503064125;-0.44985965023593366;0.15921488306061846;0.8953717634920447;0.0
0.9120537117059137;-1.2052445604649609;0.8318419730365338;1.4073211030370363;0.5425266212705603;0.12563216014737424;0.29433513478724993;0.6849173835039122;0.026794284966139843;0.605948944360241;0.0007179337068467076;0.0142755174875089;0.0866727847455898;0.6101545907757345;0.372288624644704;0.8483459742035735;1.2370727606952505;0.14206646806482048;1.145200550682684;30.0
0.8805747202136016;-1.0442953661079721;0.7754118378792627;1.3201315328040053;0.6625317699090488;-0.6571309340351615;0.43894834613881684;0.9399631942057756;0.021086809946675087;1.5598880779885107;0.0004446535537271954;0.0237075558274701;0.07137758743754449;0.5990344312259583;0.3588422497942074;0.8276876972760383;1.3695087732211764;0.13880218596811833;1.1123830055445658;0.0
0.807617476222522;-0.47067522732164135;0.652245987900036;0.9263458234438389;0.7139729239279471;-1.515137717608169;0.5097573361022221;1.1402084882922412;0.021086809946675087;1.5598880779885127;0.0004446535537271954;0.0237075558274701;0.07137758743754449;0.6234411687128614;0.3886788908460585;0.8276876972760383;1.1030718543962976;0.14509824327461718;0.9334039112850786;0.0
0.749829721389822;-0.41420406809983035;0.5622446110795379;0.8966574057426095;0.7044493916854354;-1.8754041230793388;0.49624894544598;1.3181938466340248;0.02149700682092433;0.8769659966877837;0.0004621213022588672;0.028296115019883675;0.07137758743754449;0.6220100406692197;0.38689649069332444;0.6508777018497636;0.2589519465185199;0.1407128165112591;0.462856803541317;0.0
0.7179910059081291;-0.7439765226522544;0.5155110845649671;0.7882486241303113;0.6648544420816755;-1.8942218474771575;0.4420314291557361;1.2644638820719756;0.021529227378320213;0.9736510436347215;0.0004635076315074126;0.028296115019883675;0.07137758743754449;0.6571523083380538;0.43184915635403254;0.7375907572404863;-0.37113848416648104;0.14306374431624472;0.11856818305965143;30.0
0.6144133254838047;-0.30704725609987094;0.37750373453206765;0.7498271780223966;0.5937942142622553;-1.2740627787575671;0.35259156889132914;0.9390068487712476;0.021445353237034694;1.8042341439442677;0.0004599031754611945;0.025746915468542776;0.07137758743754449;0.6325036788566969;0.4000609037672556;0.6096308049163586;0.07259010785663784;0.1367707793009618;0.0534199572529699;0.0
0.6221015640781024;-0.43023928117695526;0.3870103560284213;0.7882486241303113;0.5044901934421135;0.19658349619055215;0.2545103552792612;0.6025221856266179;0.02149243833573388;2.77147356756115;0.0004619249056153233;0.0193739165901906;0.07137758743754449;0.6546439890321333;0.4285587523759038;0.7320779142869691;-0.30899831205922573;0.1434228131255447;0.31385880377843695;0.0
0.7126794598936524;0.6599181477638011;0.5079120125543082;0.45175701055146256;0.3669826970381695;1.9074581597209144;0.1346762999254089;0.2505124880910783;0.020799968755741003;3.028291539287415;0.0004326387002398019;0.015550117263179276;0.07137758743754449;0.7071060549104552;0.4999989728910277;0.5548162585957135;0.49475159681463865;0.1644011958244137;-0.2758775881847402;0.0
0.9155789090086011;0.02438004471456117;0.8382847386213802;0.8951824886404802;0.22998455251955505;5.481577441343605;0.052892894397619974;0.0912967518217469;0.019513840891639055;2.8592044567692887;0.00038078998634420453;0.018864076679922376;0.0693382277964718;0.8988692281419322;0.8079658893004729;0.921088474957767;-0.0634795403085567;0.21982462024096963;-0.3891915357446785;0.0
1.105291194510296;-0.8149396382114615;1.2216686246619968;1.4320187162093556;0.0978158973302996;5.208147012334659;0.009567949770531714;0.05379627725158076;0.024167343925474566;1.634659660295536;0.0005840605124121723;0.021668196186397377;0.0907515040277352;1.07682605377042;1.1595543500787753;1.4489457898917344;-0.8773881248062939;0.27762722635734666;-0.25822207163079924;0.0
1.086280615023453;-0.6860157864799403;1.1800055745757314;1.2107905578710385;0.043614354188190166;0.8824970867799655;0.0019022118912529013;0.04368191259317411;0.019375705419573515;-0.5232396710192181;0.00037541796050609053;0.0186091567247883;0.0581217497705719;1.0545305908234912;1.1120347669825412;1.1971671086875904;-0.7058860758021501;0.2820223528412994;0.14050425155206364;0.0
1.080675497390791;-0.5142574816561059;1.1678595306608335;1.2002994403487;0.06827459021464263;2.0992251215796265;0.004661419668977376;0.052547646791299196;0.019105509444712544;-0.21027570563579598;0.0003650204911420002;0.014020597532374725;0.0581217497705719;1.0507362648810556;1.1040466983361918;1.1872950354368936;-0.5382373836997638;0.2866674508387004;0.3939089683573681;0.0
1.08187070456847;-0.517741383898864;1.1704442214034776;1.2002994403487;0.1206155965788224;3.0649411164404055;0.014548122138065235;0.08272225137874023;0.018868210064191444;-0.1321727581219336;0.00035600935102645526;0.0130009177118384;0.0581217497705719;1.053537421975031;1.1099410995017946;1.1872950354368936;-0.5471991549922203;0.2884044986388258;0.4325828460296596;0.0
0.9816462146641742;1.1524378040090093;0.963629290764502;0.9176850770925338;0.15926538569294454;0.048088333306257676;0.025365463079922386;0.16094187111177916;0.01645764493888949;0.40253805922221936;0.0002708540769345549;0.00943203833996125;0.0540430304884265;0.957638798248511;0.9170720679108523;0.89996123189677;1.1829316450422758;0.2767600897868047;0.944487619190746;0.0
0.673647354196649;-0.15651680382820235;0.45380075781614543;0.5715798492902628;0.17187059534740085;-1.3722480441427432;0.029539501545070006;0.2769367698439841;0.01664470929689244;0.30736588966420136;0.0002770463475780576;0.00943203833996125;0.0540430304884265;0.6487822455433413;0.4209184021322604;0.5247276221803965;-0.15538507692455994;0.19844570034748396;-0.06947290733340789;0.0
0.5881170462228832;0.2451372142065458;0.34588166005792886;0.5715798492902628;0.18622862937382087;-1.8448171471443164;0.034681102398451936;0.32312745295848055;0.016631863878103264;0.29432589160080624;0.0002766188960597561;0.00943203833996125;0.0540430304884265;0.5526235990819119;0.3053928422622457;0.513769894682166;0.30052632537749496;0.17294489376641053;-0.5004322475054936;0.0
0.5715107220131622;0.21655674988825524;0.32662450537600596;0.5715798492902628;0.20707296176146536;-1.837385848284427;0.0428792114926653;0.36686420522872576;0.01867279729319907;-0.14953420594181008;0.0003486733587529026;0.01402059753237475;0.0560823901294992;0.5249078080520042;0.2755282069539597;0.513769894682166;0.2002503896711469;0.1651279259324966;-0.774032707785136;0.0
0.5777472204496622;-0.05417445555946137;0.33379185073731055;0.6610917976332233;0.22747160741197164;-1.432603888363383;0.05174333217858615;0.3846766759486432;0.018917129539772037;-0.2315509857967061;0.00035785779002451575;0.015295197308045174;0.0560823901294992;0.5371596152448405;0.28854045224998504;0.6710828987919104;-0.31090832682882613;0.1701045798877727;-0.6251304987117658;0.0
0.5528399723845306;1.8118676916323497;0.30563203506612857;0.49373553544620963;0.21476814893523594;-0.7696170685315131;0.04612535779706768;0.2898026415039918;0.01778392286780827;-0.43840926592473145;0.000316267912568154;0.021158356276129223;0.0560823901294992;0.518697894760501;0.26904750602897576;0.478440668757119;1.2743365623698861;0.15747494699361417;-1.076489381804131;0.0
0.5643002844912519;2.0390492294044193;0.31843481107690785;0.49373553544620963;0.17989195978474504;0.7206236377296845;0.032361117195196326;0.19590987979631524;0.015033890996274024;0.7174676263364097;0.00022601787848784916;0.01453043744264295;0.0530233506678902;0.5630436696411456;0.31701817392296755;0.478440668757119;2.178066131162668;0.17188067616092073;-1.3338393228345666;0.0
0.7466858032829337;-0.009256839483343628;0.5575396888242798;0.7111844398638878;0.12371559501833664;0.46309133594151625;0.015305548450741082;0.15093529506622405;0.012145657034058144;-0.41539668254513984;0.00014751698478896607;0.01453043744264295;0.0387478331803812;0.7440146818078619;0.553557846745654;0.7277547032863949;-0.04448533142065868;0.23822113832497083;-1.0210898473990793;0.0
0.8312160953983059;-1.4512304898441495;0.6909201972492056;1.371489014982294;0.09024503987399951;-0.3962685370284125;0.008144167221859762;0.11753415633968978;0.01699772243980341;0.6781758700534185;0.0002889225681405963;0.02141327623126335;0.0591414295911083;0.8246938834549513;0.6801200014080089;1.381058922832766;-1.4737635407092502;0.2768950220437116;-0.5050187015575817;0.0
0.8687075076341931;-1.945875236971954;0.7546527338200117;1.5663042810654;0.15090119066257981;3.2636904919229957;0.022771169343384266;0.11753415633968978;0.017948167215261733;-0.48071607539571914;0.00032213670638699614;0.025237075558274622;0.0591414295911083;0.8513885686056388;0.7248624947523586;1.545228647864207;-1.9183991459858223;0.2984353648091597;-0.05514481830342176;0.0
0.9740366340251058;-1.9748987606254265;0.9487473644229579;1.635781601604671;0.23899726631039533;1.7540617281462738;0.057119693303842034;0.18477616688747045;0.017998303653680953;-0.5778571116053673;0.00032393893441010513;0.025237075558274622;0.0591414295911083;0.9230499888526221;0.8520212819208258;1.6267735012641593;-2.070730616219417;0.3397279136401137;0.2300887876534597;0.0
0.939073891313795;-1.3966607251566185;0.8818597733472333;1.4435005310812279;0.2826252705334233;-0.6851319699670927;0.0798770435440907;0.3670807510914368;0.017733506063065563;-0.4427544169194465;0.00031447723728878304;0.024727235648006447;0.0591414295911083;0.8820789609188746;0.7780632932957215;1.4204658312867233;-1.3951280486009172;0.34207208644832;0.6986286522727129;0.0
0.8904142845629153;-0.8586531614281411;0.7928375981536883;1.0811674774627555;0.3331245569694648;-1.644162921733005;0.11097197045610221;0.5796244185367391;0.017775150871011797;-0.4638826844747475;0.00031595598848723145;0.024727235648006447;0.0591414295911083;0.8472521820263617;0.717836259948431;1.1791215565303934;-1.0305742495965318;0.3327182373918576;0.7785096833432247;0.0
0.7468837709390366;0.9861934953181587;0.5578353672921152;0.764563910044449;0.3427747229010614;-2.114203790710174;0.11749451065989944;0.6342819087581588;0.015104805065917165;-0.5300325425092483;0.00022815513607935684;0.0214132762312633;0.0458855919241358;0.706730787848311;0.49946840649269436;0.6874372864934932;0.8214691790940459;0.2996326901582179;1.3037329655020313;0.0
0.760435500705084;2.287589860541028;0.5782621507325918;0.2738838331371951;0.3180236458551532;-2.039602938462773;0.1011390393230039;0.5876851234021487;0.01388173813806265;0.06548251582562159;0.00019270265373374306;0.014657897420209998;0.0458855919241358;0.7177556014475127;0.5151731034092807;0.3915868541103018;1.9751763803249267;0.31904958847863546;1.679804082026907;0.0
0.47195169932793624;4.7015594473148195;0.22273840649852675;0.3740846762236356;0.313666267775589;-1.2912861302474365;0.0983865275402675;0.4800009921993973;0.015522464739310016;-0.23742542991222848;0.00024094691158312273;0.021158356276129223;0.0499643112062812;0.4511340829308898;0.20352196078189497;0.3173206000943667;6.205713366730761;0.21878431070227738;2.288830410350938;0.0
0.5053471770509543;4.257202928950712;0.2553757693533686;0.4958165127870817;0.26616991889810526;0.09730461986154536;0.07084642572622392;0.21090572139829067;0.016196280051240075;-0.3628355036949493;0.00026231948749819725;0.021158356276129223;0.0509839910268175;0.4821309326753828;0.2324502362424345;0.3993694245713957;5.228681557046288;0.23930258734938545;2.05425649805132;0.0
0.6367178454745269;0.20518968751404035;0.40540961474572357;0.525687366256961;0.20616010768363374;3.030612989690069;0.04250199000012746;0.12910787014762892;0.02576970515404962;2.2658246523031442;0.0006640777037266515;0.026256755378810975;0.0948302233098806;0.5960866705493411;0.3553193188065986;0.42504129946292935;0.4837225646779757;0.2759180561341021;1.2434848870237163;0.0
0.636913280604169;0.03786057938253405;0.40565852700996485;0.5573802765552676;0.12230285017956392;0.43022988188705824;0.01495798716204486;0.11288552428325838;0.022244255493930536;3.4534788599528574;0.0004948069024792588;0.019756296522891747;0.07953502600183529;0.590760560344143;0.3489980396581258;0.4415556071718212;0.30759690462673256;0.27004544234946;1.1122025795350852;0.0
0.63716696319831;-0.001558828316358277;0.40598173899135653;0.564380229373153;0.12258594947847921;0.4349385914190468;0.015027315009540259;0.11288552428325838;0.0206727352940419;3.2085873047688134;0.0004273619845375257;0.016952177016416724;0.0744366268991535;0.5905003594657605;0.34869067452919245;0.4415556071718212;0.2809712806410443;0.26956174806825967;1.0950016977853727;0.0
0.6819076558556485;-0.14745815520585787;0.46499805111454556;0.564380229373153;0.15087253217824548;0.11568042714615043;0.022762520965875718;0.13597401286812183;0.01984588188258911;3.0012191407253286;0.00039385902769767866;0.017844396859386075;0.0744366268991535;0.65133599687758;0.42423858082851096;0.4415556071718212;0.06546190680119375;0.3038937006438068;0.68230491357858;0.0
0.802404604250218;-0.26775866090211614;0.643853148921949;0.7098156166644385;0.18901902494900474;-0.2723619571360594;0.035728191792672476;0.20249658740518472;0.02105590135498239;0.9730665279047699;0.0004433509818707492;0.019883756500458823;0.0744366268991535;0.7779997612005004;0.6052836284280356;0.625186920793134;-0.16351506451414163;0.3884704702556071;0.3560578122093561;0.0
0.7413063923612366;-0.1240333552754593;0.5495351673556318;0.7098156166644385;0.25679797156567175;1.203344891396797;0.06594519820024354;0.2519765903605873;0.025418529353023408;0.45600193625948904;0.0006461016344705126;0.021795656163964422;0.0897318242071988;0.6951707774717542;0.48326240985068314;0.625186920793134;0.19922733320188155;0.3569778449246245;0.14237342972536035;0.0
0.7482009403412747;-0.14610290443500265;0.5598046471275677;0.7124758375940754;0.3447690378335627;0.5340310317475131;0.11886568944868062;0.3252182664979497;0.0367339960017637;1.9424235411313708;0.0013493864622575913;0.021795656163964422;0.13255837666972559;0.7127748608415442;0.5080480022476827;0.739768290380332;-0.044241129336508526;0.37779454349244873;0.3988530090840249;30.0
0.856477003717554;-0.6179602577877412;0.733552857896999;0.9435232199437464;0.43238293828740704;-0.40593280626608724;0.18695500532205164;0.5184895827680255;0.03698813491397607;1.6562929108138746;0.0013681221244144952;0.02676659528907915;0.13255837666972559;0.8461075503960663;0.7158979868372319;0.9275921986474511;-0.5134507854707461;0.48011683088135265;0.11665140414509786;30.0
1.1251192492697946;-0.11602540208300535;1.2658933250774262;1.3413752659081017;0.46226584049314234;-1.265732012949685;0.21368970728683134;0.7380448165003319;0.044565698608246676;-0.5067827653582044;0.0019861014924410798;0.04741511165494025;0.13255837666972559;0.8966077273490821;0.803905416742086;1.2979051846621397;-0.8496863979738123;0.5456080616689206;0.4118797138689375;30.0
1.4932288203429445;-0.1840729967036506;2.2297323099027815;1.5969511639795448;0.5075718239407937;-1.7334026064795494;0.25762915645858403;0.8685045277415835;0.04421500704588316;-0.49004335996751536;0.0019549668480674976;0.04741511165494025;0.13255837666972559;0.8963058931729122;0.8033642541364919;1.2979051846621397;-0.9052380467847218;0.537688735628825;0.31399289509839523;30.0
1.4889020518134632;-1.0779018985815567;2.2168293198943405;2.2990275682229115;0.5350014093909792;-1.6331760302252991;0.2862265080503341;0.9200735302116885;0.038374688161906985;-0.40002668657744117;0.0014726166915236042;0.043846232283063;0.1101254206179259;0.7177080940812391;0.5151049083097248;1.162808324971176;-0.8766188693846522;0.48064077568062785;0.1941336495797962;0.0
1.5330415065015084;-1.3412826386464975;2.3502162606564143;2.474914255774154;0.555239369814178;-1.3642365874313047;0.30829075779164555;0.8617222448006339;0.05110044142988285;-0.27967851870984667;0.0026112551143288873;0.07978994595696942;0.1580503721831344;0.6777950048490922;0.45940606859838085;0.8461484094289349;-0.1450267870748258;0.4705208074018958;0.3641496864399952;0.0
1.7723844065817456;-0.3783657967988085;3.141346484694126;2.3229408595716663;0.5595694429766035;-1.0646830992453995;0.31311796151314625;0.7763640155876151;0.054619167539322375;-0.4298338689479116;0.002983253462688567;0.07978994595696942;0.17232588967064327;0.9116172433221288;0.8310459983222374;0.8461484094289349;0.8271685114997861;0.5808442890036392;1.0280262393997444;0.0
1.7812345417256674;-0.2728843991315415;3.1727964926366483;2.1819129538477013;0.5317811807223554;-0.8333736696515334;0.28279122417046243;0.7475599580943049;0.05349848863627551;-0.54045646600365;0.0028620882863657;0.06984806770674007;0.17232588967064327;0.9199800188656115;0.8463632351119709;1.1157349983461193;0.12042970488151385;0.5525335991641357;0.6554594666734492;0.0
1.8095937073785917;0.12750442812712848;3.2746293857841966;1.9625172703565628;0.4491855187651363;-1.1020549593012967;0.2017676302683046;0.6783014715600899;0.04904142885454334;0.15345770409245776;0.0024050617440952355;0.0596512695013766;0.17232588967064327;0.8926852743138624;0.7968869989768157;0.9292501973623402;-0.06651964630291676;0.48801819785963463;0.237873381737802;0.0
1.3378866118912605;0.6386531735517451;1.7899405862778761;1.1191071538106394;0.3912362023676698;-1.3381619494229393;0.15306576604307628;0.6257586124033028;0.04903483241988204;0.15123149466067481;0.0024044147904459146;0.0596512695013766;0.17232588967064327;0.8479026350162225;0.7189388784674535;0.6852655938381418;1.097072366019756;0.49975995118640487;0.7009006501871402;0.0
1.0585285578660992;0.27957478413256454;1.120482707818084;1.1191071538106394;0.35024581925364645;-1.267898002212123;0.12267213390465799;0.5680204717838542;0.047168198415715804;1.0570305483081828;0.002224838941784335;0.04078719282145408;0.17232588967064327;0.857326178403862;0.7350081761765707;0.8042316930034756;0.9837275732805567;0.5114061614889157;0.7479176747384215;60.0
0.8845677723181266;0.965132670202278;0.782460143823853;0.9789209879724121;0.30703787856975484;-0.5920375047465782;0.09427225887661553;0.3813196819730089;0.04678455280669202;1.0589412518310226;0.002188794381322154;0.04078719282145406;0.17232588967064327;0.7453862198725508;0.5556006167758907;0.6781788651263287;1.9967211171570196;0.41690384954499216;1.189693361017853;0.0
0.8579666000842917;0.8440622606695841;0.7361066868601989;0.9254156778081222;0.24406944055184762;1.189660165912791;0.05956989181129188;0.21225066027317485;0.044533672257493245;2.574715019016126;0.0019832479647378235;0.02625675537881105;0.17232588967064327;0.6675941122324055;0.44568189868737357;0.7889229819123889;1.8844395042170388;0.34388083909443573;1.3284095351750842;0.0
0.8597838487451226;0.9253407196198202;0.7392282665629758;0.9254156778081222;0.1609145164814919;1.518395363554249;0.025893481614472334;0.13085027721223708;0.04361984276282525;2.9009880560856334;0.0019026906826535989;0.024727235648006527;0.17232588967064327;0.6695521752617895;0.448300115397794;0.7889229819123889;1.8862177387885808;0.3459172337075752;1.3456379684797117;0.0
0.8598400882570434;0.9246973027847868;0.7393249773738801;0.925830086513169;0.11528584330698775;-0.487909380860967;0.013290825667003334;0.15691491931225032;0.04336284265959515;2.9715763186698445;0.0018803361235208045;0.023707555827470177;0.17232588967064327;0.6518223129889867;0.4248723277103126;0.6800078256335498;2.100519271753008;0.33139287087299635;1.3304184484345138;0.0
0.9155557555974915;-0.2438261180099229;0.8382423416076936;1.1066003299682694;0.08966675655935412;-1.0718319859473695;0.008040127231874476;0.14108084970540613;0.027921772121535827;4.21789330537525;0.0007796253584069753;0.020393596410727004;0.10706638115631681;0.6930467102276022;0.480313742557302;0.801160242895274;0.08700785661120339;0.3331995514727763;0.7485538369743093;0.0
0.7164519345730115;-0.3090535578315569;0.5133033745534108;0.925830086513169;0.09463352552233859;-0.8552823660437119;0.008955504152787107;0.147065285943357;0.017611916892215126;-0.6849751944567919;0.0003101796166182925;0.02039359641072705;0.0479249515652085;0.49972678671699045;0.24972686136248845;0.6733728108867783;-0.6545378898476706;0.25902009764367645;0.32130172778406524;0.0
0.7163684978198024;-0.30774912937575494;0.5131838246686002;0.9254825844028622;0.09539258945329725;-0.975452728208422;0.009099746122605317;0.15045808350783108;0.01467496834810173;0.7796504286281792;0.0002153546960177876;0.01784439685938615;0.0479249515652085;0.499285965171811;0.2492864750175469;0.6712558602053931;-0.6395728910834774;0.2589052445899674;0.32696628851178583;0.0
0.6679485884904923;0.4535128387297474;0.4461553168664411;0.7078218208712257;0.09932992937442696;-0.573390706965838;0.009866434869528647;0.15045808350783108;0.014122555288995307;0.37763826658315175;0.0001994465678907293;0.018609156724788477;0.0479249515652085;0.46738291861411424;0.21844679261224775;0.5034451114272303;0.5909135677364665;0.2505724660559735;0.7320473328679308;0.0
0.6319692436251957;1.6037627964019023;0.3993851248882019;0.48187558678683295;0.10055598001881519;-0.5277877030323656;0.01011150511754436;0.15045808350783108;0.014267827354056115;0.13770111159106996;0.0002035708974051519;0.019373916590190752;0.0479249515652085;0.4330218557531962;0.18750792755994186;0.38209292924359106;1.230332540914961;0.22529064807230692;0.64075601900906;0.0
0.4388402789978114;1.386032222113142;0.19258079047087695;0.4255887903877369;0.13678320758954615;0.5000617008324783;0.01870964587848488;0.15313386455216227;0.015766065909547242;-0.49029774471065174;0.00024856883426418774;0.015550117263179421;0.0479249515652085;0.36167148507112984;0.1308062631135565;0.3252692904177996;2.2920021504517556;0.18244122747818428;1.4483735299551037;0.0
0.3884125127965554;2.2933575246224445;0.15086428009693434;0.3538251330605615;0.15578870477053242;-0.8288294956235731;0.024270120534080113;0.2005133975906297;0.01965188719725238;-0.7673885974048409;0.000386196670413532;0.029825634750688324;0.06118078923218111;0.35005328980014805;0.12253730569990645;0.3252692904177996;2.623612615697872;0.17569349800573644;1.6217672553165934;0.0
0.9436809895993216;6.60778991299376;0.8905338101311548;0.23266990876450455;0.2193150561412321;0.12678470933770264;0.04809909385023178;0.3216667394066002;0.01864028756914513;-0.811495386804865;0.0003474603206604264;0.029825634750688324;0.05404303048842671;0.40283629346478694;0.16227707933244795;0.21617006350437973;3.2690576091469237;0.21371075211379864;1.0998986081175557;0.0
0.9546428553626627;6.791495897055713;0.9113429812949777;0.31353388977362795;0.3208638826473825;0.6361624236824365;0.10295363118755327;0.35474774661850217;0.022649494159483648;0.1190257448922379;0.0005129995856804838;0.029825634750688324;0.0774956663607627;0.3983537274041906;0.15868569213681222;0.15934642467858828;3.373605448029761;0.20980715372670758;1.020927425808511;0.0
0.9552059636790136;7.2264689812089005;0.9124184330479529;0.2768542056260541;0.39738124642149236;-0.367343426898636;0.15791185500749882;0.49139656905484064;0.023960908847487347;-0.5065805952921336;0.0005741251527975975;0.03288467421229738;0.0774956663607627;0.40813538542395905;0.16657449283516362;0.23866597324538485;2.9828836713625475;0.21693651024541324;1.057277327313041;0.0
1.260040787844638;4.311615114300209;1.5877027870321359;0.2768542056260541;0.4721957402212039;-1.0282936563338478;0.2229688170830507;0.7079723018522546;0.02626233717503204;-1.2465748172962283;0.0006897103538950699;0.043081472417660846;0.0774956663607627;0.806843085847789;0.6509957651803825;0.23866597324538485;7.676875226638247;0.3991711691134849;2.6015428638336493;0.0
1.2602421083012791;4.335185610720679;1.5882101715356531;0.2703946933118284;0.5495048559267217;-0.8642764670561149;0.3019555866870472;0.7857320175439317;0.02530413541159161;-0.7700080728024555;0.0006402992689281644;0.030590394616090547;0.0774956663607627;0.808748587164134;0.6540742772399829;0.2106133581689611;7.78130609526385;0.4022422737106578;2.6311799795676407;0.0
1.2602537539217555;4.334935676095786;1.5882395242738765;0.2703946933118284;0.6065737931905693;-1.2832143532108435;0.3679317665855955;0.8726025047860385;0.028292720987099253;-0.8323237841474247;0.0008004780608538466;0.0364535535841746;0.0856531049250535;0.807111563545403;0.6514290760087051;0.2106133581689611;8.276415339769537;0.4052444183683016;2.7343381660886226;0.0
1.2621373199323167;4.2677429684449395;1.5929906143659311;0.3317894282714049;0.6565545945936989;-1.319505965691045;0.4310639356820963;1.124885405263151;0.028364292233472733;-0.20616104040109665;0.0008045330739058417;0.03237483430202915;0.0856531049250535;0.8149435936792125;0.6641330608787894;0.2948113995145565;8.229657881112033;0.4133803223276363;2.735608742841875;0.0
1.2679545210308303;4.087607918747133;1.6077086674025223;0.39332919012566836;0.6346457639351325;-1.5176378274949798;0.40277524568080786;1.0301006900546104;0.028592479966084692;0.8714525353806134;0.0008175299106109545;0.020138676455592874;0.0856531049250535;0.8264161539287999;0.6829636594744698;0.2419640862957435;8.36702746827799;0.4277238853576055;2.7818870463505894;0.0
1.3134630219324412;3.1665259097419525;1.7251851099839004;0.4483144965842396;0.6013904898735308;-1.1965377215640405;0.3616705213103254;0.915453062675599;0.02401869711900893;6.261420905663629;0.0005768978112946878;0.0142755174875089;0.0856531049250535;0.8681626663440477;0.7537064152336064;0.3395095851725396;4.685703746913755;0.42804428958450075;2.1177796158972497;0.0
1.4285655811690674;1.8164841435785408;2.0407996197009153;1.0210241881055635;0.5082833321786927;-0.9566193705153258;0.2583519457706752;0.7805678055680966;0.010253290594472081;-0.8719288560733095;0.00010512996801468965;0.014785357397777074;0.0316100744366268;0.9856179330023026;0.9714427098557314;0.988165260450206;0.4730620200760021;0.44368289133521066;1.2697339286963722;30.0
1.172676954475026;-1.04724036407829;1.3751712395568219;1.6653889772494472;0.4061169746913083;-0.6960233265069959;0.16493099713242076;0.550727676722278;0.009579926735299303;-1.385617535958468;9.177499625370237e-05;0.014530437442642975;0.0275313551544814;1.1346716741390404;1.2874798080934928;1.7395190733170462;-1.0919321606474237;0.4467392113120872;0.8499710886136258;30.0
1.1756590992982334;-1.5378890677041153;1.3821743177627337;1.810983799214648;0.31861109791546144;0.7449582848673525;0.10151303171489576;0.25607811236708766;0.009541258861097846;-1.3161766600531084;9.103562065447817e-05;0.014530437442642975;0.0275313551544814;1.1307043146312339;1.2784922471256883;1.8745506030461248;-1.5964439166038211;0.42051481543589636;0.4420978539703403;30.0
1.2176858972541718;-1.5801670593462132;1.4827589443716973;1.9549052798172275;0.22571056279667603;2.5346576570630757;0.05094525815799224;0.21082197017897375;0.010972289756127778;-0.6508889116253168;0.00012039114249242657;0.01453043744264295;0.0356887937187722;1.1629590600198916;1.3524737752823497;1.8748220999349647;-1.5926357809314429;0.4369674085533728;0.3848303867976566;30.0
1.3652403033227323;-0.9056530485919971;1.8638810858167458;1.9549052798172275;0.20196715007488475;1.2919484234674599;0.04079072970937102;0.21082197017897375;0.011242198027627224;-0.8317723922552217;0.00012638701649238544;0.016824717038849774;0.0356887937187722;1.3094672904239726;1.7147045846903008;1.8748220999349647;-0.9334998862141565;0.47686617739533615;0.6454053825936124;30.0
1.4383097258881614;-1.066563698856981;2.068734867584478;2.171485401797824;0.2778295649252077;0.8349682025028073;0.07718926714653021;0.21082197017897375;0.02127769899081451;5.103876358978084;0.0004527404743437089;0.016824717038849774;0.0774956663607626;1.396337522607348;1.9497584770412262;1.9773242719412718;-1.0687090246487796;0.5242307362663168;0.52533324324521;30.0
1.4466757783733781;-1.3926540742915263;2.09287080773222;2.2499820871460336;0.3459511702198402;-0.8785978691543426;0.11968221217647683;0.4640481485448048;0.020832158277850007;5.044569779112286;0.0004339788185133946;0.0142755174875089;0.0774956663607626;1.3975643545348155;1.9531861250663158;2.0278295750007436;-1.3161912374844056;0.4955786799294073;0.15273379229289077;30.0
1.5007950332750168;-1.3908446384205415;2.252385731902959;2.555005004859255;0.38359475151481215;-1.8406973160142468;0.14714493338971046;0.6732654660250461;0.022647198744808167;1.7460636918678674;0.0005128956109868406;0.015295197308045249;0.0774956663607626;1.4529617193943276;2.1110977580253207;2.3614431332509547;-1.3044909906008673;0.4625998908874996;-0.26971484342013125;30.0
1.4078608272573812;-0.5228234300404496;1.9820721089258377;1.6145843511914415;0.385252440221526;-2.1934977310265507;0.14841944269664045;0.7558047657419485;0.02991543570892353;-0.008966547411912782;0.0008949332936547372;0.031355154481492724;0.0917711838482715;1.3872697712370892;1.9245174181882057;1.5219899677808169;-0.392583012037517;0.40412566055960586;-0.7792493706672561;30.0
1.3914308880383006;0.13275008116316606;1.9360799161870537;1.112211038506214;0.37073673208071256;-2.004175035985779;0.13744572451388606;0.7228205021343184;0.02996482598066663;0.004779743128573496;0.000897890796051634;0.031355154481492724;0.0917711838482715;1.3739804828033195;1.8878223671244432;1.0663900755341098;0.2176311521100729;0.3879759934829612;-1.0804418493485919;30.0
1.4437935564144035;-0.8329071402269079;2.0845398335437513;1.9030910889261001;0.3336546221326708;-1.0594818357352647;0.11132540687049532;0.5097417652975127;0.02951087992480422;-0.5057117111487547;0.0008708920339362126;0.03059039461609053;0.0917711838482715;1.429323723572212;2.042966306766333;1.89995148331323;-0.8265571491560593;0.41910808066079197;-0.7086190398318967;30.0
1.505411196735867;-0.9651714544282568;2.2662628712577155;2.1894686109194783;0.27810538224658543;1.1158146466175956;0.07734260363451939;0.22585193988140517;0.028517835615131742;-0.7872376395521548;0.0008132669481716764;0.03823799327011317;0.0917711838482715;1.4860139118212912;2.208237346126416;2.1701737305668445;-0.9477806838982806;0.4283875710417226;-0.6503473609887418;30.0
1.5150672227762605;-0.805296467126331;2.295428689530971;2.1195771512769923;0.19317753844092536;4.632503028040844;0.03731756135809519;0.10314657189907725;0.02879058544818124;-0.860385820089286;0.0008288978104490254;0.03823799327011317;0.0917711838482715;1.4960669373491768;2.238216281029346;2.119668427507372;-0.8152938797847702;0.42251256944807225;-0.8096779965401814;30.0
1.2881316109519916;0.9638871091107656;1.659283047133773;1.3911734089064791;0.09984559682467428;2.3742781588281736;0.009969143205275406;0.10215179196887694;0.025838372779032448;-1.1249694176542115;0.000667621507868245;0.03823799327011317;0.0713775874375445;1.2881111862902157;1.6592304282459867;1.3898975489031518;0.9603399580398896;0.344915680158036;-1.1306627918152767;30.0
1.23001464845634;0.4549458370402216;1.5129360354171733;1.4676681054260956;0.05977264802819063;-1.0441445633074795;0.003572769452301961;0.0835039130985265;0.025358179532333155;-1.0341409398161414;0.0006430372691940401;0.03823799327011317;0.0713775874375445;1.229628227082183;1.5119855768372725;1.4683967008256809;0.45210735901032706;0.35076100774774027;-0.832418774091315;30.0
0.8638402722667028;-0.5773705268442652;0.7462200159898111;1.0284591201601212;0.05954787367087102;-1.0381973127021702;0.003545949258722014;0.0835039130985265;0.023083983731358695;0.44032475000708715;0.0005328703049096329;0.02855103497501783;0.0713775874375445;0.8637831639454359;0.7461213543155878;1.0278723796032718;-0.5773376418001648;0.22948801302490973;-0.2065595156282328;30.0
1.455453095642896;2.579469229683338;2.118343713616489;1.3765409950301422;0.06591010210658961;-1.4462349457569357;0.004344141559701069;0.10090536491533436;0.022479514315005365;0.6521109653233564;0.0005053285638385311;0.025491995513408777;0.0713775874375445;1.4552623604794144;2.117788537828117;1.3752608549124083;2.579316968058243;0.3497601794778152;1.2603984062213491;30.0
1.4530350520467814;2.6512059567263284;2.111310862476593;1.3384205372501352;0.07349123155275042;-1.3210190849847732;0.005400961115139979;0.11339941879854465;0.02424585253403009;0.6740925046103184;0.0005878613651019332;0.030335474660956405;0.0774956663607626;1.452861615589444;2.1108068740531696;1.3374082014166575;2.6505427500858394;0.34960725730859327;1.277046713520984;30.0
1.4535160071225306;2.630943133847148;2.1127087829614246;1.343473991074517;0.07005611342690117;-0.264664350404965;0.0049078590284828425;0.09853667347261738;0.017990599449723598;-0.3607218451482593;0.0003236616685603951;0.022687876006933703;0.0540430304884266;1.4533153338621585;2.1121254596388774;1.3421688586663691;2.63144207077766;0.34955626014103625;1.271190021878778;30.0
1.4529945072484503;2.6268635692956437;2.1111930380941666;1.343473991074517;0.08532784859417729;-0.5541814163496994;0.007280841745710843;0.10837765713574418;0.019047371586240622;-0.6197810527783351;0.00036280236434432664;0.027276435199347276;0.0540430304884266;1.4527400360272784;2.1104536122765385;1.3421688586663691;2.62689008994937;0.3491809068190827;1.265687157305071;30.0
1.5243639249651681;2.2833296741643982;2.323685375735213;1.343473991074517;0.08401903189882418;-0.9284195752866405;0.0070591977212156355;0.11541380317542096;0.018006325360926667;0.04528044190438659;0.0003242277530035509;0.027276435199347276;0.0540430304884266;1.5241247294196167;2.32295619082842;1.3421688586663691;2.2833858736050408;0.3704335230084301;0.9690583334669076;30.0
1.5640457635469844;2.865635059205494;2.4462391504692693;1.482828466899242;0.08311196587616204;-0.9001182413945017;0.006907598871800323;0.11541380317542096;0.01277022046026954;-1.5603720026157895;0.00016307853060388677;0.020903436320995124;0.0326297542571632;1.5639522501788836;2.445946640839593;1.482678672574815;2.8630792407102947;0.40443353470618193;1.3256410618136567;30.0
1.5777060108317058;2.38771449442406;2.4891562566144945;1.6305014577354284;0.1077927294048696;-0.46693877979055387;0.01161927251255144;0.1597995293490099;0.018798587133025593;0.8882344372475097;0.00035338687819795535;0.027276435199347276;0.0591414295911083;1.5778580496650578;2.4896360248928198;1.6347670107003345;2.3786682662479706;0.4029607376600788;1.1857435715828855;30.0
1.5636158651459082;2.1697886111603677;2.4448945737359873;1.5470150971300227;0.1411634832765894;0.0008273558930293388;0.019927129010779934;0.18005447255443532;0.02311873993731486;-0.45103676513169433;0.0005344761362891971;0.0275313551544814;0.0652595085143264;1.5640543561471278;2.4462660289828064;1.551863271611643;2.15279271868853;0.38913610601289267;0.9807350016655871;0.0
1.5255434975871867;2.529869374613359;2.3272829630305463;1.1572117311689167;0.18546138983375143;-0.5801308967686454;0.03439592711906672;0.26681714949262303;0.02394354516876037;-1.132546045448802;0.0005732933552484681;0.03696339349444266;0.0652595085143264;1.5242175398386564;2.3232391087518063;1.1396773241160343;2.5290929244160134;0.37410931563079597;0.9880992613129872;0.0
1.5274694057157678;2.102015197453841;2.333162785397681;1.221940504083478;0.24542768339377738;-0.22434806413460606;0.06023474777603623;0.34753538668475303;0.02426276179471995;-1.05884636942142;0.0005886816099073221;0.03772815335984493;0.0652595085143264;1.5274162550157915;2.333000416086465;1.233004208533702;2.0710226560939304;0.3645606348584901;0.7140133412329119;0.0
1.2391769750976986;-0.9361096321487621;1.5355595756122824;1.7999996581922462;0.2796922192032344;-1.124272263272736;0.07822773748283013;0.4010661963017783;0.024270617018334578;-1.211399631276348;0.000589062850450672;0.03772815335984493;0.0652595085143264;1.2156848371888127;1.47788962337079;1.797470653849894;-1.0768652268184102;0.3378510479535726;-0.7708493739416246;0.0
1.48670348085329;-1.0557766963402873;2.2102872399812887;2.4260425026048367;0.31403030580900965;-1.1625903103030484;0.09861503296650014;0.5170083296321543;0.02671764366144137;-1.3321873066994796;0.0007138324828197582;0.041551952686856304;0.0744366268991536;1.3854843573423377;1.9195669044403105;2.429114206110143;-1.5095676066093273;0.4298293323963357;-0.46904336632819527;30.0
1.7702743277063748;-1.057500312250351;3.133871195336257;2.656275968691032;0.29252546230196;-1.3981927513413643;0.08557114609497543;0.4630401124740889;0.024054504154349787;-0.9453906026293539;0.0005786191701116311;0.03543387376363818;0.0744366268991536;1.5085992309574134;2.2758716396452994;2.5521287964480064;-1.731442255110428;0.5294610338927855;-0.11365378881718148;30.0
1.766315240927153;-1.2792326835797343;3.1198695303315467;2.771878477235866;0.2798987418889876;-0.9183679886516829;0.0783433057110381;0.3801192819694729;0.02017832749010135;-0.8892787871136346;0.00040716490029777996;0.0254919955134088;0.06118078923218111;1.5310695458247514;2.344173954152011;2.683041301734292;-1.6722173031440082;0.5915527771339254;0.3467772088886132;30.0
1.957924083888763;-1.6601083928091356;3.8334667182716524;3.3344280016964847;0.2517459986458803;0.1887433448274918;0.06337604783421158;0.2993859161178181;0.02102508469391199;-1.2447888580173203;0.0004420541863861723;0.03262975425716323;0.06118078923218111;1.628866479694159;2.653206008671242;2.9731855271121304;-1.7976345571553394;0.6574235822686036;0.34834273809962735;30.0
2.2290734378638972;-1.6926004254983664;4.968768391390373;4.11586086430844;0.18993376066796192;-0.5219310728366641;0.036074833441474635;0.2245824334947672;0.020495310739514345;-1.2020801532062357;0.00042005776230925207;0.03262975425716323;0.06118078923218111;1.6613561565612092;2.7601042789438326;2.9731855271121304;-1.7841184435122155;0.7015016616961404;0.5413507563135858;30.0
2.0824620044883466;-1.0399559547438335;4.336648000137623;3.082142160050168;0.1631180488946702;-0.3825170677328517;0.026607497875204018;0.19270301514964416;0.023746112715602483;-0.7746444142560901;0.000563877869102098;0.0293157948404201;0.0754563067196899;1.5323243384785263;2.3480178782936534;2.012088564931397;-0.5141339807395247;0.7673386194347949;1.0819822337435665;30.0
1.9775587280943536;0.39662442662240643;3.9107385230621574;1.7292029100202115;0.14533823209109323;-0.5395366207356841;0.02112320170736448;0.14610967241948813;0.02230798039386;-0.313994237828621;0.0004976459892528422;0.0293157948404201;0.0754563067196899;1.3018432160766633;1.6947957592448302;0.8561917466735713;2.5430417405711205;0.7462553769402416;1.7346354141731177;0.0
1.8133938180529372;3.4316726364721717;3.2883971393526092;1.7493960557162955;0.1358951352376939;-0.3399348404545058;0.018467487781271115;0.19277834122844795;0.024526308602959023;-1.0003381580396966;0.0006015398136875817;0.031100234526358725;0.0754563067196899;1.184096107557037;1.4020835919317265;0.6791557934626242;7.600114063523135;0.7707976107675479;2.637648335426706;0.0
0.9712443860100676;-0.5742412983917805;0.9433156573560731;1.065565167196972;0.15060446214205547;-0.3387753505701921;0.022681704017097817;0.2080661481363898;0.022963306277008842;-0.25912463182935397;0.0005273134351717136;0.027276435199347426;0.0754563067196899;0.3628351351925015;0.13164933533016085;0.5307143545107533;-1.0477225414523181;0.3119884689239;0.34408444884664874;0.0
0.7997223497320043;0.3857794883919041;0.6395558366608782;0.6552916860952664;0.20868492813760478;0.9708715320402703;0.04354939923179727;0.2277916052589668;0.02352911032450786;-0.6179053506214406;0.0005536190326628624;0.0295707147955542;0.0754563067196899;0.3328155424632894;0.11076618530513362;0.40926395842973307;-0.023805681407272874;0.2951976134982776;0.5613798680669015;0.0
0.8508917481113825;-0.080271346313733;0.7240167670040444;0.6552916860952664;0.28215074201600904;0.25125463620420063;0.07960904122018449;0.272042509089064;0.020234643333010383;-0.08548882429091822;0.00040944079081414156;0.027786275109615576;0.06933822779647181;0.371292714598527;0.1378582799139432;0.5283883817407566;-1.085249711358723;0.31078339730670085;0.17596019814972122;0.0
0.8957858343342068;-0.472837277594165;0.802432260993831;1.011008155326873;0.3472560558423594;-0.36092786440351887;0.12058676831919185;0.42581263421930693;0.02001881933389822;0.018521471383987125;0.00040075312752325715;0.0275313551544815;0.06933822779647181;0.4037005794204961;0.16297415782444427;0.5488005062202821;-0.8679508413447071;0.3065640831912334;0.10821798717199729;30.0
0.7212057348499826;0.17436965554683784;0.5201377119805034;0.9197349286190383;0.3840023853510639;-0.8851928097818116;0.14745783195530696;0.5418446690717456;0.019433158262297474;0.4026307037740478;0.0003776476400475006;0.021413276231263403;0.06933822779647181;0.4287275105215673;0.18380727827802062;0.6801744741039861;-1.35743519158204;0.31410401939665644;-0.16113021934481328;0.0
0.8105633440032548;-0.8848021168402082;0.6570129346417388;1.0224972269142172;0.4156089899763221;-1.5410587719649658;0.17273083254913862;0.6521812254088615;0.02445112219553802;-0.07734530154988306;0.000597857376621132;0.022942795962067927;0.0810645457326398;0.4004115791788965;0.1603294327405377;0.5441053910951159;-1.2313107690603735;0.26895848030256775;-0.3672392338006134;0.0
0.757890853867369;-0.3329300012163558;0.5743985463758097;0.7210428492450323;0.42944089115511935;-1.844296420873049;0.1844194789961031;0.8008240422842124;0.03981545408377995;2.5527589937810364;0.0015852703838975895;0.023962475782604277;0.14530437442643;0.43153949059309055;0.18622633194134408;0.6820290883970372;-1.3305005983551494;0.27916923983884157;-0.5518043263128377;0.0
0.801261381151758;-0.7326278521122843;0.6420198009252229;1.0224972269142172;0.4444220688835527;-1.6403659801654114;0.19751097531073722;0.7908370358120633;0.050776943829169696;0.805791208319033;0.0025782980246306544;0.02702151524421333;0.17079636993983868;0.424371644071483;0.18009129229193344;0.6166822658648192;-0.5816505399449738;0.2493368233039829;-0.2671614222762689;0.0
0.95588584862122;-0.07072501832731604;0.9137177555943098;1.2794489768436774;0.4603384928820465;-1.0836937775184647;0.21191152802891397;0.6177327484639792;0.05073141952612309;0.7602822772389176;0.002573676927135503;0.028296115019883755;0.17079636993983868;0.5654779079461251;0.31976526437512626;0.6516842031481118;0.004815375616806656;0.31197796435423336;0.3943428465608309;0.0
1.0796836798382883;-0.2924333701103744;1.1657168485091476;1.5222591514318857;0.46971436203061684;-0.5006754151123347;0.2206315818978294;0.5815068973256221;0.05100327632264405;0.5486138160811233;0.0026013341956439835;0.03517895380850408;0.17079636993983868;0.6476922639946846;0.4195052688385602;0.589083062253045;-0.3433677041468651;0.3244792952308921;0.2766330450022071;0.0
1.3167804512291978;-0.5147817059891737;1.7339107567393701;1.6752234371065806;0.42959869702958287;-0.9776917112388587;0.18455504048951535;0.5857476975471179;0.05050020859682226;0.5478423822902769;0.0025502710683225614;0.03390435403283363;0.17079636993983868;0.7168099578996013;0.5138165157440282;0.9337779609966881;-0.3450605685389593;0.3184337975547982;0.619314980878138;0.0
1.3779495469125085;-0.8198133799224563;1.8987449538363874;2.11643822383562;0.37179594635184643;-1.1233007699216553;0.13823222572366506;0.5018801089557208;0.04904746499271701;0.8149647004706628;0.002405653822211801;0.02855103497501775;0.17079636993983868;0.6452042722581058;0.416288552940112;0.9489876499355681;-1.0747047207668143;0.2666461570292426;0.5453091520178553;0.0
1.4927757233796548;-0.031634355885638045;2.2283793603116515;1.5470670485750513;0.3083880064262083;-1.114366864654267;0.09510316250753108;0.43353972836230326;0.049004901729689174;0.4748875334042952;0.002401480393536493;0.040659732843886964;0.17079636993983868;0.736190218963373;0.5419760384973391;1.0573474283631439;-1.0830679158666905;0.278739356785574;0.4562568357012604;0.0
1.5814830509069684;-0.42439878161600675;2.501088640306013;2.114396375133246;0.25940435093513675;-1.2587336612136883;0.06729061728407959;0.37964028763098323;0.04780306173617251;0.7716776251627309;0.0022851327113523204;0.037090853472009765;0.17079636993983868;0.7420301172399016;0.5506086948910621;1.3120383417780435;-1.403824675802331;0.26518051771654544;-0.014988958417255543;0.0
1.5469899970448018;0.3754113966827686;2.3931780509566756;1.6299765679751714;0.24496320766261573;-0.7597203525747231;0.0600069731083578;0.34199680192116855;0.04863194572783101;0.5425702548574937;0.0023650661452747006;0.037090853472009765;0.17079636993983868;0.6509472945961009;0.42373238034198296;0.903869513077467;-0.8853972290208192;0.2224620364589852;-0.2235636005558847;0.0
1.3833238499465068;3.1797474780590838;1.9135848738308259;1.1701016458509366;0.2013737479956393;-0.31859148108221397;0.040551386381811244;0.2730572961978339;0.039076234894226715;0.7974378559190741;0.0015269521335087815;0.028423574997450768;0.1254206179259712;0.5789411861402429;0.33517289700947145;0.8054656893658532;-0.5116784027995891;0.19415276872890938;-0.08470757163709432;0.0
1.3473210820356172;4.649602677537165;1.8152740980976263;1.0402500404409256;0.22410633830685162;0.7709856863614785;0.050223650869305025;0.2730572961978339;0.03419810290438384;4.965091634817207;0.0011695102422588264;0.02039359641072698;0.1254206179259712;0.5252141304099703;0.27584988278230127;0.8054656893658532;-0.9088529040621677;0.17425637273053965;0.2777832005753996;0.0
1.4106789201685763;4.741361291252425;1.9900150158079808;1.1016667047049558;0.3335032177574107;1.600300522105025;0.11122439625454691;0.2730572961978339;0.021956750314370124;0.2768333569850948;0.00048209888436759254;0.02472723564800653;0.0729071071683491;0.4851045892482363;0.23532646250970007;0.600297891954523;-0.5771649385352399;0.15588586889053094;-0.06288690445538986;0.0
0.8551342654578545;-0.5038653384498833;0.7312546119601445;1.1016667047049558;0.4441162173481496;-0.18135120885952308;0.19723921451162887;0.5530992239059935;0.022001953465329106;0.15571113731845695;0.00048408595629050754;0.025491995513408805;0.0729071071683491;0.7385493262555682;0.5454551073125538;0.8703992394851476;1.3893480567065188;0.24952293801429568;-1.0899221216242676;0.0
1.0351656635728623;-0.6295805545114957;1.0715679510402445;1.4118444031755166;0.5702310716255697;-0.39322692467438664;0.32516347504724563;0.7700719823732638;0.02469091280681556;-0.06865230361820908;0.0006096411752337688;0.025491995513408805;0.0825940654634444;0.8044540418766406;0.6471463054916637;0.9375903313329181;0.8086287135088251;0.2637965789208958;-0.9940775656773824;0.0
1.1998238498155038;-0.9551583712557148;1.4395772705860967;1.6007069976797008;0.6379725619517302;-1.3290360202547562;0.40700898980325434;0.9467026224210138;0.02466984856656724;-0.03083067806649658;0.0006086014282973597;0.025491995513408805;0.0825940654634444;1.039631700571612;1.0808340728334218;1.1130331303127017;-0.16180485056244923;0.37446744787425734;-0.8136348356915187;90.0
1.6422507264887527;0.06580470615199425;2.6969874486528362;2.2606107937572446;0.6409669308283771;-1.6466449722959626;0.4108386064155495;1.0384710280734726;0.024346004978261115;0.23567834432106188;0.000592727958401515;0.020903436320995228;0.0825940654634444;1.0708835784690074;1.1467916386345867;1.456911264075063;-0.9144099945246081;0.39991666093930295;-0.4664698052367751;90.0
1.7789919380171755;-0.702660275133207;3.164812315530106;2.1304377403005685;0.6243771077194203;-1.272316275414531;0.3898467726440686;0.934839628897453;0.02953670591162144;0.20935173741148258;0.0008724169961096131;0.028551034975017854;0.1009483022330987;1.009205186912832;1.0184951092917642;1.4493893213200004;-0.974879740142631;0.40871277025296304;-0.10172302589794137;90.0
1.7026260559796202;-0.2098013673130405;2.8989354865007173;1.3499922618482325;0.5681686058598285;0.1307637464702895;0.3228155646847012;0.5884831804129638;0.02925136598865451;0.17031823428023735;0.0008556424122022138;0.029570714795554176;0.1009483022330987;0.975092226074755;0.9508048493514212;1.3382461674618384;-0.6124510554288685;0.430117128101809;0.3653909526694369;90.0
1.898324817628557;-0.6786010286408626;3.6036371132244938;2.375835601610375;0.4116507598553108;0.8101167359100714;0.16945634808945476;0.3073802400077559;0.02895782975662872;0.6411143085082937;0.0008385559042138917;0.021158356276129275;0.1009483022330987;0.9353752884136936;0.8749269301750005;0.8881046211703589;0.2098970362990471;0.42740100889758953;0.6464505437159231;90.0
2.7162799098881005;0.8956264272101332;7.378176548861707;2.845821420634901;0.28890800824543184;0.7341840724868212;0.0834678372283425;0.21332385823763245;0.02855103497501777;0.7967117650631711;0.000815161598144688;0.021158356276129275;0.1009483022330987;1.4732209246057175;2.170379892696125;1.5238787520909076;1.615003310843154;0.5860890664383187;1.3164097941056339;90.0
2.6886862055671394;0.7799611625528949;7.229033512007021;2.3284811430182595;0.24787786270459963;-0.22763090813264292;0.06144343481900035;0.21332385823763245;0.02991620805900522;-0.20512455631523757;0.0008949795046296889;0.03874783318038132;0.1009483022330987;1.478338630150483;2.1854851053952067;1.5093245240088988;1.6665530496234393;0.5936485636414476;1.359223286765751;90.0
2.419759552601924;2.1875787528415223;5.855236292408264;1.9133728500753342;0.26332333025591464;-0.3869979367220629;0.06933917625706548;0.21332385823763245;0.04342607139491546;1.6678167667452246;0.0018858236767962948;0.03874783318038132;0.1529519730804526;1.4550312260147005;2.1171158686778426;0.6433321137133778;3.051942190145205;0.6213800026866131;1.7696156414800617;90.0
2.659470962186683;0.8282692688642754;7.072785798714161;2.2622480028575334;0.32277423279232165;-0.5909585125639119;0.10418320535467185;0.3982246482836338;0.04555280034446556;1.2569159137250574;0.0020750576192227416;0.0448659121035994;0.1529519730804526;1.4451218345696082;2.08837711674983;1.29450958633651;1.8170706015033917;0.5675634935678905;1.3704073154183483;90.0
2.244096005599872;1.557295555911529;5.0359668823493005;1.6681332970148717;0.3159120127452776;-0.43021591715302165;0.09980039979677241;0.4022110058894366;0.047478722833006956;1.0923206447165197;0.002254229121853496;0.0448659121035994;0.1662078107474252;1.3821660751895826;1.910383059404975;1.1606767451121918;3.3040152031956302;0.5590472722218994;1.6335858935412546;90.0
2.295469615455005;1.1695844197068683;5.269180755477148;1.40589580519521;0.2684789884236155;-1.787228095717126;0.07208096722496787;0.4781632641091824;0.05176252059805125;0.4479595353731917;0.0026793585386636794;0.057356989905169756;0.1662078107474252;1.313441612360333;1.725128869079711;1.4658880468550217;2.030432041081113;0.4731920851540843;1.4566806117545517;90.0
2.3409481552315525;0.8949341287349587;5.480038265482008;1.8090250298926296;0.249207046968393;-1.731572949681702;0.06210415225870683;0.41934630335121414;0.05232424843914226;0.47103925915423667;0.0027378269747210813;0.05812174977057202;0.1662078107474252;1.2920851034747853;1.6694839146214469;1.4937689162100547;1.4383431419251147;0.441604386696288;1.149017904610479;90.0
2.3940253046531628;0.7448855269325593;5.731357159319669;2.1257150009622108;0.25187840317708143;-0.8882950048787832;0.06344272998703639;0.37452669688013795;0.048732801863343514;2.7508431896179633;0.002374885977451897;0.03390435403283367;0.1662078107474252;1.2557278469507331;1.576852425607524;1.597388858951808;0.9478688565867566;0.40135583428842153;0.7911244890762762;90.0
2.2428316041467027;2.0660494138885253;5.030293604559271;2.1257150009622108;0.2757820498555851;0.4919605229136254;0.07605573902254842;0.22098989017699355;0.050441839468998786;3.09260968948663;0.0025443791690162435;0.03607117365147343;0.1662078107474252;1.160262800937988;1.3462097672404654;1.4479559944216844;1.587006127236759;0.36122649066571993;1.0683475013998136;90.0
2.3634618992543595;1.5795098858620105;5.585952149227024;2.3068877278428723;0.2974896279330592;-0.04124211458399379;0.08850007872775002;0.2938552094747304;0.050548912324152914;2.845353154508481;0.0025551925371548982;0.04295401244009382;0.1662078107474252;1.226007971771513;1.5030955468472995;1.2965698752155053;-0.07737963222197765;0.35231135981774664;0.5295782819980644;90.0
2.2106992043672133;2.0268986495865247;4.88719097218983;2.3068877278428723;0.2680550822583051;-1.2313136271388008;0.07185352712450671;0.3819589322740342;0.051208985434657094;1.8962908934122669;0.0026223601892469226;0.059268889568675424;0.1662078107474252;1.085667613639811;1.1786741673063619;1.2965698752155053;-0.84349492036295;0.3188293877803502;0.11645523755340254;90.0
2.2005474655600112;2.719191130653581;4.842409148182588;1.9707415041533607;0.24466717299144947;-1.1130064128454191;0.05986202553962786;0.3747010370307162;0.0500735876294088;3.9985550748276464;0.0025073641780800817;0.046267971856836954;0.1662078107474252;0.9843274588320978;0.9689005462108553;0.5901972173656578;-0.04661833898596157;0.2784129612874011;-0.015495137607298006;90.0
2.3110830893909178;1.2787879451097126;5.341105046068669;2.267219863166935;0.23190223663978435;-1.2837104763576856;0.053778647358534534;0.3747010370307162;0.029280626811278403;-1.4394376184644568;0.0008573551064613555;0.046267971856836954;0.07647598654022639;1.0186179893861858;1.0375826083011555;0.5901972173656578;0.15139721144556212;0.28957012728842396;-0.16230606360736505;90.0
1.5250248716896608;-0.0670522974054276;2.3257008592720667;1.4223783834525228;0.27423508392317664;-0.964248637228531;0.07520488125435174;0.3849930968119881;0.029914518517301664;-1.7116245605369838;0.0008948784181219842;0.04856225145304373;0.07647598654022639;1.092677691742736;1.1939445380322338;1.2965698752155053;-0.672808004790509;0.32093341554210797;0.05298454973543569;90.0
1.5315750805638855;-0.026929253109883637;2.3457222274042726;1.4074315118288356;0.35020080251250824;-0.40028028287478584;0.12264060208040478;0.4422154199539754;0.030531848623942374;-1.3345797723244257;0.0009321937803953318;0.051493830937085726;0.0856531049250536;1.0916289702720463;1.191653808737208;1.2791932276980509;-0.6605034514448798;0.31997217025721986;0.029735869656016992;90.0
1.5576978136869015;-0.7249471641207664;2.426422478764953;1.8188150909625649;0.4618068892782908;-0.393680250967158;0.2132656029848915;0.6104887679388766;0.027366422011977202;-1.1695222542038317;0.0007489210537376303;0.04231671255225857;0.08004486591210361;1.2141347186608058;1.474123115057554;1.4453539308952097;-0.9739602664151751;0.381123325237228;0.26460442952310786;90.0
1.6029266941417586;-1.1437320442394612;2.569373986792227;2.117774937280349;0.6494567189325684;0.1331291379634898;0.42179402976665714;0.852459577952478;0.04010052860684863;1.0276390299653368;0.0016080523945486854;0.04537575201386765;0.1361272560416028;1.3741211715607318;1.8882089941314382;1.8817422357704943;-1.1159259153905607;0.46539275141688813;0.34185620328919036;90.0
1.5968953945194853;-0.894690772944216;2.5500749010375428;1.9348342091464337;0.7619091684362691;-1.1318689010795826;0.5805055809472471;1.1465598999167357;0.04190351308549262;0.6100243170352085;0.0017559044089060516;0.055317630264097084;0.1361272560416028;1.4502606115451284;2.10325584139925;1.74174263410824;-0.7879802601864004;0.5415456942465354;0.6846028904787744;90.0
1.532902891731916;-0.6271741994282688;2.3497912754800705;1.8668637193154558;0.7789642131165558;-1.5922228730317347;0.606785245316295;1.3986800184589456;0.03851217277749676;1.3046542623297748;0.0014831874520437626;0.04588559192413583;0.12949933720811652;1.4945132693936711;2.23356991239376;1.8348060140698323;-0.8791360647279275;0.5758484698791498;0.7692391008814875;90.0
1.3130223864741668;1.0867244522629085;1.7240277873823164;1.3841894406976782;0.7408455201413583;-1.639491496869334;0.5488520847135197;1.2873703186966052;0.03880801314992513;0.8885431702591303;0.0015060618846447617;0.04588559192413583;0.12949933720811652;1.2636249794671524;1.596748088733361;1.502255916485829;1.2281925509582012;0.5578413392042664;1.3210479355543974;90.0
1.218468455370687;0.46909349666191347;1.4846653767334281;1.3841894406976782;0.678032332461273;-1.500012729562935;0.4597278438628743;1.1172373405739673;0.04591960012046572;-0.645621518824984;0.0021086096752234752;0.05378811053329255;0.12949933720811652;1.0534446933649075;1.1097457219786842;1.502255916485829;-0.7404176543369557;0.4851580838236679;0.8394465099327685;90.0
1.3555713009076062;-0.40294396016327283;1.83757355184434;1.6070214520824282;0.6074399283593543;-1.189486805106171;0.3689832665652175;0.8613339185202302;0.04630167970629148;-1.3612620604258272;0.0021438455436240044;0.07724074640562857;0.1233812582848984;1.1190683644639021;1.2523140043439127;1.502255916485829;-0.9604443885268122;0.504936148081564;0.8330043721547346;90.0
1.1302160711356803;-0.7448034424956944;1.277388367453373;1.4998624532388618;0.5262423572651914;-0.2875042615654501;0.27693101858002533;0.6053397473786959;0.0478528508028337;-1.7101259858668953;0.0022898953299582614;0.08539818496991934;0.1233812582848984;1.1044320274296533;1.2197701032123747;1.502255916485829;-1.02762557408204;0.48663175000287184;0.6995291204123794;90.0
1.250939000604425;-1.826067536587119;1.5648483832331974;2.2979649739859784;0.42102822106759674;1.0631045214805062;0.1772647629353451;0.3451725583722545;0.047150958559749635;-1.5665060360573162;0.0022232128931032277;0.0820842255531762;0.1233812582848984;1.2257796803208014;1.5025358246873664;2.171661075461772;-1.9098796548216161;0.5029334938952253;0.35330549453704274;90.0
1.2278473912668308;-1.4084967389361591;1.5076092162407622;2.0924304533741647;0.3154153748587461;2.140314336789147;0.09948685869728333;0.35422031399837234;0.04799026419826674;-1.6621195902707429;0.0023030654578194425;0.0820842255531762;0.1233812582848984;1.189376312163878;1.4146160119365465;1.9066345938726745;-1.3543898028061823;0.5115187320275545;0.6877406097225557;90.0
1.767050608944081;1.1586129586627831;3.122467854569647;2.2894893687983457;0.20399049325421356;-1.8997909376061166;0.04161212133809735;0.3374080235896473;0.04391629575994323;-1.3483695537298763;0.0019286410332748074;0.06984806770674;0.1233812582848984;1.1790656868749376;1.3901958939658683;1.8962742690400514;-1.3321570270622745;0.503377804376252;0.6690427006187898;90.0
1.8413431079379114;0.30458103904367867;3.3905444411504466;2.29177355348793;0.19530029650740058;-1.4338653982308804;0.038142205815878585;0.3409039038255378;0.04042101354336839;-1.0704165872465603;0.001633858335873171;0.05480779035382878;0.11981237891302121;1.3158432029169793;1.7314433346628146;1.8962742690400514;-0.9214571180998412;0.5849372296707499;0.24269666212057256;90.0
1.938506605349259;0.40379592576948653;3.7578078589827077;2.418573482700322;0.18344380538718408;-0.03358769490710602;0.03365162973493106;0.20157442987696644;0.03866216886400861;-1.3710317756055506;0.001494763301269117;0.05480779035382878;0.1096155807076577;1.3644938800297697;1.8618435486386957;2.2445061967922806;-1.0703073937452625;0.5349765375213905;-0.1928253090261348;90.0
2.1126539368349277;-0.8738090196747531;4.46330665682412;3.412934349942282;0.14072348159313064;2.2052991994351356;0.01980309827169218;0.08184809992779907;0.037663640966193575;-1.2788515331578592;0.0014185498508303346;0.05480779035382878;0.1096155807076577;1.478846864539303;2.1869880487577276;2.2445061967922806;-1.3966844202448816;0.6031726680113528;-0.20901779684032562;90.0
2.136242941947255;-0.6966398289810058;4.563533907019464;3.2766056088521758;0.0889284762120424;3.3318477629739616;0.007908273881395792;0.08517090525386523;0.03770058437307256;-1.2871682016236008;0.001421334062071163;0.05480779035382878;0.1096155807076577;1.4626835215352527;2.139443084170768;2.0480896100993324;-1.0439048557980826;0.5630211081518017;-0.5564012477857251;90.0
2.118356484417523;-0.6707891234926768;4.487434195073767;3.2370667236393973;0.05494676978705485;-1.0416306202296373;0.003019147510031604;0.07358386189384214;0.0347175648183535;-1.11214261998877;0.001205309306916577;0.05213113082492088;0.10808606097685321;1.4431150327147317;2.0825809976472414;2.0112267850066337;-1.0094863237873086;0.5594135756039481;-0.5812043331686585;90.0
2.227072957161924;-0.7612927402983678;4.959853956521957;3.289344401152564;0.06052989169943504;-0.14677053122952902;0.0036638677891453354;0.06649224978853924;0.03560550360295173;-0.9687247753657492;0.0012677518868198085;0.05213113082492088;0.11318446007953491;1.5673627173051325;2.456625887598129;2.0617745201146747;-1.0181948700989534;0.5852465777336576;-0.3512385981766141;90.0
2.229212387403939;-0.714986272274954;4.969387868155169;3.289344401152564;0.07210985044080057;0.7931787365148547;0.0051998305305946246;0.07258712158075453;0.033894023622087335;-0.3742971405515654;0.0011488048372946143;0.046650351789538025;0.11318446007953491;1.5607368216307373;2.435899426394016;2.0617745201146747;-0.91520563987957;0.5762321209708009;-0.42568740941380134;90.0
2.3055063264728113;-0.8181737752977583;5.315359421406158;3.4002178996539727;0.09670749328621811;1.1700992824230647;0.009352339257703922;0.10392170878008156;0.033622987541469536;-0.3355837119154036;0.0011305052912138154;0.045758131946568734;0.11318446007953491;1.646223361908903;2.710051357294651;2.1738463570699893;-1.0757642858655687;0.590878875328908;-0.34353345902104276;90.0
2.3093420980919497;-0.8937105634644124;5.333060926019727;3.4714650265276825;0.14162178940793044;0.6295910323756756;0.0200567312351042;0.16969086967510416;0.032076994377129374;0.4388647635159251;0.0010289335682703894;0.03148261445905985;0.11318446007953491;1.6569326240894975;2.7454257207721082;2.229685128631054;-1.1765975701202902;0.5995291050474254;-0.29716662851750414;90.0
2.0983025047040806;-1.4663436868618487;4.402873401247418;3.4714650265276825;0.19213817173439307;0.267535869388971;0.036917077037435124;0.2430562219602438;0.031208051975060682;0.8338434124728208;0.000973942508078089;0.0223054960742327;0.11318446007953491;1.7378237446730034;3.0200313675493;2.8978407744755117;-1.5513625137391647;0.6497421515270672;-0.21478456316695185;90.0
1.942398287553536;-0.310592858487635;3.7729111074909087;2.00627527963911;0.2525512373427461;-0.01568677589312831;0.06378212748335207;0.33167846170015963;0.03212670250318228;0.3964038944718788;0.0010321250137279784;0.032884674212297224;0.11318446007953491;1.4999527830968657;2.249858351520033;1.9529508470129953;-0.9349660769740973;0.5073702278458313;-0.40465763926560727;90.0
1.9561943326260545;-0.34701938331127585;3.8266962669982942;2.128111111032545;0.3229926495875734;-0.2341431882182507;0.104324251687601;0.4355575888948513;0.024788975928901932;0.5022882492520567;0.0006144933276036795;0.028805954930151853;0.0887121443866625;1.5272603799881408;2.3325242682815204;2.171761996372177;-1.0268071379290664;0.511558856310815;-0.3979858047295023;90.0
1.5995758154207942;2.1919634113899846;2.5586427892790984;1.5612171530646446;0.4035443478500101;-0.4027753597292824;0.16284804068168995;0.5546936035443206;0.019897623377756014;1.0825782951496632;0.0003959154160830227;0.024217395737738276;0.0683185479759354;1.2594164143140933;1.586129704643768;1.6170112858790553;-0.23868398405636018;0.3871604596766943;-0.4844419694340834;90.0
1.5995758154207942;2.1919634113899846;2.5586427892790984;1.5612171530646446;0.4035443478500101;-0.4027753597292824;0.16284804068168995;0.5546936035443206;0.019897623377756014;1.0825782951496632;0.0003959154160830227;0.024217395737738276;0.0683185479759354;1.2594164143140933;1.586129704643768;1.6170112858790553;-0.23868398405636018;0.3871604596766943;-0.4844419694340834;90.0
1.5995758154207942;2.1919634113899846;2.5586427892790984;1.5612171530646446;0.4035443478500101;-0.4027753597292824;0.16284804068168995;0.5546936035443206;0.019897623377756014;1.0825782951496632;0.0003959154160830227;0.024217395737738276;0.0683185479759354;1.2594164143140933;1.586129704643768;1.6170112858790553;-0.23868398405636018;0.3871604596766943;-0.4844419694340834;90.0
1.5995758154207942;2.1919634113899846;2.5586427892790984;1.5612171530646446;0.4035443478500101;-0.4027753597292824;0.16284804068168995;0.5546936035443206;0.019897623377756014;1.0825782951496632;0.0003959154160830227;0.024217395737738276;0.0683185479759354;1.2594164143140933;1.586129704643768;1.6170112858790553;-0.23868398405636018;0.3871604596766943;-0.4844419694340834;90.0
1.5995758154207942;2.1919634113899846;2.5586427892790984;1.5612171530646446;0.4035443478500101;-0.4027753597292824;0.16284804068168995;0.5546936035443206;0.019897623377756014;1.0825782951496632;0.0003959154160830227;0.024217395737738276;0.0683185479759354;1.2594164143140933;1.586129704643768;1.6170112858790553;-0.23868398405636018;0.3871604596766943;-0.4844419694340834;90.0
2.4613402387016134;-0.3228934444323878;6.058195770651714;2.8599366084057487;1.1010740812221071;-0.722195941093044;1.2123641323391074;1.5623894521459;0.07916201173668937;-0.12026238036529335;0.006266624102199745;0.10604670133578052;0.2610380340573059;1.4538930270302592;2.1138049340472103;1.8740207824583224;-0.8751399589196157;0.4217038340957426;0.4717659347149432;0.0
2.4613402387016134;-0.3228934444323878;6.058195770651714;2.8599366084057487;1.1010740812221071;-0.722195941093044;1.2123641323391074;1.5623894521459;0.07916201173668937;-0.12026238036529335;0.006266624102199745;0.10604670133578052;0.2610380340573059;1.4538930270302592;2.1138049340472103;1.8740207824583224;-0.8751399589196157;0.4217038340957426;0.4717659347149432;0.0
2.4613402387016134;-0.3228934444323878;6.058195770651714;2.8599366084057487;1.1010740812221071;-0.722195941093044;1.2123641323391074;1.5623894521459;0.07916201173668937;-0.12026238036529335;0.006266624102199745;0.10604670133578052;0.2610380340573059;1.4538930270302592;2.1138049340472103;1.8740207824583224;-0.8751399589196157;0.4217038340957426;0.4717659347149432;30.0
2.4613402387016134;-0.3228934444323878;6.058195770651714;2.8599366084057487;1.1010740812221071;-0.722195941093044;1.2123641323391074;1.5623894521459;0.07916201173668937;-0.12026238036529335;0.006266624102199745;0.10604670133578052;0.2610380340573059;1.4538930270302592;2.1138049340472103;1.8740207824583224;-0.8751399589196157;0.4217038340957426;0.4717659347149432;30.0
2.4613402387016134;-0.3228934444323878;6.058195770651714;2.8599366084057487;1.1010740812221071;-0.722195941093044;1.2123641323391074;1.5623894521459;0.07916201173668937;-0.12026238036529335;0.006266624102199745;0.10604670133578052;0.2610380340573059;1.4538930270302592;2.1138049340472103;1.8740207824583224;-0.8751399589196157;0.4217038340957426;0.4717659347149432;30.0
2.4613402387016134;-0.3228934444323878;6.058195770651714;2.8599366084057487;1.1010740812221071;-0.722195941093044;1.2123641323391074;1.5623894521459;0.07916201173668937;-0.12026238036529335;0.006266624102199745;0.10604670133578052;0.2610380340573059;1.4538930270302592;2.1138049340472103;1.8740207824583224;-0.8751399589196157;0.4217038340957426;0.4717659347149432;30.0
2.3607124294413646;-0.021334474359592143;5.57296317451895;2.29995927124402;0.9307106530669369;-0.6521775514782385;0.8662223197322841;1.310384109954624;0.08899338026555755;-0.9075261035297585;0.007919821731090128;0.10987050066279182;0.2610380340573059;1.2580013470794096;1.582567389253609;1.4453382571683284;0.7900028482158551;0.3925665378278656;0.8345024655575236;30.0
2.11903038811488;2.3043342019392057;4.4902897857543;1.7192312826634484;0.7775945424721895;-0.5701651108299625;0.6046532724825338;1.0843376861616383;0.0891871141442468;-0.934049307580503;0.00795434132937891;0.10987050066279182;0.2610380340573059;1.2386551304824107;1.5342665322703977;1.354377455360023;0.8794359048737884;0.38012337646228705;0.7301738147015461;30.0
2.05463224968821;3.6206714944963485;4.221513681458835;0.9512196548056355;0.6416536669245503;-0.4757944031122778;0.41171942827772173;0.884250180766943;0.0819604547177808;-0.013475500484600746;0.006717516137545397;0.053788110533292424;0.2610380340573059;1.217593956023795;1.4825350417456749;1.1583169809185927;1.073670038508168;0.37068625594986715;0.7349979476685415;30.0
2.0479415693961123;3.6368061959653804;4.194064671660612;0.9006033568806378;0.5227939141095963;-0.37116342846477224;0.2733134766300319;0.7101215937705391;0.072889793532088;1.539749309554517;0.005312922001150418;0.053788110533292424;0.2610380340573059;1.2046808902268547;1.4512560472777671;0.9925863847949983;1.4962564382636134;0.37189580684941426;0.8895117656033616;30.0
2.0670893030310005;3.5182386550363924;4.272858186705187;1.1872455803996145;0.45411670094960316;-0.2735221672940159;0.2062219780813513;0.561951925172425;0.07225342770392337;1.8056170146847035;0.005220557814966081;0.04384623228306305;0.2610380340573059;1.22149071480141;1.4920395663460597;1.224207443699075;1.0784789444930973;0.37352404703753556;0.7852659115644378;30.0
2.3078187735305837;2.186486103748377;5.3260274914602075;1.1872455803996145;0.4355094710015326;-0.1467129679749186;0.18966849933203478;0.43974117497258014;0.07275748775621405;1.4700329701240034;0.005293652024595637;0.047670031610074375;0.2610380340573059;1.5462781443427795;2.39097609967215;1.224207443699075;0.26177682078819436;0.4450831615039195;0.968568323162607;30.0
2.5177023083408803;2.157127250979197;6.338824913424996;2.3806698627534573;0.37460857546088533;-0.48721894486090483;0.14033158480883381;0.5022894078566461;0.07300856878995257;1.3639041454490521;0.005330251116757236;0.04843479147547662;0.2610380340573059;1.7112069257440405;2.92822914271437;2.39277055306977;-0.9929898968772949;0.426601145693464;0.7990958720070848;30.0
1.8071269034251296;-1.8471260078785643;3.2657076450828977;3.091754470366995;0.3113960371962763;-0.3187809656258008;0.0969674919815447;0.41106052298407203;0.051307449742585116;0.33985145212906176;0.0026324543990878975;0.04690527174467207;0.1478535739777708;1.81311158838896;3.2873736319503375;3.1388095339106368;-1.854636466426808;0.40170221891094465;0.45693226419379174;30.0
1.9863739237867823;-2.026822189397337;3.9456813651000977;3.6221012466782163;0.26441438517002325;-0.25904492089423875;0.0699149670848414;0.34986849783932594;0.03884074520741202;3.9083943144693074;0.0015086034882670998;0.033139594167431397;0.13255837666972559;1.993708895538553;3.9748751601495567;3.6574410906154258;-2.0461986550563434;0.4270387927778418;0.417771991975214;30.0
2.013765551127914;-2.276010397463721;4.055251694909511;3.8160615987085924;0.2501053057607491;-0.9377925698552444;0.06255266396967778;0.31811106142727025;0.039018208182560125;4.5938568324075915;0.001522420569777602;0.027276435199347394;0.13255837666972559;2.0200144677779486;4.0804584500322285;3.852347770371829;-2.2805275700798555;0.39747096353725375;-0.05842845069207684;0.0
1.8969262942006657;-1.829274181901813;3.598329365629871;3.4916122205102287;0.2749237195539392;-0.6946291043947974;0.07558305157337301;0.3941974849357207;0.018634088810179902;1.1424915458518694;0.0003472292657856718;0.018864076679922466;0.06423982869379;1.901548717269477;3.6158875241491932;3.5033441967128365;-1.8204357953830796;0.355327383225133;-0.4393514134701878;0.0
2.4166229113075013;-0.11231503891785367;5.840066295456344;3.4916122205102287;0.24659267781500782;-0.6061805963781249;0.060807948751976246;0.33187890651696805;0.029227659553130038;2.3928102988449984;0.0008542560829536736;0.018864076679922466;0.0968695829509533;2.2754519164923384;5.177681424268656;3.5033441967128365;-0.7716137800349239;0.44320938112828817;-0.7851685771057946;0.0
3.0160057716058732;-0.07111738234312424;9.09629081435994;3.4916122205102287;0.25139243811129536;-0.9765864598171586;0.06319815793954148;0.3148058919467226;0.03356177162253408;0.8430778021978094;0.0011263925144431334;0.018864076679922466;0.0968695829509533;2.3999948409544087;5.7599752366077785;3.5033441967128365;-0.9826891535454452;0.4755213858547154;-0.7798088598963818;0.0
3.4463840122644207;-1.3346131451751286;11.877562759991806;5.818743672937438;0.2580756753809064;-1.2010850622733464;0.06660305422331098;0.41361607979535353;0.031546783616650816;0.8712618069143728;0.0009951995565557882;0.018354236769654347;0.0856531049250535;2.604412273104277;6.782963288296186;4.780347228228018;-1.5703491791341955;0.5353771225311466;-0.653107632093763;0.0
3.874668723642744;-2.140068492371347;15.013057717975293;7.411137719007233;0.3986412498098476;1.6957763745280658;0.15891484604995731;0.4424539690566065;0.03358740646819992;-1.1234604412066977;0.0011281138732600776;0.0517487508922198;0.0856531049250535;2.7144433094925957;7.368202480449115;5.191508472415025;-2.052704487080845;0.5775206414647648;-0.45417800237524597;0.0
3.933466549379734;-2.4232641235322347;15.472159095089308;7.490500993478985;0.5783749223063805;0.7450007605059688;0.3345175507529117;0.535592897973584;0.03183332325899595;-1.340273266029749;0.0010133604697117327;0.05225859080248795;0.0846334251045171;2.732540690507599;7.466778625279744;5.191508472415025;-2.294103921975311;0.6350190747742018;-0.010370675711730431;0.0
3.8507877254248495;-2.116571066998126;14.828566106282684;7.323672881999407;0.7610729315015142;-0.009518515103716802;0.5792320070643086;0.8898908439080739;0.029467198239443656;-1.4158838414913133;0.0008683157720826714;0.04537575201386763;0.0795350260018354;2.5996323276299176;6.7580882388585435;4.91880741739483;-1.924478604466861;0.664528195998368;0.40296941651128243;30.0
3.522490954948212;-1.0189606786016547;12.407942527691965;4.959087748400188;0.8812827316390486;-0.9270026556149408;0.7766592530851832;1.2620031404623393;0.02842958854161812;-1.281094434970615;0.0008082415046457043;0.042571632507392626;0.0795350260018354;2.3493925932193735;5.519645557074052;3.318960592092129;-0.919413040358382;0.667007182496022;0.8247925325371734;0.0
2.949317018120044;0.41444406501487563;8.698470873372507;2.751655383321539;0.9615657893305338;-1.566927539446078;0.9246087672108525;1.5472906892616483;0.027512675668671775;-1.480947801792933;0.0007569473224495238;0.048689711430610676;0.0764759865402263;1.9657946141749802;3.864348465119359;2.260904562304753;0.11387788127781004;0.6097650469359338;0.9591660355803178;0.0
2.373894442628491;0.2751674067264998;5.635374824742435;2.751655383321539;1.0200604232121115;-1.8130930645021988;1.040523267003672;1.8527548159602878;0.03520874343184221;1.095077068057441;0.0012396556140492918;0.03696339349444262;0.1172631793616803;1.634728887637142;2.6723385360753675;2.260904562304753;-0.8246398836533879;0.5364343394382716;0.5645034814610205;0.0
2.2670193227968656;-0.17017328687000496;5.1393766099343585;2.751655383321539;1.0584194567716438;-1.6225970882032743;1.1202517464727817;1.8665523114008817;0.033055429068678914;0.7493735019904812;0.001092661390914463;0.03925767309064945;0.1152238197206076;1.7538455667001376;3.075974271833727;2.260904562304753;-0.28327495219004917;0.5643531091679638;0.760513585073014;0.0
2.530438660977728;-1.6445770971075149;6.403119816970756;4.245285319864077;0.9691859820591281;-1.2588500545593766;0.9393214678199165;1.5011267255920053;0.03272984271310262;1.0717910127267132;0.0010712426040244368;0.03568879371877215;0.1152238197206076;1.7670049326769683;3.122306432104738;2.6939001784002787;-1.34767179382203;0.4905166666391651;0.45636513436672377;0.0
2.827302033921572;-1.816422181862092;7.993636791017059;4.838744389585885;0.8368843235800145;-0.07801984797763849;0.7003753710539784;1.0894395222148576;0.032564232462715635;1.327412479880332;0.0010604292358857828;0.0349240338533699;0.1152238197206076;1.9498315259005092;3.8018429793955084;3.1807544747792735;-1.413752228278734;0.46873250385402576;0.2609515596879584;0.0
2.854181140774345;-1.8820729515677936;8.146349984351941;5.091793014116671;0.6119186727967456;0.5738818026569226;0.3744444621173307;0.6407696392385671;0.0300178395086237;1.8960842206164474;0.0009010706887654899;0.0349240338533699;0.0958499031304169;1.8282641420018972;3.3425497729299334;3.235300749085744;-1.7792416590246145;0.39290208193756315;-0.030265371177973132;0.0
2.5609949511914096;-1.4119356455414116;6.558695140027892;4.400704351613255;0.42493412108204803;1.673601239367052;0.18056900725977268;0.3921743713837036;0.030300536934559395;2.005418248961142;0.000918122538522598;0.0349240338533699;0.0958499031304169;1.6639562773166698;2.7687504928215505;2.7674169968021367;-1.3157761795505638;0.3330956227829785;-0.4160632152721388;0.0
2.2912760865733284;-0.17515063056910357;5.249946104902786;2.300504279408111;0.2680416488011375;0.41389860586961696;0.07184632549203233;0.2998760486063383;0.03241346185146014;-0.22570561834733635;0.0010506325091960622;0.042189252574691444;0.0958499031304169;1.4174960801477625;2.009295137234272;1.8652564033177708;-0.9329012442000507;0.2725919577187013;-0.3782808601339417;0.0
1.8059105962723176;1.2279336157418632;3.261313081728638;2.155756344838003;0.19055814278369024;-0.9309528701695672;0.03631240578116928;0.2328687533257212;0.032915684732535;-1.0833516245799433;0.0010834423014116374;0.052131130824921004;0.0958499031304169;1.2175882667661742;1.4825211873666562;1.7957146581797794;-0.5216473665087038;0.2274156361609359;-0.24329175142216847;0.0
1.2768502501103005;-1.377658487675376;1.630346561206737;2.155756344838003;0.2033876099694951;-0.46069247558414517;0.04136651988910346;0.2328687533257212;0.02986543187721496;-0.6393890537146382;0.0008919440212125676;0.041424492709289384;0.0958499031304169;1.0504377110326957;1.1034193847596092;1.7957146581797794;-1.2710966113662328;0.1925970798603522;0.2779968799705504;0.0
1.217363957724343;-1.2308263042641312;1.4819750055662757;2.0576233228954637;0.26317737231369887;-0.4092845530398895;0.06926232929794326;0.2998760486063383;0.031666718248561404;-1.0190781881256368;0.001002781044633772;0.052131130824921004;0.0958499031304169;1.0449704914674993;1.091963328037827;1.7957146581797794;-1.2567609213225357;0.19142320010653346;0.28462618711782106;0.0
1.2853538185367657;-1.4644309702695264;1.652134438827045;2.155756344838003;0.3441512236258751;-0.07746097059206443;0.11844006472318708;0.4024490393289071;0.0267313148547015;-0.814180738254389;0.000714563193861185;0.03556133374120522;0.0764759865402263;1.1513025519229168;1.3254975660642203;1.8286150259642904;-1.4973921280513554;0.21627003464488456;0.33672932951498147;0.0
1.2294421799252915;-0.7489400938376772;1.511528073779453;1.777017867694508;0.42596532403326787;0.0942483336213021;0.18144645727876688;0.43918025153042883;0.02834881065197917;-0.27757753482290426;0.0008036550653817677;0.025746915468542877;0.0795350260018354;1.096678250750537;1.2027031856692576;1.4159049837213917;-0.5881115991126903;0.21242628260144106;0.7991984779865511;0.0
1.2368006824756805;-0.8719832462799465;1.5296759281723091;1.812562692681019;0.5176022503430115;-0.062168041457513014;0.26791208956014956;0.6587889068135255;0.029189095531118946;-0.1017627486177309;0.0008520032979247881;0.02906087488528593;0.0795350260018354;1.06813633930845;1.140915239351256;1.1696779162073057;0.24545460384127335;0.21017852112651325;1.108012948256448;0.0
0.9959199509912565;-1.6521857169734149;0.9918565487824268;1.751482738521692;0.6080848785827844;-0.8046153204341339;0.36976721956103964;0.8859052781317964;0.030827589147087192;-0.047448716541636723;0.000950340252621608;0.03211991434689498;0.0815743856429081;0.761825225651305;0.5803776744386617;0.6140864107649078;0.9673759282383229;0.15677154070250782;1.1275157182309312;0.0
0.9115082156009615;-2.237927743049606;0.8308472271080489;1.751482738521692;0.6606891999782111;-1.5933699909626868;0.4365102189678486;1.138561012761194;0.033936645553369345;-0.19338220173478657;0.0011516959114150234;0.0344141939431018;0.10247782196390331;0.5451030650500729;0.29713735152698395;0.6140864107649078;0.04576569709824189;0.11505262580529249;0.4948112994872134;0.0
0.8640831676219565;-2.0337785133226016;0.7466397205675942;1.627318338277857;0.694184234994551;-1.7855575907938241;0.48189175211497;1.2495265437567826;0.03431276887691503;-0.19435379969171201;0.0011773661080005887;0.0344141939431018;0.10247782196390331;0.4045852087204933;0.1636891911154051;0.5069458676989571;-0.6327678672767364;0.08770822486298022;0.012179970482202429;0.0
0.8143526372609203;-1.7257005421808767;0.6631702178138161;1.5328787778173254;0.6938095250732397;-1.4469282130773762;0.48137165708235435;1.1437035272053442;0.02817021220262276;1.9623375730873036;0.0007935608555407961;0.02447231569287235;0.10247782196390331;0.42251637849157186;0.17852009009363323;0.6782099568904574;-1.0384639057040812;0.09208471437289364;0.1120895737175741;0.0
0.7700946003340756;-1.482081698166517;0.5930456934636997;1.2355127846226557;0.6425803803257244;-1.261977668452701;0.4129095451795526;0.9413091029017604;0.018165141200310445;0.7611328594527355;0.00032997235482721594;0.018354236769654253;0.0657693484245946;0.53229966358569;0.2833429318534388;0.7381771963318275;-0.7440507231122656;0.11843119006131426;-0.24909166850648432;0.0
0.6699201116936768;-0.8637573078179089;0.44879295605166836;1.056213389147346;0.6130661428362166;-0.6344988851591405;0.3758500954920763;0.7709348569040926;0.01492911318120016;0.6815622397260209;0.00022287842037708436;0.017589476904252024;0.052513510757622006;0.5424415642764848;0.29424285065471983;0.8411501776938852;-0.9738168081914788;0.12105745552838183;-0.18852343885427675;0.0
0.6370940535550427;0.20954973472614874;0.4058888330751956;0.6809636240206767;0.5825638126474305;-0.2934768502821744;0.3393805958063105;0.6305206312279741;0.017049044566513235;-0.5486434952436048;0.0002906699206309544;0.017334556949117924;0.052513510757622006;0.542822474381838;0.29465623869402113;0.8411501776938852;-0.941528394296049;0.12073813882741424;-0.29093024711163396;0.0
0.6671318667667719;1.2063859672950292;0.4450649276557179;0.6715712891120749;0.5310349714621514;-0.7177298285473509;0.28199814091580794;0.6563740786343308;0.02170059511693933;-0.048644428736504305;0.000470915828429331;0.025491995513408826;0.0723972672580808;0.6454025927358172;0.41654450671011517;0.7591021720657913;0.13670566220762176;0.1377757425190038;-0.0037461716353602045;0.0
0.6677357342897705;0.9501565932947226;0.44587101084749897;0.7180997944089764;0.47221450314211694;-1.6128060615562612;0.22298653697775636;0.8698998094274287;0.02195675031437023;-0.1234217063259838;0.00048209888436759714;0.0257469154685429;0.0723972672580808;0.6458314383435473;0.4170982467528951;0.7591021720657913;0.12520556196162097;0.13779969309585124;-0.01665305622820936;0.0
0.6704613048397243;0.8498879655430572;0.4495183612873858;0.7316055923216425;0.4304157110906879;-1.9649463867715415;0.1852576843537025;0.8267166148005834;0.021622729412770037;-0.040393692492154444;0.0004675424272578704;0.024727235648006527;0.0723972672580808;0.6335857163190037;0.40143085992346506;0.6577063896014854;0.46319473380920534;0.13600004212750136;0.11943061632598505;0.0
0.6831644077673226;0.743146512885812;0.46671360804007656;0.7887739818740735;0.40599236937615507;-1.4915284415230303;0.16482980399166436;0.6619403402304035;0.02168195416395117;-0.14262938005482337;0.0004701071363676794;0.026001835423676976;0.0723972672580808;0.6482455229658176;0.42022225804522634;0.7023820909105636;0.42636067134604716;0.14200842654963658;0.5263843847149767;0.0
0.7729626666102476;0.8092390859674126;0.5974712839732248;0.740164526926947;0.34586410411760354;-0.46755656202381807;0.11962197851707251;0.4539809907476383;0.020660646852672993;0.7411831055579553;0.0004268623283708664;0.015805037218313427;0.0723972672580808;0.7348940957085635;0.5400693319073072;0.6774044219759796;1.0000001649172188;0.16865745217466957;0.3815583635217188;0.0
0.8886216027479473;0.007492652413191588;0.7896483528703307;1.1878258945666005;0.26654754155900046;1.0861490948925063;0.07104759191114708;0.22225758479281654;0.02045609764666005;0.7751563480435634;0.00041845193092969094;0.013255837666972553;0.0723972672580808;0.8561789603226303;0.7330424120991402;1.041838651169924;0.17139472609963594;0.20395870724671325;0.3118392966599569;0.0
1.0130212016206286;-0.5839175826475932;1.026211954932902;1.5374089856347277;0.18026354804375658;3.8488887499127284;0.032494946753323734;0.03494304588498487;0.016881784125788418;2.0427651452180657;0.0002849946352697218;0.005863158968084023;0.06423982869379;0.9843015239069601;0.968849489965564;1.467007411330978;-0.4856537621618173;0.24343654137387774;0.27069324174412507;0.0
1.0283357323712972;-0.7090712800497825;1.0574743784716123;1.587416632920469;0.09556600857871919;8.080697905839754;0.00913286199566783;0.029209692830659217;0.013563402643952477;3.5435363338653483;0.00018396589128197703;0.007392678698888575;0.0509839910268175;1.0094022353452885;1.0188928727200652;1.555848246248904;-0.7098251451923245;0.2518579586355523;0.32046011397844426;0.0
1.1822932880569446;-0.982002706842527;1.3978174189845012;1.7751947247023145;0.08586600964239191;7.572051823024166;0.00737297161190734;0.04427692726516985;0.013833280423464973;1.9041147020689329;0.00019135964727421924;0.011981237891302201;0.0509839910268175;1.16857596195268;1.3655697788536314;1.7394922381473528;-0.9410130706620754;0.3062680009891881;0.26164117607905757;0.0
1.183624704721129;-0.5355672525074091;1.4009674416261797;1.7423001173844304;0.12194367650378463;1.3330209329029603;0.014870260239259676;0.053362066319385004;0.013510917948171323;2.860267905050447;0.000182544903802218;0.006627918833486325;0.0509839910268175;1.1737309914527227;1.3776444402965913;1.754080095418844;-0.5297635053251781;0.3224782964895427;0.7014979236743732;0.0
0.9262688075614297;-0.6427437773585771;0.8579739038612728;1.163721964552546;0.13715415215375593;-1.1331270927518362;0.01881126145301563;0.21362354809632356;0.008054825189408385;2.327076191259075;6.488020883192783e-05;0.004333639237279526;0.0316100744366269;0.9230861930253095;0.8520881197539588;1.1423974805835533;-0.6458614169016873;0.27825568490127095;0.7726599071165949;0.0
0.7798407030918358;0.6377162679781055;0.6081515221987689;0.8740911383808774;0.14128760041476957;-2.0404337097512917;0.01996218603096359;0.2567411050333934;0.008290191342583214;1.1060362770168837;6.872727249664167e-05;0.006627918833486325;0.0265116753339452;0.7762338960187776;0.6025390613284904;0.8334452132398136;0.6864504422482918;0.24250579175768197;0.8983776622101278;0.0
0.552024644869822;0.17244225551627274;0.304731208543653;0.6015145260939496;0.13929016698180904;-2.2805985452619657;0.01940175061782025;0.24677214811965986;0.007754484583494909;1.5163033612816375;6.013203115566021e-05;0.0063729988783522255;0.0224329560517998;0.5472687845126537;0.2995031225019574;0.5624091478828248;0.25823568398750546;0.17941075512580343;0.26094423018907836;0.0
0.5543886601629577;0.2033049674973252;0.3073467865172795;0.6015145260939496;0.14403202657835587;-2.077525755878945;0.02074522468026821;0.25752272329068127;0.0076123953253362546;1.5294366298525088;5.794856258920126e-05;0.00611807892321815;0.0224329560517998;0.5423047503924485;0.2940944422982159;0.5624091478828248;0.19462889362660515;0.17792667335726753;0.22230704201482665;0.0
0.593766358795164;-0.7075126475279246;0.3525584888368674;0.9015300567286788;0.1483355061260999;-0.8866095532465573;0.022003422377686214;0.20861561683697877;0.009234219053568268;1.1041307545623797;8.527080152928323e-05;0.00611807892321815;0.0336494340776996;0.576590220903011;0.33245628284098305;0.8496416857563416;-0.6057665488885239;0.18609801336234813;0.027540958629202805;0.0
0.6674003033966965;-1.1372424025574424;0.44542316497400264;1.029543978484356;0.1307632193541021;0.6642375028972539;0.017099019535849018;0.059127374303132196;0.009138642376257302;1.2562531558982701;8.351478448112572e-05;0.004588559192413626;0.0336494340776996;0.649748152509084;0.42217266168896794;0.9604249531196807;-1.067509281758708;0.20223593779127783;-0.16704018348388364;0.0
0.6328221382200723;-0.4567972953507124;0.40046385862142425;0.7771549290640829;0.10018325476438665;4.270511206630813;0.010036684535186;0.05005931634632754;0.01064305653230782;0.1436983069765963;0.00011327465234990019;0.00611807892321815;0.034669113898236;0.6214226616296327;0.3861661243868569;0.7601347586768679;-0.4448353367506159;0.19052306070513986;-0.3894128711418369;0.0
0.6810726615868414;-1.2539501412725182;0.4638599703609843;1.029543978484356;0.05534200002331456;4.015532449493635;0.003062736966580549;0.05494780704375202;0.014300178911614603;0.07201788095239234;0.00020449511690418703;0.013510757622106725;0.0458855919241358;0.6704378505656576;0.44948691147109915;1.0058570427724227;-1.2693643721844465;0.21035384358712392;-0.12072567194760145;0.0
0.6375021489952051;-1.5648162385781386;0.4064089899735047;1.029543978484356;0.053600749038442926;3.934531996336989;0.00287304029748214;0.04910710517584577;0.014470434694543472;-0.13142819092917332;0.00020939348024904744;0.015040277352911254;0.0458855919241358;0.6297403507263127;0.39657290933289935;1.0058570427724227;-1.5578831398774422;0.19601597245950475;0.06541846279965002;0.0
0.6223789399834856;-1.3198305734270595;0.38735554493496716;0.9473018635930828;0.06039754960031525;2.852410074432803;0.0036478639977225408;0.05584917238762166;0.014941392839717576;-0.763182794958365;0.00022324521999076365;0.017844396859386227;0.0458855919241358;0.6144512189817605;0.37755030050817134;0.9228372443029942;-1.303130384535444;0.188965734786562;-0.13076291381600819;0.0
0.7908894582872414;-0.046607671539607765;0.6255061352298862;1.0417115200845002;0.10020759288348105;3.1722297387469345;0.010041561671501482;0.06619935745801742;0.015523860163378977;-1.1483725485535774;0.00024099023437214477;0.019373916590190752;0.0458855919241358;0.7598313793122499;0.5773437249875562;1.021289050410052;-0.3263167461037827;0.24005775570046506;-0.6550170618436625;0.0
0.8395910980375959;-1.054535177837224;0.704913211903976;1.1793409382009585;0.17054408417207392;2.6729837625077377;0.029085284646091433;0.0895950438657448;0.016755393924768932;-1.1896441102779558;0.00028074322557418365;0.02625675537881108;0.0489446313857448;0.7926833238438732;0.6283468519001708;1.1575929322251293;-1.105680647502116;0.26216607533108827;-0.16127541943895712;0.0
0.8354330501981683;-1.0149173654880717;0.6979483813634152;1.159355084559711;0.2500221068239408;0.8549044366862982;0.06251105390068207;0.22941794223894185;0.016686302071657694;-1.1638789865096857;0.0002784326768266079;0.02625675537881108;0.0489446313857448;0.7929867525296195;0.6288279896874719;1.159681535084343;-1.109227605062447;0.26219398287838763;-0.16457071664108253;0.0
0.7969270205476545;-0.9668382848352027;0.6350926760789618;1.0424296376716113;0.29814217692027944;-1.0206205542826474;0.08888875765876322;0.42686239816486693;0.016770211494042415;-1.206931509011198;0.0002812399935549123;0.02651167533394515;0.0489446313857448;0.7387328256592405;0.5457261877064857;0.9653599025138422;-0.9144254415134395;0.25931555428895103;0.21160523042738402;0.0
0.7409650394695919;0.08366137290998564;0.5490291897161739;1.0294979121538574;0.3353451291798715;-1.4901104381134727;0.11245635566466472;0.6039803202892339;0.016770211494042415;-1.2069315090111863;0.0002812399935549123;0.02651167533394515;0.0489446313857448;0.6824643224165327;0.465757551371457;0.8908874934072841;0.23337405292467395;0.24898059986400442;0.6184249512072866;0.0
0.541354095290646;-1.0132976043600255;0.2930642564879539;0.8613285310275249;0.3641041544610047;-1.8119296526685278;0.13257183529576316;0.6238571242807542;0.017885299029038206;-1.5245808337694673;0.00031988392135811505;0.030335474660956502;0.0489446313857448;0.4941683120685448;0.24420232065267466;0.7078930307535698;-0.5298292305098207;0.19069826683706884;0.03181734637751401;0.0
0.4860278448863454;0.28229406653235756;0.23622306600486542;0.350811154491244;0.3607490168453941;-1.749310126012265;0.13013985315491847;0.6336085344141317;0.017778725169942666;-1.509078514542937;0.0003160830686683529;0.029570714795554204;0.0489446313857448;0.4536558578978699;0.2058036374050523;0.2866671420671971;0.5716382530231385;0.17957500091495443;0.32309508419744265;0.0
0.48616580745445254;0.2722949839809914;0.2363571923378398;0.35486861551822546;0.3222729105767333;-0.9301770638214332;0.10385982889159914;0.45305955022314803;0.01583050868885753;-1.6228077175944635;0.0002506050053479938;0.028041195064749648;0.0412970327317223;0.45574644906076023;0.20770482583149213;0.3587719532206841;0.41525889311669417;0.17888164401735052;0.1478415284558543;0.0
0.4865667976900304;0.2249246557534634;0.23674724861433097;0.36406294104929326;0.2648214722267789;0.3214363004015541;0.07013041215235863;0.27324274315268104;0.01488959504203597;-1.1598675215875234;0.00022170004051582216;0.021158356276129248;0.0412970327317223;0.4541198843701664;0.20622486938037332;0.35646421819800356;0.4672641867808431;0.1762320947086827;-0.0818140444336171;0.0
0.40638922364897956;1.3777916784779995;0.1651522010980203;0.36406294104929326;0.18990979833768076;1.7006933412104144;0.036065731504658576;0.1270601184554918;0.013330686117450275;0.1762094844542109;0.0001777071923619815;0.017589476904252;0.0412970327317223;0.4121928219182968;0.16990292244096875;0.35646421819800356;1.3884589841256292;0.16212264844893;-0.24604533140182638;0.0
0.33371052245312377;2.4444679929102113;0.11136271279593683;0.2868811362865662;0.12297883471493003;1.489284702945638;0.015123793787842078;0.11551402039770164;0.014037324723008612;1.1430835139978228;0.0001970464853791888;0.015805037218313427;0.0479249515652084;0.30403615824317937;0.09243798551927161;0.21117332720765436;1.9409173923081258;0.11625049908614789;1.0568049389685956;0.0
0.3942694386172949;-0.19112169939058837;0.15544839022759688;0.3989165249402493;0.10268379381445963;-0.20175296857765446;0.010543961512130459;0.11551402039770164;0.016355984292614312;-0.490698374712862;0.0002675182221802461;0.016952177016416877;0.0479249515652084;0.3317429661747627;0.11005339560642972;0.298806669289037;-0.024795211325574433;0.12199930254609352;0.8574525053773145;0.0
1.156370560262209;8.090431454371643;1.3371928726411353;0.2868811362865662;0.1488067106096687;1.295896153517339;0.02214343712246969;0.11551402039770164;0.015314162924066923;-0.34594280851863196;0.00023452358606486598;0.015932497195880527;0.0479249515652084;0.4676365613340217;0.21868395349630826;0.21117332720765436;3.629156973674184;0.18452709104137355;-1.232813407501236;0.0
1.2480901452114788;3.6903881277213495;1.55772901057401;0.2868811362865662;0.21948753417098957;0.8880554060428827;0.04817477765646131;0.20359736459659183;0.016058743223018913;-0.5425633974407853;0.00025788323390285584;0.015932497195880527;0.0479249515652084;0.7107428629448723;0.5051554172270736;0.21117332720765436;1.803714179724484;0.29716996281604136;-1.44262845359021;0.0
1.2940003286796364;1.5286914137619851;1.674436850623007;1.3932321936716674;0.31185578867984404;0.8465113431389345;0.09725403293312752;0.34822468103103144;0.02033409910875327;-0.4066189036972934;0.00041347558656460066;0.02358009584990315;0.0652595085143264;0.8710079253706836;0.7586548060585423;0.9901980695456598;-0.647086394910513;0.39431451419370994;-0.8949548630819263;0.0
1.282595631037906;1.3634293186445734;1.6450515527575247;1.516164847699722;0.3916565320080918;-0.13614985390728102;0.15339483906460544;0.5015962686034807;0.027237361840999372;-0.024306268361063945;0.0007418738800575287;0.0266391353115122;0.0876924645661261;0.8767860997384713;0.7687538646946006;1.1956494110384432;-1.2006193102116909;0.4145877474986217;-0.5214710578118477;0.0
1.282570066651969;0.7353787334255354;1.6449859758716365;1.6694712057738186;0.4900405803898447;-0.6243742694183574;0.24013977042881585;0.712728571439727;0.027141760174599648;-0.11957238324186038;0.0007366751453754835;0.0266391353115122;0.0876924645661261;0.9268474642949288;0.8590462220699393;1.5523286523147921;-1.794320976352609;0.47095762390554713;-0.07410902268953956;0.0
1.3355891064828833;-0.5175867512941339;1.7837982613557466;1.7626440442273044;0.5813276664481263;-1.2138993141643186;0.33794185577802394;0.9201514623787433;0.03085381073295341;-0.7975290667729433;0.000951957636744911;0.03568879371877232;0.0887121443866625;1.0141837652427148;1.0285687096818898;1.7377696877797884;-1.5566183093345916;0.5842649253282163;0.2186312543117849;0.0
1.408077524875583;-1.0172152641556644;1.9826823160597482;1.9539633017165692;0.6526281285399768;-1.342982650945017;0.42592347416159243;1.0392565811816366;0.03607371075143713;-1.2321183286851043;0.0013013126073783505;0.0568471499949016;0.1029876618741714;0.9827287345491071;0.9657557657084895;1.3913717994979382;-0.8512867296314691;0.6296096787515796;0.7156285219171464;0.0
1.4969653088513608;-0.6674341339387573;2.24090513590445;2.0437672555585245;0.6940581455132906;-1.407588691956162;0.4817167093533481;1.092938812946053;0.03617971913208509;-1.2622396232450572;0.001308972076476564;0.05761190986030387;0.1029876618741714;0.8782390073146991;0.7713037539691081;0.8961085136168485;0.664802657864986;0.6036214677595473;1.0068574296819364;0.0
1.5147153859060274;-0.13222037538274378;2.2943627003004456;1.9783720438445827;0.6857051365461375;-1.4663689775847755;0.47019153428575705;1.1232910102001;0.0323873882927352;-0.9826247411344943;0.001048942920424401;0.0469052717446722;0.0999286224125624;0.8155791126234613;0.6651692889476725;0.8835107860768614;2.4867061289188155;0.5879170018534131;1.3149966435486622;0.0
1.2341644988926888;-1.5019207207162104;1.5231620103270416;2.069419159912261;0.6625473618732697;-1.3521932043844629;0.4389690067252293;1.0227049507907648;0.029124708688843235;-1.7187017483715092;0.0008482486562099806;0.05021923116141538;0.0825940654634445;0.5606752909336419;0.314356781863524;0.8835107860768614;-1.1913533784860912;0.4413986283019076;-0.0806928428465663;0.0
1.1998180671555958;-1.2830679526024515;1.43956339427299;1.9584652566624912;0.6218241592962521;-1.126023654647792;0.3866652850844907;0.9545169215621823;0.02529043503587668;-1.7290071988915972;0.0006396061043038987;0.044865912103599526;0.0683185479759356;0.5583011775182483;0.31170020481826255;0.8835107860768614;-1.1370115887804357;0.44927224212455985;0.09870801350037216;0.0
1.177055240684528;-1.0225896045587117;1.3854590396229125;1.8228679024531398;0.5259470455938438;-0.9477139533411741;0.2766202947688927;0.7598462204151182;0.026684544459815527;-1.6447081533261232;0.0007120649130278716;0.04231671255225865;0.0683185479759356;0.5426555502849784;0.2944750462550927;0.792780161666627;-0.8337182048612759;0.4266524584662575;-0.04128865593780816;0.0
1.2466133959371333;-0.6109971316507442;1.554044958929912;1.577768912071034;0.42576977628262697;-0.23966729714021337;0.18127990239575822;0.5429121326571584;0.026822726726045465;-1.7203248942120994;0.0007194586690201137;0.042826552462526826;0.0683185479759356;0.5959443914090706;0.35514971765192754;0.7430294716772528;-0.5830368568422689;0.4182613970028483;-0.23445934372422156;0.0
0.9765740901891513;-0.13081856131556333;0.9536969536287686;1.3831001673554617;0.3211495086207619;0.2748585624481988;0.10313700688735683;0.3174008599453816;0.02634753913490544;-1.6044476690655063;0.0006941928184653738;0.042826552462526826;0.0683185479759356;0.5919571806772226;0.3504133037553259;0.7430294716772528;-0.5139331715659239;0.4194480760034123;-0.16004670475897426;0.0
0.7227609178037985;-1.1721778405145977;0.5223833443045891;0.981025394996599;0.23986575994248927;1.4250105350173052;0.05753558279278789;0.22616852635297247;0.02483059364064483;-0.8610904520094103;0.0006165583805468315;0.028551034975017847;0.0683185479759356;0.5849031057864662;0.3421116431586541;0.6564019828026146;-0.07332918137220444;0.39399199856372263;-0.5698611286388626;0.0
0.6520936284864702;-0.08099065160454799;0.4252261003126506;0.9048449049278589;0.15687139590624968;1.2339578015699755;0.02460863485357533;0.11634075726868287;0.024330518734145937;-0.798207276670236;0.0005919741418726264;0.02778627510961558;0.0683185479759356;0.4507653764738438;0.2031894246276061;0.714376396339111;-1.0944468966627159;0.27321138366335534;-0.3192665523875235;30.0
0.6755565281869255;-0.5198636967022959;0.4563766227759722;0.9816123573120945;0.1084992677658575;1.99669751078045;0.011772091105727243;0.08355860552699068;0.022117626021721296;-0.5782786987949616;0.000489189380836723;0.022687876006933783;0.0683185479759356;0.4254388812209515;0.1809982416545349;0.714376396339111;-1.3099850630881258;0.2554644352549595;-0.1742328797893329;0.0
0.8425368039021258;-0.15828418471414402;0.7098682659296092;1.0586832613940105;0.07713914742031018;2.9423930741095754;0.005950448064732348;0.0657221278217538;0.019785175481007798;0.03200382211307838;0.0003914531688142722;0.022687876006933783;0.0683185479759356;0.6077104723001582;0.3693120181432813;0.8249982463477026;0.5213809568391058;0.3398872900679145;0.7460914883248093;0.0
0.8510666912708978;-0.25477752843260654;0.7243145129907937;1.1153421728538104;0.07717287803733286;2.936131842338819;0.005955653104565052;0.0657221278217538;0.015231239181377785;-0.5621741433770282;0.0002319906470003378;0.022178036096665604;0.0479249515652085;0.6251604959092689;0.390825645645523;0.8709100408606929;0.42520573002667056;0.3589556793608774;0.9073236995852938;0.0
1.4524192493130472;2.727034343789986;2.109521675775076;1.3309776133835982;0.07689986164712757;3.948547331710531;0.005913588721347362;0.038500176711009915;0.017374165911692722;0.3026308711437906;0.0003018616411270254;0.017334556949117896;0.0611807892321811;1.2430649104030944;1.5452103714754533;1.0199180661036538;4.177784277719361;0.6079803552579283;1.9726427339511192;0.0
1.3719538052537397;3.4314547429887248;1.8822572437502163;1.171588341247292;0.07843508654496056;4.131723323545684;0.006152062801315453;0.038500176711009915;0.017237984849801064;0.4039484688142941;0.00029714812168197104;0.017334556949117896;0.0611807892321811;1.2247351407652483;1.4999761650252725;0.8721412098502299;4.3725453031908605;0.5912928450677839;2.015100518254158;0.0
1.337944517380602;2.522347645156067;1.7900955315888116;1.498046432247059;0.09039594054491089;0.3494867573370805;0.008171426066999065;0.07976466987031983;0.014178072543159233;-0.95499193137421;0.0002010177410390857;0.020903436320995124;0.04384623228306311;1.2001743327080823;1.4404184288912907;1.2747747666321687;3.2822761409858114;0.534778580242811;1.7026593407938537;0.0
1.3561070058612115;2.838005872434139;1.83902621134586;1.4104284108295166;0.08283455390532936;0.7242547301685107;0.006861563320694915;0.07073659574752611;0.01466512452808859;-1.3383780797097837;0.00021506587742434557;0.023962475782604166;0.04384623228306311;1.221367149560615;1.4917377140258217;1.2058190854785376;3.4702480442653703;0.5635784978366075;1.8236860819741447;0.0
1.4805161611927797;1.96546463993136;2.1919281035530047;1.56459913397565;0.12469240260385187;2.2715571200851374;0.015548195267121083;0.07073659574752611;0.014026106840899678;-0.8682371211457054;0.00019673167311233276;0.01911899663505652;0.04384623228306311;1.2929869466758335;1.6718152442740946;1.3042252434378716;2.7845153757806864;0.6193840170717029;1.5886287188558883;0.0
1.5243918037434927;0.6992237901566531;2.323770371320339;1.954849135773768;0.21591940949401664;2.9812657597823145;0.04662119139624484;0.053223836396980695;0.036824106899926386;7.533495579415054;0.0013560148489772062;0.01911899663505652;0.1284796573875803;1.3150052335747267;1.7292387643289215;1.5884477602915739;1.569360225929941;0.5957085721200359;1.2101166138474209;0.0
1.5240391182033108;0.6602363627856747;2.3226952338139255;1.954849135773768;0.2925093194000355;0.29956179673220823;0.085561701935872;0.21890955986482807;0.03832648971047949;4.800412639919952;0.0014689198135274903;0.022178036096665563;0.1284796573875803;1.3171539183721455;1.7348944446830963;1.5884477602915739;1.5931264565115646;0.5995672245323992;1.2332688537938332;0.0
1.4524641539441803;1.0954531595604433;2.1096521184927832;1.8002949743230545;0.38144114707105437;-0.5373674886969805;0.14549734867888173;0.4907898624087096;0.03966716144494117;4.3979737138310515;0.0015734836970990268;0.025746915468542866;0.130519017028653;1.279002527682103;1.6358474658172086;1.4868201873877347;1.8852676976734375;0.569063457927054;1.2739070801293486;0.0
1.4791675699918947;1.772826108920249;2.1879367001157264;1.595092697637373;0.46826045838208297;-1.0603534443926377;0.21926785688419848;0.6416898858809622;0.04431196832306988;3.0169051205208257;0.001963550536664748;0.03211991434689504;0.16212909146527982;1.3449877653449436;1.8089920889275848;1.2776679564878999;2.5559962430083467;0.6715667511991158;1.4955987589157116;0.0
1.5113536526477878;1.5542469357975983;2.2841898633718096;1.827037979110926;0.5536588070408693;-1.3610723109052418;0.30653807461391863;0.8501057380259455;0.044236949589856085;3.590422279934669;0.001956907709015468;0.02064851636586115;0.16212909146527982;1.3994175318841962;1.958369428544855;1.7371379272000254;2.1277739283922563;0.7233798487863353;1.3988892790584198;30.0
1.0500713066769523;-1.3633813263619976;1.102649749106242;1.827037979110926;0.6233483317570493;-1.4128784414984743;0.3885631427042964;1.0081121419649395;0.04397698844504681;3.6468790614102735;0.0019339755126957802;0.016824717038849874;0.16212909146527982;0.9180280562117435;0.8427755119919121;1.656334812812414;-1.4374555358942591;0.5405609321955335;0.22850274218939448;0.0
1.0622212209466764;-1.4461151994794947;1.1283139222294478;1.8670676782559752;0.6732561154727796;-0.9645244755173381;0.4532737970214968;0.9552342312424339;0.04396871262432292;3.7263996757602422;0.001933247689840294;0.014530437442643051;0.16212909146527982;0.9311045759130132;0.8669557312861522;1.725455774784543;-1.5261714119537149;0.55733424394885;0.3058063291995214;0.0
0.9812672516561779;-0.7589613358954053;0.9628854191728689;1.229972366387152;0.7276971231607848;-0.6254833725181348;0.5295431030564824;0.8970402190109451;0.0447562139145726;3.540547735982759;0.002003118683966982;0.020393596410727025;0.16212909146527982;0.848985206488435;0.7207758808362107;1.2243619451759948;-1.00185042848991;0.5329296035466509;0.3748670664324495;0.0
0.9846063407706954;-0.8718862026173585;0.9694496462858587;1.2534368481057598;0.7463372075693022;-1.0468544847149275;0.5570192274023437;1.0686230333669169;0.045175895096374465;3.523802957888287;0.0020408614977586305;0.02166819618639745;0.16212909146527982;0.8741416213424195;0.7641235741631539;1.3993987125996306;-1.4255443181698;0.5242477654468578;0.08652622756881699;0.0
0.8355669799410137;-0.7881149758341651;0.6981721779677463;0.9884468400646018;0.7599371524361512;-1.4341485493555008;0.5775044756527661;1.2421948506090814;0.051116264519741626;2.32325919448978;0.0026128724984521966;0.026001835423676976;0.1835423676965432;0.8431225879163188;0.7108556982547107;1.2112773448394951;-1.127328007217311;0.4555474699658164;-0.37429178138077945;0.0
0.6931536103686127;-0.28057710407106434;0.48046192756704253;0.9836635146919126;0.7713528167376216;-1.5703604947435612;0.5949851678890629;1.2477326274977663;0.03668076807658556;0.16289295716425758;0.001345478746688258;0.038237993270113124;0.1223615784643621;0.7725869205634278;0.5968905498256802;1.064030054060304;-1.0384124159826362;0.43175295410039777;-0.5645786624309924;0.0
1.4058231382446051;4.531434434203436;1.97633869602391;0.9836635146919126;0.7431266326753411;-1.652654753266633;0.5522371921913913;1.239052488356295;0.03227662032039467;-1.582270974984256;0.001041780219306914;0.05353319057815832;0.0866727847455898;1.4486666030640145;2.098634926833031;1.2324084724558424;3.650158968880509;0.6694905142504575;1.557054373324667;0.0
1.6276647467100889;0.4478672323865841;2.6492925276828174;1.647622823645108;0.7076973441270463;-1.4302610221499117;0.500835530884475;1.183149627759427;0.032671506093307115;-1.6295154360020523;0.001067427310405004;0.05455287039869467;0.0866727847455898;1.6663767495633188;2.776811471485212;1.3187776844092114;0.24047829379662236;0.6679532633035195;0.8919126306063299;0.0
1.6576992657232272;-0.9431405416203934;2.7479668555793264;2.3722308228884113;0.6547091575747257;-0.9462026267755667;0.428644081012207;0.9073780675135605;0.03224439060416705;-1.209662415222054;0.0010397007254340962;0.0484347914754766;0.0866727847455898;1.6575276976321802;2.7473980684178363;2.1258591292563747;-0.8453174743861871;0.5690949779603323;0.5069043006966021;0.0
