acc_X;acc_X_std;acc_X_max;acc_Z;acc_Z_std;acc_Z_max;acc;acc_std;acc_var;acc_max;acc_range;fb_tilt_max;fb_tilt_var;fb_tilt_range;tilt_max;tilt_var;tilt_range;class;lat;lon
1.546026195010029;2.7351782151072297;1.546026195010029;0.0040787192821454;0.04429593151955363;0.0112164780258998;1.5593626743084776;1.9777618732275002;3.911542027192351;6.740011344945384;5.545702101465771;0.027225451208320428;0.0003147227330932149;0.048944631385744786;0.061180789232181;0.002283792593078727;0.1407158152340164;90.0;53.71678443;86.83978475
1.0678875429845416;2.7351782151072297;1.546026195010029;-0.07545630671969;0.04429593151955363;0.0112164780258998;1.28679538451107;1.9777618732275002;3.911542027192351;6.740011344945384;5.545702101465771;0.027225451208320428;0.0003147227330932149;0.048944631385744786;0.061180789232181;0.002283792593078727;0.1407158152340164;90.0;53.71678443;86.83978475
-0.44880958755567724;2.7351782151072297;1.546026195010029;-0.0326297542571632;0.04429593151955363;0.0112164780258998;1.1943092434796132;1.9777618732275002;3.911542027192351;6.740011344945384;5.545702101465771;0.027225451208320428;0.0003147227330932149;0.048944631385744786;0.061180789232181;0.002283792593078727;0.1407158152340164;90.0;53.71678443;86.83978475
-6.5949919696101045;2.7351782151072297;1.546026195010029;-0.003059039461609;0.04429593151955363;0.0112164780258998;6.740011344945384;1.9777618732275002;3.911542027192351;6.740011344945384;5.545702101465771;0.027225451208320428;0.0003147227330932149;0.048944631385744786;0.061180789232181;0.002283792593078727;0.1407158152340164;90.0;53.71678443;86.83978475
-2.34032799012526;2.7351782151072297;1.546026195010029;-0.0520036708473539;0.04429593151955363;0.0112164780258998;2.822647994481734;1.9777618732275002;3.911542027192351;6.740011344945384;5.545702101465771;0.027225451208320428;0.0003147227330932149;0.048944631385744786;0.061180789232181;0.002283792593078727;0.1407158152340164;90.0;53.71678443;86.83978475
-5.799490693759866;2.7351782151072297;1.546026195010029;0.0112164780258998;0.04429593151955363;0.0112164780258998;6.036873090145828;1.9777618732275002;3.911542027192351;6.740011344945384;5.545702101465771;0.027225451208320428;0.0003147227330932149;0.048944631385744786;0.061180789232181;0.002283792593078727;0.1407158152340164;90.0;53.71678443;86.83978475
-3.0588466192879773;2.5255485212740396;1.0678875429845416;-0.0968695829509534;0.04024313392556212;0.0112164780258998;3.4998107950152395;2.030126789327178;4.1214147807438755;6.740011344945384;5.545702101465771;0.027225451208320428;0.000316894648915936;0.048944631385744786;0.061180789232181;0.0019478041469500125;0.1325583766697255;90.0;53.716826909999995;86.83985283
-2.312492238329315;3.3312684349101676;-0.44880958755567724;-0.1019679820536351;0.04833241714954548;0.0356887937187723;2.8440310768817874;3.123424576684965;9.755781086239653;12.065510352620949;10.871201109141335;0.027225451208320428;0.00032181322956233806;0.048944631385744786;0.1600897318242072;0.0034609709689935753;0.20495564392780657;90.0;53.71685622;86.83993333999999
-1.8055370819224985;3.163106208000596;-1.8055370819224985;-0.1040073416947078;0.0655164893982037;0.095849903130417;2.3819121937550696;2.979881723277434;8.87969508472289;12.065510352620949;9.68359815886588;0.027225451208320428;0.0003186708832656352;0.048944631385744786;0.1600897318242072;0.0031265074850382614;0.18150300805547048;90.0;53.716875879999996;86.84003492
-4.8512968035051065;3.3124350214763396;-1.6806494643769951;-0.0458855919241358;0.06491703484792707;0.095849903130417;5.049761211354328;3.168446054016369;10.0390503972119;12.065510352620949;10.29939301785381;0.027225451208320428;0.0003186708832656352;0.048944631385744786;0.1600897318242072;0.0034296514807201873;0.1825226878760069;90.0;53.716898119999996;86.84015444
-5.868407731930296;3.4179611317414222;-1.2489183468763474;-0.0438462322830631;0.06528995018666563;0.095849903130417;5.993132836793311;3.324628176129276;11.053152509512678;12.065510352620949;10.799717900756033;0.026205771387784238;0.0006035730965854516;0.09177118384827165;0.1600897318242072;0.0036788095049150086;0.19271948608137038;90.0;53.71692669;86.84028029
-12.023631793747631;3.884491749890453;1.4278169640661602;0.0356887937187723;0.06380956476674605;0.095849903130417;12.065510352620949;3.4640916102580848;11.99993068426045;12.065510352620949;10.799717900756033;0.08024880187621075;0.001377606927023296;0.14581421433669817;0.1600897318242072;0.004595785433621622;0.2314673192617518;90.0;53.71696168;86.84041
-8.034911309612756;4.234121938308241;1.4278169640661602;0.095849903130417;0.06088702041084116;0.095849903130417;8.072862271087779;3.590228147632534;12.889738152052935;12.065510352620949;10.799717900756033;0.08024880187621075;0.0015421064451069466;0.14581421433669817;0.1600897318242072;0.0054180519691651085;0.2335066789028245;90.0;53.717007079999995;86.84054499999999
-1.6806494643769951;4.559353680892237;1.8742043099117724;-0.0214132762312633;0.056408998359390755;0.095849903130417;1.7661173347671406;3.644375632535984;13.281473751022055;12.065510352620949;10.799717900756033;0.08024880187621075;0.0015042856502950673;0.14581421433669817;0.1600897318242072;0.00629653415573711;0.2447231569287243;90.0;53.71706564;86.84069572
-1.2489183468763474;4.797062452746666;1.8742043099117724;-0.061180789232181;0.051568682058087685;0.095849903130417;1.2657924518649173;3.6866449710522695;13.59135114258499;12.065510352620949;10.799717900756033;0.08024880187621075;0.0014131576076906833;0.14581421433669817;0.1600897318242072;0.006978827648152465;0.2447231569287243;90.0;53.717140189999995;86.84085731
1.4278169640661602;4.884552176063682;1.8742043099117724;-0.061180789232181;0.05092801953543878;0.095849903130417;1.4437958672904918;3.768766316640035;14.203599549440497;12.065510352620949;10.820560371248257;0.08024880187621075;0.0013952710721985126;0.14581421433669817;0.1600897318242072;0.007266317676069565;0.2447231569287243;90.0;53.717235759999994;86.84101432
1.3739012558046966;4.82608063200382;1.8742043099117724;-0.0509839910268175;0.05041503572329966;0.095849903130417;1.3825822922126025;3.7199771410371185;13.838229929838693;12.065510352620949;10.820560371248257;0.08024880187621075;0.0014577858567501067;0.14581421433669817;0.1600897318242072;0.007146758331126262;0.2447231569287243;90.0;53.71735572;86.84117012
1.8742043099117724;3.1731472210962153;2.6453093908334457;-0.0402773529111858;0.04887852588999755;0.095849903130417;1.8747573810506977;2.065490252304672;4.2662499823656175;8.072862271087779;6.827912289715088;0.08024880187621075;0.0015879852786759936;0.14581421433669817;0.0887121443866625;0.003088059953878599;0.19068012644029758;0.0;53.71750095;86.84131279
1.69948251165943;1.5142321782321113;2.991715382126187;0.0183542367696543;0.030164498752361633;0.0183542367696543;1.702791555668212;0.6100882551732976;0.37220767910039865;3.089971113781308;1.8450211324086172;0.08024880187621075;0.0015852357256663785;0.14581421433669817;-0.0224329560517997;0.00070865685362519;0.0825940654634445;0.0;53.71767168;86.84144512
1.2449432955455029;1.2122951215886086;2.991715382126187;0.0040787192821454;0.030130009809298242;0.0183542367696543;1.244949981372691;0.7299840642020554;0.5328767339889505;3.089971113781308;1.8450211324086172;0.08024880187621075;0.0015387243793776814;0.14581421433669817;-0.0326297542571632;0.00046067720929163285;0.07239726725808102;0.0;53.717853950000006;86.84156339
1.7034755773043564;1.0564454142849862;4.627374790783124;0.0173345569491179;0.02751083851760639;0.0183542367696543;1.708267242017094;1.0992806453024568;1.2084179371365857;4.731158315911182;3.4862083345384915;0.08024880187621075;0.0009921178621637079;0.11114510043846215;-0.0713775874375446;0.00036766606945797474;0.06016110941164471;0.0;53.71803506;86.84168306000001
2.6453093908334457;1.0698021886373872;4.627374790783124;-0.0367084735393086;0.024348377478569196;0.0183542367696543;2.6769830438470072;1.114968089858624;1.2431538414029888;4.731158315911182;3.4862083345384915;0.04150096869582964;0.00038904153355898857;0.07239726725808104;-0.0734169470786173;0.0003577191570996619;0.05812174977057201;0.0;53.718214;86.84180056
2.991715382126187;1.0156209685149142;4.627374790783124;-0.0265116753339451;0.02296236295294321;0.0183542367696543;3.089971113781308;1.056548400695099;1.1162945230113712;4.731158315911182;3.4862083345384915;0.018048332823493607;0.0001910506113792292;0.04894463138574501;-0.0744366268991536;0.0003062516837474144;0.05710206995003571;0.0;53.71838814;86.84190814
2.9499011839229476;0.9936207670177127;4.627374790783124;-0.0244723156928724;0.02703722272641897;0.0183542367696543;3.089843856755182;1.0285659409431887;1.0579478948683472;4.731158315911182;3.4862083345384915;0.018048332823493607;0.0001779238063070653;0.04894463138574501;-0.0744366268991536;0.00028906120106545147;0.05710206995003571;0.0;53.71855497;86.84199561
4.627374790783124;0.9727360100149977;4.627374790783124;-0.0244723156928724;0.024148215108225794;0.0173345569491179;4.731158315911182;1.006878229005465;1.0138037680451815;4.731158315911182;3.4862083345384915;0.018048332823493607;0.00016387566992180508;0.04894463138574501;-0.0744366268991536;0.00027288735983242187;0.05710206995003571;0.0;53.71871558;86.84206406
3.40686490667696;0.8561209566712566;4.627374790783124;-0.0326297542571632;0.02150238026669669;0.0173345569491179;3.502961113022509;0.8893503209092603;0.7909439933014042;4.731158315911182;3.0228910738940886;0.018048332823493607;0.00016636239801138346;0.04894463138574501;-0.0836137452839807;0.00020689808760166115;0.04792495156520861;0.0;53.718872469999994;86.84213391
3.1230851361117447;0.7530955587142993;4.627374790783124;-0.0397675130009177;0.01340059135492093;-0.0244723156928724;3.148170506405993;0.7820673636861933;0.6116293613430726;4.731158315911182;2.833953705143941;0.018048332823493607;0.00021683344721623934;0.04894463138574501;-0.0856531049250535;0.00016087195654995365;0.04588559192413581;0.0;53.71902326000001;86.84221302
3.217108927382121;0.7459909072323923;4.627374790783124;-0.0672988681553992;0.0173808140201137;-0.0010196798205363;3.2255392622985273;0.7739280620741175;0.598964645265799;4.731158315911182;2.833953705143941;0.018048332823493607;0.00013696932975628708;0.046905271744672405;-0.0856531049250535;0.00016087195654995365;0.04588559192413581;0.0;53.719166859999994;86.84231054
1.8887771506129525;0.7914484031533873;4.627374790783124;-0.0469052717446721;0.02487034176938475;0.023452635872336;1.8972046107672411;0.8214634790077826;0.6748022473435696;4.731158315911182;2.833953705143941;0.018048332823493607;0.00014497538116663681;0.046905271744672405;-0.0856531049250535;0.00017963361238026806;0.04588559192413581;0.0;53.71929413;86.84241477
2.0695695258594364;1.0715243679872208;5.401322313810567;-0.037728153359845;0.02591499541107958;0.023452635872336;2.0702372396965862;1.1132713837670887;1.2393731739146883;5.532581612259588;3.635377001492347;0.018048332823493607;0.0001448251954980438;0.046905271744672405;-0.0856531049250535;0.0003364158976470146;0.06118078923218111;0.0;53.719410679999996;86.84253644
2.995498593176836;1.3820778449455895;6.306178350250541;-0.0244723156928724;0.03107008456575302;0.0285510349750178;3.0060779173485854;1.452418216387995;2.109518675295685;6.547854124805112;4.650649514037871;0.006831854797593628;0.00010893082070445524;0.03568879371877243;-0.0856531049250535;0.0005795896005856148;0.0774956663607627;0.0;53.71952345;86.84266713
2.826339017136368;1.538758628189287;6.306178350250541;-0.0010196798205363;0.036601353144799176;0.0438462322830631;2.8858703740775704;1.6569754942354635;2.7455677884968583;6.547854124805112;4.650649514037871;0.017028653002957195;0.00013610287397594465;0.04588559192413599;-0.0856531049250535;0.0007051910305038273;0.0774956663607627;0.0;53.719632430000004;86.84280939
3.847841289151761;1.6576161487830152;6.306178350250541;0.023452635872336;0.037602243993346794;0.0438462322830631;3.9331962250593193;1.8266634980772323;3.3366995352077504;6.547854124805112;4.650649514037871;0.017028653002957195;0.00015578874930528906;0.04588559192413599;-0.0856531049250535;0.0008097094251468956;0.0774956663607627;0.0;53.71973543;86.84296359
5.401322313810567;1.707123273308983;6.306178350250541;-0.0045885591924135;0.030775829726425744;0.0438462322830631;5.532581612259588;1.9292576974630888;3.722035263220579;6.547854124805112;4.650649514037871;0.017028653002957195;0.0001596704712012161;0.04588559192413599;-0.0856531049250535;0.0008587334931985825;0.0774956663607627;0.0;53.719834049999996;86.84312365
6.306178350250541;1.4966990833830818;6.306178350250541;0.0285510349750178;0.026222716488233124;0.0438462322830631;6.547854124805112;1.7433514121973137;3.0392741464103676;6.547854124805112;4.477616885108526;0.017028653002957195;0.00015856140780237985;0.04588559192413599;-0.0887121443866625;0.0006547813552500796;0.0744366268991537;0.0;53.719928519999996;86.84329235999999
5.661738669703013;1.2206806550806042;6.306178350250541;0.0438462322830631;0.024554554423489944;0.058121749770572;6.106240424941999;1.4701959232127604;2.161476052631421;6.547854124805112;3.6619837507275417;0.017028653002957195;0.00018702736837251222;0.04588559192413599;-0.1019679820536351;0.00042996496211096774;0.06118078923218111;0.0;53.7200165;86.84346482
5.865455199673969;1.1065921146929436;6.358399519993419;0.0311002345263587;0.022577971951304197;0.061180789232181;6.460018679025337;1.340405183723546;1.7966860565529532;7.313809421375307;4.427939047297737;0.017028653002957195;7.51968089898497e-05;0.0305903946160907;-0.1019679820536351;0.00036913976633103844;0.06118078923218111;0.0;53.72009983;86.84362751
5.657262701892799;0.7281097273168412;6.358399519993419;0.0081574385642908;0.02584396112173394;0.0815743856429081;6.4950840249914;0.8949736452411359;0.8009778256762065;7.313809421375307;3.380613196315988;0.017028653002957195;8.296025278170432e-05;0.0305903946160907;-0.1193025390027531;0.00015789784708393392;0.0438462322830631;0.0;53.72018015;86.84377951
4.906005278506663;0.5983378907194759;6.358399519993419;0.0265116753339451;0.02590646820213634;0.0815743856429081;6.004156784714463;0.5715455755130417;0.32666434488853413;7.313809421375307;2.030685494038787;0.017028653002957195;8.322596588767552e-05;0.0305903946160907;-0.1294993372081166;0.00010319560548508032;0.0336494340776996;0.0;53.720257860000004;86.84391866
5.173337702941286;1.2143525324100972;6.358399519993419;0.058121749770572;0.02392140027277925;0.0815743856429081;6.285208737697378;1.155734808282734;1.3357229470763279;7.313809421375307;4.253457533911471;0.017028653002957195;9.283784867759034e-05;0.0305903946160907;-0.0912613439380034;0.000439415106488552;0.0718874273478128;0.0;53.72033417;86.84403849
6.358399519993419;1.1839737986122814;6.358399519993419;0.061180789232181;0.029374773496455498;0.0815743856429081;7.313809421375307;1.217540814244404;1.4824056343509264;7.313809421375307;4.253457533911471;0.017028653002957195;9.408554500128106e-05;0.0305903946160907;-0.0912613439380034;0.0004169739017777232;0.0718874273478128;0.0;53.72041629;86.84413597
5.583063716507342;1.797357710954138;6.358399519993419;0.0815743856429081;0.032932878257114856;0.0825940654634444;6.5397829916365655;1.7420087076270236;3.0345943374483735;7.313809421375307;5.48460773540581;0.017028653002957195;9.131288650419011e-05;0.0305903946160907;-0.0632201488732537;0.0009722854113981891;0.0999286224125625;0.0;53.72050263999999;86.84420951999999
4.41133945843959;1.8533675539109746;6.358399519993419;0.0520036708473539;0.03281691118053234;0.0825940654634444;5.28312392733652;1.890133071952917;3.572603029690171;7.313809421375307;5.48460773540581;0.017028653002957195;9.131288650419011e-05;0.0305903946160907;-0.0632201488732537;0.001051649150644995;0.0999286224125625;0.0;53.72059134999999;86.84424959
2.202180665466291;1.794260521918256;6.358399519993419;0.0071377587437544;0.03270618498638387;0.0825940654634444;3.0603518874638365;1.8824366445331746;3.543567720681317;7.313809421375307;5.48460773540581;0.017028653002957195;9.09229814030367e-05;0.0305903946160907;-0.0632201488732537;0.0009905900118043738;0.0999286224125625;0.0;53.72067425;86.84425057000001
4.226027398772878;1.762664657843659;6.358399519993419;-0.0142755174875089;0.042692847969080155;0.0825940654634444;4.598993258016747;1.8596479224854523;3.4582903956044584;7.313809421375307;5.48460773540581;0.017028653002957195;8.953665215449133e-05;0.0305903946160907;-0.0632201488732537;0.000954094894336416;0.0999286224125625;0.0;53.72074691;86.84421059
0.5932124525730762;1.7796351686586025;6.358399519993419;0.0825940654634444;0.04679063318604748;0.0825940654634444;1.829201685969497;1.9021672992669387;3.6182404344004797;7.313809421375307;5.518735300483069;0.017028653002957195;7.396355359583132e-05;0.026511675333945273;-0.0632201488732537;0.0009443905895965984;0.0999286224125625;0.0;53.72080638;86.8441395
2.258884501115592;1.4488019517190205;5.583063716507342;0.0433363923727949;0.056778482088207224;0.0825940654634444;2.659757858691554;1.5236012715529363;2.3213608346777246;6.5397829916365655;4.7447088707443275;0.017028653002957195;7.061325791184666e-05;0.026511675333945273;-0.0632201488732537;0.0006190537731942077;0.0856531049250536;0.0;53.72084807;86.84403783
3.1329245788842135;1.4503368237477416;4.41133945843959;0.0091771183848271;0.05488642319155577;0.0825940654634444;3.2783770654450466;1.2700199547908333;1.6129506855669102;5.28312392733652;4.15225196802432;0.01498929336188437;0.0001776378758995505;0.04690527174467218;-0.0520036708473539;0.0006135662199187151;0.0774956663607627;0.0;53.72086884;86.84391268
3.3656987643775205;1.362105022569104;4.226027398772878;-0.0458855919241358;0.05255020970760637;0.0825940654634444;3.400889456605723;1.0133007316228517;1.0267783727074067;4.598993258016747;3.4681212987045464;0.030284490669929554;0.00026941287215325534;0.062200469052717366;-0.0520036708473539;0.0005497373107669379;0.0734169470786173;0.0;53.720869330000006;86.84375701
1.7893999790593211;1.3946443334948964;4.226027398772878;-0.0356887937187723;0.05525960652214165;0.0825940654634444;1.7950741208922378;1.0147110518857265;1.0296385188190378;4.598993258016747;3.4681212987045464;0.030284490669929554;0.00031176523069631777;0.062200469052717366;-0.0520036708473539;0.0005815911134382029;0.0734169470786173;30.0;53.72084631;86.84357527
2.6358622763455193;1.215895664745021;3.3656987643775205;-0.0897318242071989;0.057468705995608514;0.0825940654634444;2.7184858284098175;0.7305838590565747;0.5337527751139971;3.400889456605723;2.2700174972935225;0.030284490669929554;0.00030823009111252713;0.062200469052717366;-0.0520036708473539;0.00044368384529969894;0.05914142959110841;0.0;53.720796529999994;86.84336421
-0.12074738485760772;1.2201728501158426;3.3656987643775205;-0.0652595085143265;0.04341050570747784;0.0433363923727949;1.1308719593122003;0.754029519518071;0.5685605163046529;3.400889456605723;2.2700174972935225;0.030284490669929554;0.00030823009111252713;0.062200469052717366;-0.0520036708473539;0.0004476175545424463;0.05914142959110841;0.0;53.72072559000001;86.84311919000001
0.7247556708774914;1.2722057026361608;3.3656987643775205;-0.0520036708473539;0.0559041521681909;0.095849903130417;1.875051735455494;0.7853063902198931;0.6167061265201991;3.400889456605723;2.2700174972935225;0.030284490669929554;0.0002945054315519277;0.062200469052717366;-0.0520036708473539;0.000489871714763736;0.05914142959110841;0.0;53.720637690000004;86.84285721
1.110669011938925;1.1204025126858277;3.3656987643775205;-0.078515346181299;0.05380331766790568;0.095849903130417;2.0851424622033443;0.6923452203971604;0.47934190420679257;3.400889456605723;2.2700174972935225;0.030284490669929554;0.0002937169567918176;0.062200469052717366;-0.0520036708473539;0.0003826333710168804;0.05914142959110841;0.0;53.72053081;86.84258136999999
0.4531415203636082;0.8994186565400698;2.6358622763455193;-0.0769858264504945;0.060824017631640984;0.095849903130417;1.7701738453030804;0.47928623666432824;0.22971529665585447;2.7184858284098175;1.5876138690976171;0.030284490669929554;0.00029442167415982823;0.062200469052717366;-0.0458855919241358;0.00024695794855923687;0.053023350667890295;30.0;53.72040585999999;86.84230026
0.5473257253120702;0.825951630053496;2.6358622763455193;-0.0020393596410727;0.060809770672923036;0.095849903130417;1.5457734081853112;0.5107412357185166;0.26085660986327736;2.7184858284098175;1.6208378090542994;0.030284490669929554;0.00027892944480733335;0.062200469052717366;-0.0458855919241358;0.00020422434947282506;0.053023350667890295;0.0;53.720269370000004;86.84199993
0.1554647809379448;0.45570929390214565;1.110669011938925;0.095849903130417;0.05988512924579512;0.095849903130417;1.3329061234112325;0.4591348815793664;0.2108048394828988;2.0851424622033443;1.6005148352572072;0.030284490669929554;0.00030383716030619887;0.062200469052717366;-0.0458855919241358;5.4731845504679347e-05;0.024472315692872407;0.0;53.720131220000006;86.84167746
0.779848228229663;0.546873370182683;1.110669011938925;-0.0418068726419904;0.05962296255444256;0.095849903130417;1.3613726692054609;0.5114507827326487;0.26158190315783897;2.0851424622033443;1.6005148352572072;0.030284490669929554;0.00020426406202942615;0.04486591210359947;-0.0418068726419904;8.320935881854914e-05;0.028551034975017806;0.0;53.71999793;86.84132657
-0.37921763345233517;0.6596705506033516;1.110669011938925;-0.1284796573875803;0.06538686634714902;0.095849903130417;1.2068014644651934;0.48760777614599377;0.23776134335804158;2.0851424622033443;1.6005148352572072;0.024166411746711636;0.00016036363582548927;0.04486591210359958;-0.037728153359845;0.00012407718979129333;0.032629754257163204;30.0;53.71986975;86.84095519
0.7837654332833139;0.5823334496820765;0.7837654332833139;-0.061180789232181;0.06629071320092696;0.095849903130417;1.097648019355518;0.41428613284160404;0.1716329998648512;1.7701738453030804;1.2855462183569433;0.005812174977057216;8.345702076243295e-05;0.02651167533394516;-0.037728153359845;0.00010089083310937152;0.028551034975017806;30.0;53.719743830000006;86.84056815
0.2764541164956471;0.5959137903675331;0.7837654332833139;-0.0744366268991536;0.0643152263667289;0.095849903130417;0.48462762694613715;0.3457403889352658;0.11953641654110887;1.5457734081853112;1.061145781239174;0.005812174977057216;0.00010976261825358208;0.027531355154481574;-0.037728153359845;0.00010489891313993176;0.028551034975017806;30.0;53.71961173999999;86.84017494
-0.6423054986589718;0.5829197410685715;0.7837654332833139;-0.040787192821454;0.07383628873137822;0.095849903130417;0.6495725017716683;0.29289491717076416;0.08578743250446878;1.3613726692054609;0.8767450422593237;0.005812174977057216;0.00011922431537490422;0.027531355154481574;-0.037728153359845;0.00010115582416885908;0.028551034975017806;0.0;53.71946526000001;86.83978782
-0.8847410724377256;0.5792346531490377;0.7837654332833139;0.0397675130009177;0.06406280431279006;0.095849903130417;0.9438746886960041;0.2630054524735631;0.06917186803082366;1.3613726692054609;0.8767450422593237;0.005812174977057216;0.00010998212038460165;0.027531355154481574;-0.037728153359845;0.00010010452448871216;0.028551034975017806;0.0;53.719297860000005;86.83941818
-0.015860206234774132;0.49364541325498396;0.7837654332833139;0.0254919955134087;0.06360367255810605;0.095849903130417;0.7027028873146953;0.21373582404757305;0.0456830024812951;1.2068014644651934;0.7221738375190563;0.005812174977057216;0.0001127085679067411;0.027531355154481574;-0.037728153359845;7.33628109214584e-05;0.028551034975017806;0.0;53.71911503;86.83907407000001
-0.485644224748659;0.49296979252661405;0.7837654332833139;0.003059039461609;0.051462159521896776;0.095849903130417;0.9025880827264686;0.21691646403168283;0.04705275236800835;1.097648019355518;0.6472313459946979;0.003772815335984392;9.200605112846317e-05;0.02549199551340875;-0.037728153359845;7.303933409679784e-05;0.028551034975017806;0.0;53.718912120000006;86.83874571999999
-0.49147728672554925;0.4655534744990223;0.2764541164956471;0.095849903130417;0.048099431900319144;0.095849903130417;0.9782070057325042;0.28677818523278725;0.08224172752541083;1.4454892087783782;0.995072535417558;0.018048332823493385;0.00016062934893145992;0.03976751300091774;-0.0275313551544814;6.99663042625223e-05;0.030590394616090602;0.0;53.71868377;86.83843288999999
-0.2959704740466562;0.39303337299040086;-0.015860206234774132;-0.0173345569491179;0.044774440354067545;0.095849903130417;0.9214268651163806;0.2659300375603173;0.07071878487683178;1.4454892087783782;0.995072535417558;0.018048332823493385;0.00015699023465402839;0.03976751300091774;-0.0275313551544814;4.933310394667157e-05;0.024472315692872497;0.0;53.71843141000001;86.83814724999999
-0.5780468923935747;0.4533299370845734;-0.015860206234774132;-0.0188640766799224;0.04244343676848956;0.095849903130417;0.8583251962516012;0.2997689513176364;0.08986142417407547;1.4454892087783782;0.995072535417558;0.018048332823493385;0.00017824728313172312;0.04078719282145371;-0.0275313551544814;6.407440495620421e-05;0.024472315692872497;0.0;53.718159660000005;86.83789854
-0.17150113301975534;0.5499152925468612;0.40782328217861696;-0.0397675130009177;0.04056455699572491;0.095849903130417;0.4504166733608202;0.3486002027862307;0.12152210138260117;1.4454892087783782;1.0365681854290036;0.018048332823493385;0.00017232072559419186;0.04078719282145371;-0.0275313551544814;9.173167346468485e-05;0.031610074436626896;0.0;53.717868429999996;86.83768155
-1.3940047996087703;0.5376633633213227;0.40782328217861696;0.003059039461609;0.039668945262129315;0.095849903130417;1.4454892087783782;0.38339947805822383;0.14699515977531846;1.4454892087783782;1.0633859221099708;0.018048332823493385;0.00033202585502662086;0.06423982869379008;-0.0275313551544814;9.173167346468485e-05;0.031610074436626896;0.0;53.7175614;86.83749996
-0.8003275920834176;0.5375417998364614;0.40782328217861696;-0.0520036708473539;0.04148094189511041;0.095849903130417;1.060193205488196;0.38453567434138175;0.1478676848411812;1.4454892087783782;1.0633859221099708;0.02212705210563881;0.0004050507481937493;0.0683185479759355;-0.0275313551544814;9.187030638953936e-05;0.031610074436626896;0.0;53.71724406999999;86.83736182999999
-1.2867819897322137;0.5567478547625394;0.40782328217861696;0.0020393596410727;0.02103778744982589;0.0050983991026817;1.4315098531908705;0.38993086537827126;0.15204607977464749;1.4454892087783782;1.0633859221099708;0.02212705210563881;0.0004749217423204373;0.0683185479759355;-0.0275313551544814;9.623724352245743e-05;0.031610074436626896;0.0;53.71691895;86.83726711
0.40782328217861696;0.6126252135772611;0.40782328217861696;0.003059039461609;0.026043511150318582;0.0050983991026817;0.4089210233493745;0.47614747338057406;0.22671641640670448;1.7668026462504778;1.3846993595820705;0.02212705210563881;0.00047852619836665514;0.0683185479759355;-0.0275313551544814;0.00011687044383830785;0.031610074436626896;0.0;53.71659163;86.83720603
-0.1543401256404766;0.6126329871761084;0.40782328217861696;0.0050983991026817;0.027086956308321378;0.0050983991026817;0.3821032866684073;0.5021811746175951;0.2521859321403076;1.7668026462504778;1.3846993595820705;0.02212705210563881;0.0005215024050715618;0.0683185479759355;-0.0275313551544814;0.00011701774132096579;0.031610074436626896;0.0;53.7162549;86.83717394
-0.5540560670318082;0.5955262631786008;0.40782328217861696;-0.040787192821454;0.028740785131969416;0.0050983991026817;0.9775284099521546;0.49641350849975124;0.24642637142103258;1.7668026462504778;1.3846993595820705;0.02212705210563881;0.0005105850622392669;0.0683185479759355;-0.0275313551544814;0.00010980882922852968;0.031610074436626896;0.0;53.71592284;86.837167
-0.07572186588458552;0.8100641193311562;0.40782328217861696;-0.0214132762312633;0.0281836911784379;0.0050983991026817;1.1077867619461867;0.7252912965611055;0.5260474648672895;2.854085611142859;2.4719823244744514;0.02212705210563881;0.0004878146043319088;0.0683185479759355;-0.0091771183848271;0.0001996429645342711;0.0499643112062812;0.0;53.71559734;86.83718966
-1.3485641735037497;0.8425149359816783;0.40782328217861696;-0.0662791883348628;0.027533453181168035;0.0050983991026817;1.7668026462504778;0.7192797231258461;0.5173633200999938;2.854085611142859;2.4719823244744514;0.02212705210563881;0.0004954856261738598;0.0683185479759355;-0.0091771183848271;0.00021775766671526425;0.0499643112062812;30.0;53.715273090000004;86.83723917
-0.6192585889538642;1.2063369784970794;0.40782328217861696;-0.0469052717446721;0.025657102153751537;0.0050983991026817;1.528532702731552;1.0267830596401704;1.0542834515640296;3.6702510422971084;3.2881477556287013;0.02212705210563881;0.0004385883632648109;0.0683185479759355;0.0071377587437544;0.00044644422900656365;0.0662791883348627;0.0;53.714942210000004;86.83729740999999
-0.5070388452087613;1.1343456811447854;-0.00014331653269428202;-0.058121749770572;0.022173966119846476;0.0050983991026817;1.7517389415909945;0.9492958784501973;0.9011626648425316;3.6702510422971084;3.2881477556287013;0.02212705210563881;0.0004898478872297751;0.0683185479759355;0.0071377587437544;0.00039593852157049424;0.0601611094116446;0.0;53.7146073;86.8373721
-2.480035150449714;1.0876036950698373;-0.00014331653269428202;-0.0591414295911083;0.01483469633874735;-0.0214132762312633;2.854085611142859;0.817478463319412;0.6682710379910672;3.6702510422971084;2.692722632344954;0.02212705210563881;0.00026381845599818683;0.04486591210359914;0.0071377587437544;0.0003546952264262685;0.0601611094116446;0.0;53.714269480000006;86.83745156
-0.00014331653269428202;1.091291489079826;-0.00014331653269428202;-0.023452635872336;0.014856485759161387;-0.0214132762312633;1.3880177195949115;0.7601503294663892;0.57782852338786;3.6702510422971084;2.5624642803509214;0.02212705210563881;0.00021391060305055265;0.04486591210359914;0.0071377587437544;0.0003597553281834592;0.0601611094116446;30.0;53.71393171999999;86.83753107999999
-3.4095290624582186;1.0243508336830882;-0.00014331653269428202;-0.0520036708473539;0.020811976273445696;0.0035688793718772;3.6702510422971084;0.7027475230224188;0.49385408111414514;3.6702510422971084;2.282233322702197;0.020087692464565987;0.00015180305271571902;0.04282655246252631;0.0071377587437544;0.0003216312738484607;0.0601611094116446;30.0;53.71359502;86.83759374
-1.6027530482800858;1.1228332508075702;0.12172360147240902;-0.0550627103089629;0.021375544508129382;0.0035688793718772;2.129147081834759;0.7271925751849362;0.528809041404099;3.6702510422971084;2.282233322702197;0.020087692464565987;0.0001248736070627245;0.04282655246252631;0.0071377587437544;0.00038801333936630924;0.0622004690527173;0.0;53.71325926000001;86.83763942
-1.2679096554242086;1.1319557861899159;0.12172360147240902;-0.0469052717446721;0.022182365732032416;0.0035688793718772;1.9174698569666588;0.7026523677603265;0.4937203499191931;3.6702510422971084;2.282233322702197;0.002753135515448202;5.9254022631576564e-05;0.025491995513408527;0.0071377587437544;0.00039651615875738763;0.0622004690527173;0.0;53.7129328;86.83766368
-0.49903670402963307;1.144972296512674;0.12172360147240902;-0.0550627103089629;0.021897741202469033;0.0035688793718772;1.6039335882312789;0.892288941744032;0.7961795555586845;3.6702510422971084;3.289320278824259;0.002753135515448202;5.915004793793597e-05;0.025491995513408527;0.0071377587437544;0.00040719089397118704;0.0622004690527173;0.0;53.71260591;86.83766958999999
-1.6070728022882448;1.1160908353201435;0.12172360147240902;0.0035688793718772;0.0227632719598315;0.0035688793718772;2.3538416965193436;0.9285437888643504;0.8621935678385634;3.6702510422971084;3.289320278824259;0.002753135515448202;9.2294869721909e-05;0.031610074436627;0.0071377587437544;0.0003901390442140788;0.0622004690527173;0.0;53.71224419;86.83765346999999
0.12172360147240902;1.3005011587099324;1.2271961606842723;-0.0163148771285816;0.027491934981106848;0.0112164780258998;1.4375513892737621;0.9195560230696956;0.8455832795637547;3.6702510422971084;3.289320278824259;0.0343632099520752;0.00031220134677242356;0.063220148873254;0.0071377587437544;0.0005013919664098473;0.078515346181299;0.0;53.71188584;86.83761768
-2.027232446039506;1.265157757182927;1.8640349343849314;-0.020393596410727;0.032857370413510854;0.0265116753339451;2.171649925166975;0.6996177535084527;0.48946500102421403;2.462459148977783;2.0815283855049334;0.0343632099520752;0.00032034603110762765;0.063220148873254;-0.0173345569491179;0.0004670803175083504;0.0672988681553992;0.0;53.711533380000006;86.83756986
-0.3569186718647144;1.3629856281936639;1.8640349343849314;-0.0550627103089629;0.03169989974738189;0.0265116753339451;0.38093076347284954;0.7258481115752491;0.5268554810773552;2.462459148977783;2.0815283855049334;0.0343632099520752;0.0003013417676588188;0.063220148873254;-0.0173345569491179;0.0005573043579152458;0.0672988681553992;0.0;53.711186659999996;86.8375073
-0.16894347186611247;1.3537108828955313;1.8640349343849314;-0.0662791883348628;0.03056210430244281;0.0265116753339451;0.6375929984364394;0.7401733270196473;0.5478565540313337;2.462459148977783;2.0815283855049334;0.0343632099520752;0.0003000940713351279;0.063220148873254;-0.0173345569491179;0.0005508463741657724;0.0672988681553992;0.0;53.71084952;86.83743383999999
1.2271961606842723;1.3666431389589995;1.8640349343849314;0.0112164780258998;0.027984798467150542;0.0265116753339451;1.6967973089732777;0.7675041888886295;0.589062679961593;2.462459148977783;2.0815283855049334;0.0343632099520752;0.0003150693154053533;0.063220148873254;-0.0173345569491179;0.0005592567716069481;0.0672988681553992;0.0;53.71052625;86.83734865
1.8640349343849314;1.1895849606165576;1.8640349343849314;0.0265116753339451;0.027443566786146734;0.0265116753339451;2.462459148977783;0.7569812399656245;0.5730205976598944;2.462459148977783;2.0815283855049334;0.0343632099520752;0.0003644919531159969;0.063220148873254;-0.0173345569491179;0.0004196996272533789;0.0672988681553992;0.0;53.710211189999995;86.83726142999998
1.7634027145972233;1.2650447865291377;1.8640349343849314;-0.0101967982053635;0.0362604557747674;0.058121749770572;2.4190195704505237;0.7538399627123947;0.5682746893822247;2.462459148977783;2.0815283855049334;0.0343632099520752;0.0003629900964300724;0.063220148873254;-0.0173345569491179;0.00047763663709883813;0.0672988681553992;0.0;53.70989485;86.83716013
1.2378324580316171;1.1966822322655395;1.8640349343849314;-0.0183542367696543;0.04002844017295389;0.058121749770572;2.1987864052175854;0.794385312563443;0.6310480248165191;2.700744997353274;2.3198142338804244;0.0343632099520752;0.0003254667847694433;0.063220148873254;-0.0224329560517997;0.0004312523709912564;0.0622004690527174;0.0;53.70957313;86.83706369000001
1.1666874660648752;2.01936386984471;1.8640349343849314;-0.0137656775772407;0.06527988565229799;0.1764046089527888;2.4095008816924097;1.1100488862015345;1.2322085297572671;5.095627844355645;4.458034845919206;0.0527174467217294;0.000541248932305533;0.0815743856429082;0.0275313551544814;0.0012197848948201362;0.11216478025899851;0.0;53.70924577000001;86.83699489
0.7982442799424447;2.197413939421682;1.8640349343849314;-0.0050983991026817;0.061782299444649996;0.1764046089527888;2.1994420658610503;0.956714417161554;0.9153024760047721;5.095627844355645;3.3988305353823676;0.0527174467217294;0.0004293028454854924;0.0683185479759355;0.0275313551544814;0.0014475125793811927;0.11216478025899851;0.0;53.708966739999994;86.83698722
-0.834864223371214;2.1483295057492313;1.8640349343849314;0.058121749770572;0.061526527077870985;0.1764046089527888;2.1823207661838753;0.9125266032301182;0.8327048016026977;5.095627844355645;2.91330707817177;0.0527174467217294;0.00035444106606404046;0.0683185479759355;0.0275313551544814;0.0013964494520597704;0.11216478025899851;0.0;53.708710780000004;86.8370615
-1.70485236747978;2.061690344823383;1.7634027145972233;0.0469052717446721;0.06544744053745813;0.1764046089527888;2.700744997353274;0.9079430506603727;0.8243605832424641;5.095627844355645;2.91330707817177;0.0527174467217294;0.0004316364997205435;0.07341694707861735;0.0275313551544814;0.0012880847157984725;0.11216478025899851;0.0;53.708486830000005;86.83721642999998
-4.636627413632834;1.899232702160594;1.2378324580316171;0.1764046089527888;0.0704344035936495;0.1764046089527888;5.095627844355645;0.9023643437169588;0.8142614088117378;5.095627844355645;2.91330707817177;0.0527174467217294;0.0005813369530759701;0.09075150402773524;0.0275313551544814;0.0010751445432219003;0.101967982053635;60.0;53.708296229999995;86.83745335
-2.6551359008010382;1.7392972691349144;1.1666874660648752;0.0999286224125624;0.07745244090095943;0.1764046089527888;3.4125344330818006;1.0534422013586142;1.1097404716032833;5.095627844355645;4.088588499614122;0.0527174467217294;0.0005813369530759701;0.09075150402773524;0.0275313551544814;0.0008952105595044459;0.09992862241256231;0.0;53.708132039999995;86.83777556
-0.8835771219454429;1.4972122268091057;0.7982442799424447;0.0173345569491179;0.08149106924309037;0.1764046089527888;2.185097222682876;1.0913075009561692;1.1909520616431992;5.095627844355645;4.088588499614122;0.0527174467217294;0.0006783309013132625;0.09075150402773524;0.0275313551544814;0.0006612328405811969;0.0927908636688079;0.0;53.70798128;86.83817776
-2.256320660808891;1.4532684893887347;0.544922144828297;-0.0326297542571632;0.08129412956978833;0.1764046089527888;2.8075078498002615;1.1757508062360196;1.3823899583646502;5.095627844355645;4.088588499614122;0.0527174467217294;0.0006631737015291652;0.09075150402773524;0.0275313551544814;0.000625742811818434;0.0887121443866624;0.0;53.70784812000001;86.83865388000001
-2.3818825945598308;1.4374625139655717;0.544922144828297;-0.058121749770572;0.0806915508009866;0.1764046089527888;2.5906377349039627;1.2146639637089163;1.4754085447330554;5.095627844355645;4.088588499614122;0.0527174467217294;0.0007419634138214954;0.09075150402773524;0.0275313551544814;0.0006106318230092889;0.0887121443866624;0.0;53.70774181;86.83919781
-0.2192702802360218;1.9630632072543184;2.5562482387378775;-0.0815743856429081;0.08108866245409738;0.1764046089527888;1.007039344741523;1.2141125109065378;1.4740691891397781;5.095627844355645;4.088588499614122;0.0527174467217294;0.0008701642110807312;0.09075150402773524;0.0275313551544814;0.0011071687488632984;0.12134189864382569;30.0;53.70765871;86.83983918999999
-1.4150876024207089;1.6246979232413257;2.5562482387378775;-0.0642398286937901;0.0557470562134379;0.0999286224125624;1.7439069282615838;0.8819636160687533;0.7778598200690713;3.4125344330818006;2.656894259763253;0.036402569593147804;0.0005961677878494716;0.07443662689915365;-0.0061180789232181;0.0007523724359293206;0.0876924645661262;30.0;53.7076104;86.84049488
0.544922144828297;1.515965393087097;2.5562482387378775;0.0326297542571632;0.04163657917391883;0.0326297542571632;1.185261424133773;0.8199331314652566;0.6722903400744218;2.8075078498002615;2.184985185174803;0.036402569593147804;0.0006076281096374463;0.07443662689915365;-0.0112164780258998;0.0006579172031284284;0.0825940654634445;30.0;53.70757886;86.84114174
-1.1409894385050392;1.53202261563328;2.5562482387378775;-0.0142755174875089;0.039719550410907904;0.0326297542571632;1.5017175008486974;0.8732398629641388;0.7625478582696279;2.8075078498002615;2.240852097159504;0.036402569593147804;0.0006067529892993021;0.07443662689915365;-0.0112164780258998;0.0006728895590127188;0.0825940654634445;30.0;53.70755028;86.84175316
2.5562482387378775;1.3635409781014438;2.5562482387378775;-0.037728153359845;0.040809881468076625;0.0326297542571632;2.678222394934705;0.8454430033313518;0.7147738718819361;2.678222394934705;2.4920093150727713;0.036402569593147804;0.0005765079061935364;0.07443662689915365;-0.0112164780258998;0.0005288961610638042;0.0825940654634445;30.0;53.70751374;86.8423387
0.5524699141294742;1.0977285033307407;2.5562482387378775;0.0305903946160905;0.039308807704217526;0.0326297542571632;0.7556401733185475;0.7119455415292736;0.5068664541034106;2.678222394934705;2.4920093150727713;0.036402569593147804;0.00040557350984789004;0.06627918833486302;-0.0285510349750178;0.000339696876868572;0.06525950851432649;0.0;53.70746405;86.84289829
0.5616577112437247;1.0855848312289853;2.5562482387378775;0.0142755174875089;0.034284812272201454;0.0326297542571632;0.6225226646254588;0.7108633713366631;0.5053267327081266;2.678222394934705;2.4920093150727713;0.036402569593147804;0.0004461929568302692;0.06627918833486302;-0.0285510349750178;0.0003324995175198739;0.06525950851432649;0.0;53.70740549999999;86.84343365999999
0.5212423170631988;0.9275248215028277;2.5562482387378775;-0.0336494340776996;0.038003503238397;0.0657693484245946;0.5666557526407576;0.6791778307299534;0.4612825257550452;2.678222394934705;2.4920093150727713;0.036402569593147804;0.0003221547575490872;0.0530233506678901;-0.0316100744366268;0.00024214839693186251;0.0622004690527175;0.0;53.70734482;86.84394642
0.014405784602034899;0.9488046226305781;2.5562482387378775;-0.0545528703986948;0.06364632011553882;0.1600897318242072;0.18621307986193347;0.6818398964056074;0.4649056443304094;2.678222394934705;2.4920093150727713;0.036402569593147804;0.00031903551673986017;0.0530233506678901;-0.0316100744366268;0.00025254586629595296;0.0622004690527175;0.0;53.70729453;86.84445677
0.6937337014140241;0.7921548309609429;2.5562482387378775;-0.0275313551544814;0.06620308262634741;0.1600897318242072;0.9670801892069656;0.6673128251598472;0.44530640662281684;2.678222394934705;2.4920093150727713;0.036402569593147804;0.0002639000472508363;0.0530233506678901;-0.0489446313857448;0.000165207123637593;0.0448659121035995;0.0;53.707301470000004;86.84497059
0.15752430584061816;0.39456296847953887;0.973199969957705;0.0040787192821454;0.0656373646306678;0.1600897318242072;1.106635823974116;0.36094970071351823;0.13028468644517838;1.2908730867339362;1.1046600068720027;0.01498929336188437;0.00013718955393378723;0.03161007443662667;-0.0489446313857448;4.935620943414925e-05;0.021413276231263406;0.0;53.70736547;86.84540066999999
-0.189255988889252;0.49521479866100543;1.2954111882503714;0.0657693484245946;0.06570016967016207;0.1600897318242072;1.2141456409434133;0.3773477490819623;0.14239132373722357;1.3098382507523225;1.123625170890389;0.013969613541347958;0.00010086195125002915;0.030590394616090255;-0.0489446313857448;7.766043159195133e-05;0.026511675333945203;0.0;53.70746223;86.84579951
-0.23116743179550525;0.6354245234223888;1.6718068980291667;0.1600897318242072;0.06655968218876053;0.1600897318242072;1.2908730867339362;0.41662082501741626;0.17357291183819257;1.673835865287294;1.4876227854253605;0.0211073722851024;0.00014182798054454497;0.037728153359844696;-0.0489446313857448;0.00011759537850786244;0.031100234526358794;0.0;53.70758833;86.84617137
0.38960535581222633;0.8524683911068376;2.32765681992698;-0.0504741511165493;0.06655968218876053;0.1600897318242072;1.1628119325810782;0.5373011071053603;0.28869247969664585;2.331455691010128;2.1452426111481944;0.0211073722851024;0.00013797514050796277;0.037728153359844696;-0.0489446313857448;0.0002196292112008037;0.0448659121035995;0.0;53.707738989999996;86.84651403000001
0.973199969957705;0.9625151563248636;2.398568904227888;-0.0295707147955541;0.06421653548720443;0.1600897318242072;1.1946750984498542;0.5160574413051737;0.2663152827264428;2.436884974618163;1.4698047854111975;0.0211073722851024;0.00010802465236751359;0.037728153359844696;-0.0489446313857448;0.00027882547011369267;0.045885591924135896;0.0;53.70790952;86.84682024
1.2954111882503714;1.0653242279345794;2.4484547656119293;-0.0214132762312633;0.06449523005064405;0.1600897318242072;1.3098382507523225;0.5720440539717229;0.3272343996844034;2.48373366924676;1.3770978452726441;0.0211073722851024;0.0001020287783675546;0.037728153359844696;-0.0489446313857448;0.0003446761094195991;0.0469052717446722;0.0;53.70810262;86.84709269999999
1.6718068980291667;1.1852589191480254;3.1944519772779634;-0.0346691138982359;0.06552442391964498;0.1600897318242072;1.673835865287294;0.7351022860472561;0.540375370951902;3.2451906730954807;2.0823787405144025;0.0211073722851024;8.177104222318566e-05;0.03364943407769949;-0.0489446313857448;0.0004265735097774185;0.059141429591108394;0.0;53.708315240000005;86.84732324000001
2.32765681992698;1.1232868072410096;3.1944519772779634;-0.0336494340776996;0.06187367055577062;0.1600897318242072;2.331455691010128;0.7953020061119047;0.6325052809256202;3.2451906730954807;2.0823787405144025;0.0211073722851024;8.000275038480666e-05;0.03364943407769949;-0.0489446313857448;0.00038299944858407643;0.059141429591108394;0.0;53.70854608999999;86.84750801
2.398568904227888;0.9744219077095645;3.257814536775264;-0.0142755174875089;0.010962414357582878;-0.0142755174875089;2.436884974618163;0.8790590846794136;0.7727448743574086;3.538300489652174;2.3754885570710957;0.0211073722851024;9.607261692419523e-05;0.03364943407769949;-0.0591414295911083;0.0002984333644228078;0.05200367084735401;0.0;53.70878752;86.8476368
2.4484547656119293;0.8806639295124687;3.633236781883377;-0.0326297542571632;0.014714277773359175;-0.0142755174875089;2.48373366924676;0.9525158256421977;0.9072863980988376;4.038161125637922;2.8434860271880678;0.0211073722851024;9.607261692419523e-05;0.03364943407769949;-0.0703579076170082;0.00024214839693186463;0.0458855919241358;0.0;53.70899259;86.84771386999999
3.1944519772779634;0.7619394634456378;3.633236781883377;-0.0356887937187723;0.014572267587645222;-0.0142755174875089;3.2451906730954807;0.8282470825691729;0.6859932297843463;4.038161125637922;2.7283228748855994;0.0211073722851024;0.00010199917446172692;0.03364943407769949;-0.07545630671969;0.00019016105011141244;0.040787192821454;0.0;53.70918578;86.84779442
2.9484019785519013;0.6618081920595016;3.633236781883377;-0.0438462322830631;0.018440893814242826;-0.0142755174875089;3.0848524660754797;0.7464611371032757;0.5572042292055154;4.038161125637922;2.364325260350628;0.04048128887529323;0.00024331233586345503;0.05302335066789032;-0.0800448659121036;0.00014124673312523623;0.03619863362904041;0.0;53.709368729999994;86.84787753
3.257814536775264;0.7036698768250427;4.163265531773706;-0.0458855919241358;0.018974448762671143;-0.0142755174875089;3.538300489652174;0.7498367637717364;0.5622551723036708;4.505444532886933;2.1739888418768047;0.04048128887529323;0.00022116572611794266;0.05302335066789032;-0.0825940654634444;0.00014953871494309917;0.0418068726419905;0.0;53.709541679999994;86.84795832
3.633236781883377;0.6827184408052164;4.163265531773706;-0.0683185479759355;0.018758906531452364;-0.0142755174875089;4.038161125637922;0.7047986953532785;0.4967412009716836;4.505444532886933;2.0685595582687695;0.04048128887529323;0.00021160005430297867;0.05302335066789032;-0.0825940654634444;0.00014187924584488598;0.0418068726419905;0.0;53.70970668;86.8480414
1.790310767449359;0.6436472156372102;4.163265531773706;-0.0336494340776996;0.019726990972026726;-0.0091771183848271;2.7071638344576976;0.6280745462252068;0.39447763561599936;4.505444532886933;2.0217108636401724;0.04048128887529323;0.00019853390113543806;0.05302335066789032;-0.0825940654634444;0.00012829321920914132;0.0418068726419905;30.0;53.70987195;86.84813242999999
3.2265002356194312;0.7754128813083849;4.76123565699257;-0.0774956663607627;0.019796850218248785;-0.0091771183848271;3.86074914639424;0.7179929523676336;0.5155138796495911;5.211158376637835;2.5039945421801373;0.04048128887529323;0.0001794834267116768;0.05302335066789032;-0.0825940654634444;0.00018624178179833925;0.05200367084735401;30.0;53.71003471;86.84822095000001
4.163265531773706;0.7738849134736687;4.76123565699257;-0.0591414295911083;0.019602443966647717;-0.0091771183848271;4.505444532886933;0.6997084378438313;0.4895918979898547;5.211158376637835;2.5039945421801373;0.04048128887529323;0.00017616778925890565;0.05302335066789032;-0.0825940654634444;0.0001857796720488241;0.05200367084735401;0.0;53.710191980000005;86.84830910000001
3.4199827439223016;0.7684461777189314;4.76123565699257;-0.037728153359845;0.0199178618320023;-0.0091771183848271;3.8937513707093707;0.6423503411411527;0.4126139607641553;5.211158376637835;2.5039945421801373;0.04048128887529323;0.00021304414727021335;0.05302335066789032;-0.0825940654634444;0.0001820712413089651;0.05200367084735401;0.0;53.71034459;86.84840539000001
3.1714884036106543;0.771305950154849;4.76123565699257;-0.0091771183848271;0.025600304676040294;-0.0091771183848271;3.756413825186992;0.6252506799442844;0.39093841277079;5.211158376637835;2.5039945421801373;0.04048128887529323;0.0001632287162724823;0.04996431120628131;-0.0825940654634444;0.00018300701355173323;0.05200367084735401;0.0;53.71049369;86.84851097
4.76123565699257;0.9167314619639922;4.76123565699257;-0.0316100744366268;0.02529043503587644;-0.0091771183848271;5.211158376637835;0.7013382574310947;0.49187535133648436;5.211158376637835;2.5039945421801373;0.04048128887529323;0.00017237848931288193;0.04996431120628131;-0.0825940654634444;0.00025029019308113633;0.05200367084735401;0.0;53.71064087;86.84863511
3.4685760770975236;0.8771204174751547;4.76123565699257;-0.0489446313857448;0.024533608555274783;-0.0091771183848271;4.159201224415233;0.6249870921857663;0.3906088653988195;5.211158376637835;2.219137000612459;0.04048128887529323;0.00017108458201423951;0.04996431120628131;-0.0836137452839808;0.00022458533826435697;0.05098399102681761;0.0;53.71076813;86.84876237
3.0446009492244404;0.9859787199622297;4.76123565699257;-0.0571020699500356;0.02310874350845755;-0.0091771183848271;3.9184671614323423;0.6945283833810756;0.4823696753219303;5.211158376637835;2.220851432620689;0.012949933720811546;7.389134894746995e-05;0.022432956051799624;-0.0836137452839808;0.0002800385082061729;0.05098399102681761;0.0;53.71090151;86.84894183
3.150284845319076;0.965050047979202;4.76123565699257;-0.0978892627714897;0.023353660936167787;-0.0091771183848271;3.96530301502402;0.7058460867444913;0.498218698172512;5.211158376637835;2.250645160872151;0.012949933720811546;7.116490142533063e-05;0.022432956051799624;-0.0836137452839808;0.0002721364314894637;0.05098399102681761;30.0;53.711028799999994;86.84914848
1.763857181074978;0.9775742933934317;4.76123565699257;-0.0632201488732537;0.023851694124905926;-0.0091771183848271;2.992021376025376;0.7378493736493766;0.5444216981947775;5.211158376637835;2.250645160872151;0.012949933720811546;8.993810999938286e-05;0.02549199551340864;-0.0836137452839808;0.00027772795945859674;0.05098399102681761;0.0;53.71115414999999;86.84938391
2.037310632404803;0.9900279954571161;4.76123565699257;-0.058121749770572;0.017510277519310842;-0.0316100744366268;3.1718291225533686;0.767637243569079;0.5892669377143336;5.211158376637835;2.307473100196667;0.012949933720811546;8.276385613816033e-05;0.02549199551340864;-0.0836137452839808;0.00028697015444889936;0.05098399102681761;0.0;53.711271690000004;86.84963712999999
1.7959252260595644;0.6467284918563005;3.4685760770975236;-0.0509839910268175;0.01435621636378266;-0.0489446313857448;2.9903069440171457;0.5093664430735001;0.2594541733293492;4.159201224415233;1.2871126655458789;0.011930253900275356;6.682106977988864e-05;0.02447231569287245;-0.0836137452839808;0.00012726502501646917;0.028551034975017806;0.0;53.71138338000001;86.8499101
1.933954318030989;0.509537552370048;3.150284845319076;-0.0642398286937901;0.01379187897438772;-0.0509839910268175;2.9605132157656837;0.40830739241419234;0.16671492670007723;3.96530301502402;1.0932144561546653;0.012949933720811546;6.955907004576536e-05;0.02549199551340864;-0.0836137452839808;8.346857350617263e-05;0.024472315692872393;0.0;53.71149453;86.85020813
1.9933107969432946;0.49575826279697477;3.150284845319076;-0.07545630671969;0.01423499649323375;-0.0509839910268175;2.968208457982375;0.33498217148281784;0.11221305521134396;3.96530301502402;1.0932144561546653;0.012949933720811546;5.9799889773192484e-05;0.02549199551340864;-0.0836137452839808;7.366029407271374e-05;0.024472315692872393;0.0;53.71160363;86.85052458999999
1.9499285398422241;0.45284047446237047;2.9672304687151154;-0.0540430304884266;0.009209163467968027;-0.0499643112062812;2.903685276441168;0.3642479695983663;0.13267658335653237;3.446332014359334;1.421964162106252;0.012949933720811546;6.961972195038915e-05;0.02549199551340864;-0.0734169470786173;6.187649546007763e-05;0.03059039461609049;0.0;53.711706719999995;86.85085039999998
1.8995874650217752;0.4801686392312121;2.9672304687151154;-0.0622004690527174;0.013088759944662055;-0.0305903946160905;2.8720885588693545;0.3669716104847427;0.1346681629017657;3.446332014359334;1.421964162106252;0.012949933720811546;7.925471022778037e-05;0.02549199551340864;-0.0734169470786173;7.210067366810016e-05;0.03059039461609049;0.0;53.711804400000005;86.85118104
2.472368854713542;0.48189081115107685;2.9672304687151154;-0.0744366268991536;0.01906464976697401;-0.0132558376669725;3.1229747033267454;0.36002451899690935;0.12961765427895594;3.446332014359334;1.421964162106252;0.0211073722851024;0.00011370499205413323;0.03364943407769949;-0.0734169470786173;7.191582976829413e-05;0.03059039461609049;0.0;53.71189854000001;86.85151326
2.9672304687151154;0.4825627660073959;2.9672304687151154;-0.0520036708473539;0.019077673828800802;-0.0132558376669725;3.446332014359334;0.3730596177526977;0.13917347839778893;3.446332014359334;1.421964162106252;0.0211073722851024;9.857089775751189e-05;0.03364943407769949;-0.0734169470786173;7.305955139834402e-05;0.03059039461609049;0.0;53.711977950000005;86.85180771
1.2440597135163776;0.5105314180884354;2.9672304687151154;-0.0499643112062812;0.019550512181722938;-0.0132558376669725;2.024367852253082;0.4022501339267482;0.16180517024408683;3.446332014359334;1.421964162106252;0.0211073722851024;9.669935327197564e-05;0.03364943407769949;-0.0734169470786173;8.041864915937267e-05;0.03059039461609049;0.0;53.71205646;86.85209102
2.6046564154792016;0.5243197744216233;2.9672304687151154;-0.0305903946160905;0.01930521983775238;-0.0132558376669725;3.0904284344105113;0.410929412034282;0.1688629816748407;3.446332014359334;1.421964162106252;0.0211073722851024;7.983234741467443e-05;0.028551034975018097;-0.0734169470786173;8.429170649749627e-05;0.03059039461609049;0.0;53.712133429999994;86.85236255
2.2369985871390288;0.5976112958848042;3.1230307605833802;-0.0132558376669725;0.01935333316836525;-0.0132558376669725;2.844394808122173;0.4757698603688462;0.22635696003539144;3.6475143618150465;1.6231465095619644;0.0211073722851024;8.135730958807474e-05;0.028551034975018097;-0.0734169470786173;0.00010755893238558312;0.03262975425716319;0.0;53.712208309999994;86.85262431000001
1.7867545390192037;0.6943266637712375;3.51688813374484;-0.0499643112062812;0.01935333316836525;-0.0132558376669725;2.5965585443790764;0.5746265769219452;0.33019570290503214;3.999510256949165;1.9751424046960828;0.0211073722851024;9.785462764576486e-05;0.028551034975018097;-0.0734169470786173;0.0001409001508130999;0.0387478331803813;0.0;53.7122891;86.85290222
2.690045608933384;0.7307900931548518;3.51688813374484;-0.0326297542571632;0.016785704245670136;-0.0132558376669725;3.3578075342256732;0.586092846036418;0.34350482417506834;3.999510256949165;1.9751424046960828;0.0211073722851024;9.785462764576486e-05;0.028551034975018097;-0.0734169470786173;0.00015772094569545055;0.0387478331803813;0.0;53.71236405;86.85317685
1.7723618743408363;0.7335533594458543;3.51688813374484;-0.0193739165901906;0.016920063314549302;-0.0132558376669725;2.6471885145602982;0.5816596623840063;0.3383279628446763;3.999510256949165;1.9751424046960828;0.0211073722851024;0.00017518580604118693;0.04078719282145393;-0.0734169470786173;0.0001533742258640737;0.0387478331803813;0.0;53.71242985;86.85344489
3.1230307605833802;0.6564198330623505;3.51688813374484;-0.0305903946160905;0.0170096124050908;-0.0132558376669725;3.6475143618150465;0.49133916746858153;0.24141417748871882;3.999510256949165;1.40455164165011;0.0211073722851024;0.00019063182441873033;0.04078719282145393;-0.0815743856429081;0.00012037958974869353;0.030590394616090505;0.0;53.7124782;86.85370828
3.51688813374484;0.6902863435079726;3.51688813374484;-0.0622004690527174;0.034368571846028505;-0.0132558376669725;3.999510256949165;0.5682335843247461;0.3228894063545483;3.999510256949165;1.8890245819464804;0.0211073722851024;0.00017139650609516205;0.04078719282145393;-0.0795350260018354;0.0001293791771205005;0.032629754257163204;0.0;53.71250157000001;86.85394413
1.7163191320711624;0.8451608704522398;3.51688813374484;-0.058121749770572;0.03660525894509978;-0.0193739165901906;2.7044105140588615;0.763396967047374;0.5827749292971295;3.999510256949165;2.6795041645849134;0.020087692464565987;0.0001530623017831494;0.03976751300091752;-0.0642398286937901;0.00019782918376742923;0.04792495156520851;0.0;53.71250223;86.85413679000001
1.601174212719405;1.0285139319054306;3.51688813374484;-0.023452635872336;0.03726213233481004;-0.0193739165901906;2.594958615299055;0.957722380349066;0.917232157821481;3.999510256949165;3.0460380787401955;0.020087692464565987;0.00015943941632645835;0.03976751300091752;-0.0560823901294993;0.00029920451006731094;0.0560823901294993;60.0;53.712486250000005;86.85427953
1.983607909704065;1.0823591185435775;3.51688813374484;-0.0509839910268175;0.038777636917716275;-0.0173345569491179;2.7531983638865967;1.0748239767043728;1.155246580898602;3.999510256949165;3.226769540554807;0.020087692464565987;0.00015854985505864142;0.03976751300091752;-0.0560823901294993;0.00033479851352371376;0.0560823901294993;60.0;53.712451079999994;86.85435444
1.5158385804367764;1.1669926156958144;3.51688813374484;-0.1325583766697257;0.04072837720316447;-0.0040787192821454;2.1104856750026846;1.216868331887963;1.4807685371517934;3.999510256949165;3.516265605088849;0.020087692464565987;0.00015854985505864142;0.03976751300091752;-0.0560823901294993;0.0003894458795898125;0.0560823901294993;60.0;53.71239342;86.85436589999999
0.6467463914113849;1.0968761907362645;3.51688813374484;-0.1060467013357805;0.047572432009257176;0.023452635872336;1.3200060923642518;1.2374603583172787;1.531308138406728;3.999510256949165;3.85955088618908;0.020087692464565987;0.00016132251355573186;0.03976751300091752;-0.0530233506678902;0.000344390179012087;0.05914142959110841;60.0;53.712314830000004;86.85431546999999
0.18893963245338252;0.7903075938824919;1.983607909704065;-0.0805547058223717;0.04949200883253678;0.023452635872336;0.9534721782089693;1.0652052209343768;1.1346621627058542;2.7531983638865967;2.6646293292393826;0.019068012644029797;0.00012735744696637025;0.03874783318038133;-0.0520036708473539;0.00018352977520586926;0.0336494340776996;0.0;53.71220697;86.85418201
0.38651550421681824;0.76524407796958;1.983607909704065;-0.0173345569491179;0.049764948732468554;0.023452635872336;0.7727407163943579;1.0262210085952563;1.053129558482265;2.7531983638865967;2.6646293292393826;0.019068012644029797;0.00010240352049255372;0.03874783318038133;-0.0520036708473539;0.0001754890655643056;0.0336494340776996;0.0;53.71207671;86.85397495
0.2440364999804303;0.6970154203808672;1.983607909704065;-0.0040787192821454;0.049648158222522776;0.023452635872336;0.4832446518603161;0.8881653284864273;0.7888376507254032;2.7531983638865967;2.6646293292393826;0.019068012644029797;9.058506364870493e-05;0.029570714795554287;-0.0520036708473539;0.0001382170260799755;0.0336494340776996;0.0;53.71193118;86.85369886
0.0089347512626623;0.6349060847532839;1.5158385804367764;0.023452635872336;0.05398592389889216;0.0265116753339451;0.13995937076008502;0.6360501244467771;0.40455976080876066;2.1104856750026846;2.0219166403554705;0.011930253900275356;0.0001275538436099148;0.04384623228306317;-0.0387478331803813;0.00011802283002616368;0.0407871928214541;0.0;53.71178092;86.85336428
-0.05401404589163139;0.6066652565746113;0.895083318383612;-0.0050983991026817;0.05593129457701982;0.0948302233098807;0.0885690346472141;0.49774583245138604;0.2477509137227233;1.3967078700582816;1.3081388354110675;0.011930253900275356;0.00014445550769843078;0.04384623228306317;-0.0336494340776996;0.00010814523413027687;0.0336494340776996;0.0;53.711628250000004;86.85298377
-0.04577803546444592;0.6535708388187178;0.895083318383612;-0.0224329560517997;0.04697529168220661;0.0948302233098807;0.10139912984903324;0.5312924692417879;0.2822716878730361;1.5445715765144308;1.4560025418672167;0.011930253900275356;0.0001705762612897736;0.04384623228306317;-0.0336494340776996;0.00012389162384500473;0.0336494340776996;0.0;53.71146679000001;86.85258934999999
0.895083318383612;0.7046484052184249;0.895083318383612;-0.0265116753339451;0.03877897754732423;0.0948302233098807;0.9777493659401018;0.6337517312995415;0.4016412569251663;1.8446676198873109;1.7560985852400968;0.011930253900275356;0.00022944904337800115;0.04384623228306317;-0.0336494340776996;0.0001425724104691537;0.0336494340776996;0.0;53.71128566;86.85219574
-0.8502964205106971;0.6668929242507728;0.895083318383612;0.0265116753339451;0.04407735656383276;0.0948302233098807;1.0592433871079163;0.7133071673116465;0.5088071149381652;1.8864316094609892;1.797862574813775;0.011930253900275356;0.00024394773676903814;0.04384623228306317;-0.0336494340776996;0.00012800440061568914;0.0336494340776996;0.0;53.71107918;86.85183822
-1.0643527467942004;0.6799520150315447;0.895083318383612;0.0948302233098807;0.04858940484320158;0.0948302233098807;1.3967078700582816;0.7819608527742083;0.6114627752713672;2.143719279097446;2.055150244450232;0.011930253900275356;0.0002893846778901139;0.04384623228306317;-0.0316100744366268;0.0001352248654518631;0.035688793718772406;0.0;53.710845989999996;86.85152311
-1.0581229876501872;0.800809440681135;0.895083318383612;0.040787192821454;0.048672906651075085;0.0948302233098807;1.5445715765144308;0.8217543525914196;0.6752802160029431;2.5760232049337803;2.4874541702865662;0.031304170490465966;0.0004376179327908303;0.06322014887325378;-0.0173345569491179;0.0001938550399215953;0.04996431120628131;0.0;53.71059269;86.85125189
-1.078203750016142;0.7791128477465442;0.895083318383612;0.0520036708473539;0.05038956469037848;0.0948302233098807;1.8446676198873109;0.698534323065306;0.4879502005003053;2.5760232049337803;2.4746240750847472;0.031304170490465966;0.0004641892433879502;0.06322014887325378;-0.0173345569491179;0.00018179397545925005;0.04996431120628131;0.0;53.7103183;86.85102614
-0.3616432108875962;1.7639964808471906;0.895083318383612;-0.0560823901294993;0.050267474558949844;0.0948302233098807;1.8864316094609892;1.4753615920992809;2.176691827441725;6.108031473925185;5.130282107985083;0.031304170490465966;0.0004727498264977178;0.06322014887325378;0.0509839910268175;0.0009437320832035336;0.1182828591822167;0.0;53.71002344;86.85085672
-1.1702639704799056;1.8463152746492635;-0.3616432108875962;-0.0530233506678902;0.04944953617320641;0.0948302233098807;2.143719279097446;1.639694323033067;2.6885974729868676;6.108031473925185;5.048788086817268;0.031304170490465966;0.00044963278627822335;0.06322014887325378;0.0509839910268175;0.0010501906167480791;0.0968695829509533;0.0;53.70970804000001;86.85074356
-1.9749278027233474;2.1297036134630765;-0.3616432108875962;-0.0142755174875089;0.04995069627886062;0.0948302233098807;2.5760232049337803;1.838866609053729;3.38143040589276;6.108031473925185;4.711323603866903;0.031304170490465966;0.000400833996729426;0.06322014887325378;0.0509839910268175;0.0013817543620251841;0.0968695829509533;0.0;53.709372429999995;86.85068443
-1.1130996248558551;2.080643936940704;-0.3616432108875962;-0.037728153359845;0.040885113245618075;0.0520036708473539;1.861746537512641;1.7503274140553362;3.0636460563936403;6.108031473925185;4.563459897410754;0.031304170490465966;0.0003969984858084506;0.06322014887325378;0.0509839910268175;0.0013211255628887985;0.0968695829509533;0.0;53.70902134000001;86.8506815
-5.935087514241443;2.0389893966822434;-0.3616432108875962;-0.0198837565004588;0.03919785190987881;0.0520036708473539;6.108031473925185;1.6663255791814875;2.7766409358345197;6.108031473925185;4.263363854037874;0.031304170490465966;0.00042929995729955794;0.06322014887325378;0.0509839910268175;0.0012673475407889746;0.0968695829509533;30.0;53.708655050000004;86.85072737
-4.6744699030045425;1.9392711619738743;-0.3616432108875962;-0.0061180789232181;0.038568564555543645;0.0479249515652085;4.874092722009811;1.5722857551386995;2.4720824958120704;6.108031473925185;4.246284936412544;0.031304170490465966;0.0003331926821441483;0.05914142959110835;0.0509839910268175;0.001138418920674253;0.0968695829509533;30.0;53.708288059999994;86.85080838
-5.611724600267941;1.6889283312345644;-1.1130996248558551;0.0346691138982359;0.034162613572059596;0.0479249515652085;5.790810519722618;1.458315370635964;2.126683720233109;6.108031473925185;4.246284936412544;0.031304170490465966;0.0004288840585249943;0.05914142959110835;0.0509839910268175;0.0008634636197127494;0.0846334251045171;30.0;53.70793044;86.850909
-2.9412195035123454;1.5912671722078269;-1.1130996248558551;0.0387478331803813;0.02835049162744096;0.0479249515652085;3.2604243355434686;1.4369924963958984;2.0649474346981163;6.108031473925185;4.246284936412544;0.031304170490465966;0.0004117397868179829;0.05914142959110835;0.0509839910268175;0.0007689968341681191;0.0846334251045171;0.0;53.707583750000005;86.85101287
-3.852331024026591;1.5318802631058512;-1.1130996248558551;0.023452635872336;0.02703385760567871;0.0479249515652085;4.056322796103659;1.4011488025611267;1.963217966918479;6.108031473925185;4.246284936412544;0.017028653002957195;0.00029417906654133396;0.04486591210359958;0.0509839910268175;0.0007157617910239761;0.0846334251045171;0.0;53.70723908;86.85112388
-3.1186069668519387;1.4320596317476322;-1.740058847310113;0.0479249515652085;0.02449832495026362;0.0479249515652085;3.305436683053596;1.328282525496458;1.7643344675392487;6.108031473925185;3.780971513173907;0.017028653002957195;0.00029044753031399903;0.04486591210359958;0.0509839910268175;0.0006221036975409965;0.0734169470786172;0.0;53.70690409;86.85123689
-3.2841827879971452;1.7391234294388918;0.7514463397227331;0.0122361578464362;0.023421581578736535;0.0479249515652085;3.4384628580588394;1.2424767349136239;1.5437484368016197;5.790810519722618;4.190635236016093;0.017028653002957195;0.00028840269467239447;0.04486591210359958;0.0448659121035994;0.0009171145616314583;0.1101254206179259;0.0;53.70658524;86.85134556
-1.9512200594500644;2.4274856856208293;2.984904013870012;0.0224329560517997;0.023228416724647108;0.0479249515652085;2.327059960751278;1.130829904218323;1.2787762722744214;5.790810519722618;4.190635236016093;0.017028653002957195;0.00028840269467239447;0.04486591210359958;0.0448659121035994;0.001819048817991355;0.1509126134393799;30.0;53.706289049999995;86.85144873
-2.705891905711648;2.40774908780134;2.984904013870012;0.0101967982053635;0.02331578669763468;0.0479249515652085;3.047066397700344;0.7216369880258491;0.5207599424870195;4.056322796103659;2.456147512397134;0.016008973182420783;0.00024109420906578228;0.04384623228306317;0.0152951973080452;0.0017966942588585621;0.12134189864382569;0.0;53.70599744;86.85154367999999
-1.740058847310113;2.5114667855910717;2.984904013870012;-0.0244723156928724;0.02153331862136941;0.0479249515652085;2.385238152674525;0.7722037031236089;0.5962985591178146;4.056322796103659;2.456147512397134;0.016008973182420783;0.00022324521999076013;0.04384623228306317;0.0152951973080452;0.001958236274545315;0.12134189864382569;0.0;53.70572539999999;86.85163259999999
0.7514463397227331;2.377376368279;2.984904013870012;-0.0122361578464362;0.0206290997504597;0.0479249515652085;1.6001752837065253;0.7054956946241898;0.4977241751332681;3.4384628580588394;1.8820058795449608;0.016008973182420783;0.00017331714974158465;0.04384623228306317;0.0050983991026817;0.0017482073933906893;0.1111451004384622;0.0;53.70547441;86.85171185
2.984904013870012;2.214414088838328;2.984904013870012;-0.0040787192821454;0.013650957646916513;0.0224329560517997;3.200379880789453;0.7456496659608163;0.5559934243474769;3.4384628580588394;2.1964866871953173;0.006831854797593628;0.0001307799472987165;0.034669113898236015;0.0050983991026817;0.0015162860628527837;0.1111451004384622;0.0;53.705233390000004;86.85179083
1.9619067058649646;1.8970645452152861;2.984904013870012;-0.0101967982053635;0.013199176631636382;0.0224329560517997;2.290341888053517;0.7129238714337678;0.5082604464601115;3.200379880789453;2.0923252985486256;0.006831854797593628;6.839513111417381e-05;0.02651167533394516;-0.0050983991026817;0.001112771829576173;0.1009483022330988;0.0;53.70499476;86.85186708
1.624475094852757;1.7010435525821865;2.984904013870012;-0.0066279188334862;0.00940727937387208;0.0101967982053635;1.8889137301285748;0.7710817872692629;0.5945671226583609;3.200379880789453;2.138700288768958;0.006831854797593628;6.922692866330118e-05;0.02651167533394516;-0.0050983991026817;0.0008955802473040621;0.1009483022330988;0.0;53.704760969999995;86.85193792999999
1.3830125113684284;1.2547164755760576;2.984904013870012;0.003059039461609;0.00748710897490592;0.003059039461609;1.5564569785138787;0.7954924291829499;0.6328082048873905;3.200379880789453;2.7643046043639945;0.004792495156520804;5.903740868649242e-05;0.024472315692872337;-0.0224329560517997;0.0004895590686363301;0.0836137452839808;0.0;53.704538879999994;86.852
1.147964244919101;0.8404493569338931;2.984904013870012;-0.0040787192821454;0.005965102741165668;0.003059039461609;1.2419761708635222;0.7738225774218951;0.5988013813278648;3.200379880789453;2.7643046043639945;0.011930253900275356;4.5428276563272154e-05;0.023452635872336258;-0.0509839910268175;0.0002233838529156151;0.055062710308962995;0.0;53.704325389999994;86.85205531
1.0230002554097863;0.8312694521239032;2.984904013870012;-0.0132558376669725;0.005965102741165668;0.003059039461609;1.1080545822408274;0.8018053240416919;0.6428917776616027;3.200379880789453;2.7643046043639945;0.011930253900275356;4.947173687152963e-05;0.023452635872336258;-0.0509839910268175;0.0002165561813665292;0.055062710308962995;0.0;53.70411775;86.85210366999999
0.9451134174384617;0.6241243717250347;2.0717796876950523;-0.0061180789232181;0.006018366871849857;0.003059039461609;1.0616795920204947;0.5722001988304617;0.3274130675416199;2.290341888053517;1.8542666116280588;0.011930253900275356;4.947173687152963e-05;0.023452635872336258;-0.0509839910268175;0.00011691376662732878;0.0367084735393087;0.0;53.70390987;86.85214411
-0.08254718597745381;0.5937532963379142;2.0717796876950523;-0.0142755174875089;0.006776801940738523;0.003059039461609;0.43607527642545835;0.5035635358486618;0.25357623463640644;2.126732177263365;1.6906569008379067;0.011930253900275356;5.328414230502949e-05;0.023452635872336258;-0.0509839910268175;0.00010748672773722009;0.0367084735393087;0.0;53.70371953;86.85217393
2.0717796876950523;0.645343017494796;2.0930307630233047;0.0015295197308045;0.010644277618669262;0.0178443968593861;2.126732177263365;0.5368709659475175;0.28823043407742044;2.139250752773443;1.7031754763479845;0.011930253900275356;5.448562765376885e-05;0.023452635872336258;-0.0509839910268175;0.00012455013023806628;0.037728153359845;0.0;53.70352899999999;86.85219332
0.8714058696102791;0.6696475890564825;2.0930307630233047;-0.0122361578464362;0.01349562496565394;0.0214132762312633;0.9903240119360586;0.5584946436867172;0.3119162670267532;2.139250752773443;1.7031754763479845;0.011930253900275356;5.296933003817233e-05;0.023452635872336258;-0.0509839910268175;0.00013434685692778712;0.037728153359845;0.0;53.70333965;86.85220109
1.5530060999980764;0.8615570243656978;3.0558859459296084;-0.0107066381156316;0.018754364059749784;0.0214132762312633;1.626753768314293;0.7670334544957702;0.5883403203157148;3.1368759521019762;2.700800675676518;0.030284490669929554;0.00015712886757888244;0.041806872641990456;-0.0509839910268175;0.0002064359778521482;0.052003670847353994;0.0;53.703154270000006;86.85219491000001
1.6767314597338006;0.8449157157058114;3.0558859459296084;-0.0173345569491179;0.01872415558574865;0.0214132762312633;1.7493294551507828;0.7451558011760366;0.555257168026301;3.1368759521019762;2.700800675676518;0.030284490669929554;0.0001643262269275812;0.041806872641990456;-0.0509839910268175;0.00019801402766723503;0.052003670847353994;0.0;53.70297866;86.85217546
2.0930307630233047;0.8177869801208107;3.0558859459296084;0.0178443968593861;0.018976655744343738;0.0214132762312633;2.139250752773443;0.7120644317853759;0.5070357550138304;3.1368759521019762;2.700800675676518;0.030284490669929554;0.0001604560577753917;0.041806872641990456;-0.0509839910268175;0.0001853060095555691;0.052003670847353994;0.0;53.70281076;86.85214068
1.8350349237305874;0.5673596408510521;3.0558859459296084;0.0214132762312633;0.019405867046064923;0.0214132762312633;1.9021281906556178;0.5615524212670888;0.31534112183092994;3.1368759521019762;2.1465519401659177;0.030284490669929554;0.00016110301142471288;0.041806872641990456;-0.0683185479759355;7.972548453509943e-05;0.03466911389823599;0.0;53.70264734;86.85209502000001
3.0558859459296084;0.56308334992091;3.0558859459296084;-0.0448659121035994;0.019291750556021208;0.0214132762312633;3.1368759521019762;0.5765419512531623;0.33240062155480377;3.1368759521019762;2.1465519401659177;0.030284490669929554;0.0001469971113207633;0.041806872641990456;-0.0683185479759355;7.906697814204032e-05;0.03466911389823599;0.0;53.70248506;86.85204282000001
1.513656920524193;0.45471023032669805;3.0558859459296084;-0.0122361578464362;0.020267445728162085;0.0214132762312633;1.7361233433068406;0.4612157854300561;0.21272000072986355;3.1368759521019762;1.5101221837876833;0.030284490669929554;0.0001359064773324002;0.041806872641990456;-0.0795350260018354;4.801320297462364e-05;0.02345263587233609;0.0;53.702322730000006;86.85199057
1.546054418958855;0.4408614196871351;3.0558859459296084;0.0020393596410727;0.020368726550784044;0.0214132762312633;1.8378264724235054;0.4289680789454672;0.18401361275416456;3.1368759521019762;1.4007526087951356;0.030284490669929554;0.00011563141207242348;0.03976751300091763;-0.0795350260018354;4.565933143803094e-05;0.02345263587233609;0.0;53.702158159999996;86.85193864
2.0884439520510227;0.6150302877760593;3.0558859459296084;0.0091771183848271;0.020548860596280798;0.0214132762312633;2.4392869225671214;0.43294124604315526;0.1874381225253999;3.1368759521019762;1.4205027440135627;0.030284490669929554;0.0001184849397756796;0.040787192821454044;-0.0632201488732537;9.8339842882756e-05;0.0397675130009178;0.0;53.70198107;86.85188955
1.9570849837632025;0.6536067104500395;3.0558859459296084;-0.0040787192821454;0.02009801313690416;0.0214132762312633;2.3997872323933733;0.5168485329300787;0.26713240599197463;3.1368759521019762;1.4205027440135627;0.030284490669929554;0.00013396561638443657;0.040787192821454044;-0.0632201488732537;0.00011063196221985859;0.0397675130009178;0.0;53.7018039;86.85185062000001
1.8493249193386347;0.989684651901491;4.228927912198282;-0.0254919955134087;0.02218985107773611;0.0346691138982359;2.3338510665713157;0.8706371770029536;0.7580090939796724;4.596734288171447;2.8803610800830337;0.030284490669929554;0.00013211717738637616;0.040787192821454044;-0.0632201488732537;0.0002830451097639542;0.0632201488732538;0.0;53.701633709999996;86.85182123000001
1.7587883402147044;1.2059132956063525;4.426223720509292;0.0020393596410727;0.020720948844544826;0.0448659121035994;2.3465177431743776;1.1154134876270783;1.2441472483804021;4.795561776384844;3.07918856829643;0.023146731926175224;9.548342699356477e-05;0.033649434077699714;-0.0632201488732537;0.0004186281102716939;0.06423982869379019;0.0;53.70146889;86.85180233
0.5796720613442443;1.2800818849305509;4.426223720509292;0.0122361578464362;0.023445492099591;0.0509839910268175;1.7163732080884135;1.1620138416982118;1.350276168298237;4.795561776384844;3.07918856829643;0.023146731926175224;0.00012154641686621711;0.03874783318038133;-0.0632201488732537;0.0004941368433424671;0.06423982869379019;0.0;53.701308;86.85178736
2.5573673482647417;1.2410866047227307;4.426223720509292;0.0132558376669725;0.02378670169036314;0.0509839910268175;3.1005842841922275;1.0905791683941923;1.1893629225353683;4.795561776384844;3.07918856829643;0.024166411746711636;0.00016646348451908837;0.03976751300091774;-0.0632201488732537;0.00046745000530796853;0.06423982869379019;0.0;53.70114962;86.85178514
4.228927912198282;1.2338639649209069;4.426223720509292;0.0346691138982359;0.02445838554547444;0.0509839910268175;4.596734288171447;1.0738226024990152;1.153094981637758;4.795561776384844;3.07918856829643;0.024166411746711636;0.00016711043816840956;0.03976751300091774;-0.0632201488732537;0.0004617891608764083;0.06423982869379019;0.0;53.70097697999999;86.85179682
4.426223720509292;1.3085556604644315;4.426223720509292;0.0448659121035994;0.02363395030422707;0.0509839910268175;4.795561776384844;1.0746967657783397;1.1549731383744237;4.795561776384844;3.07918856829643;0.024166411746711636;0.00016661655837361546;0.03976751300091774;-0.0632201488732537;0.0005192062972536632;0.06423982869379019;0.0;53.70080635000001;86.85181563
3.9180612137137887;1.2944468726942027;4.426223720509292;0.0509839910268175;0.01866328245199552;0.0509839910268175;4.35116627770668;1.037714586707745;1.0768515634660263;4.795561776384844;3.07918856829643;0.024166411746711636;0.00016973579918284248;0.03976751300091774;-0.0632201488732537;0.0005097330473886031;0.06423982869379019;0.0;53.70063666;86.85183026
2.2506994374826768;1.418889302158065;4.426223720509292;0.0336494340776996;0.02299654942662158;0.0509839910268175;2.93344412943678;1.0894600617835;1.1869232262213076;4.795561776384844;3.07918856829643;0.024166411746711636;0.00018230518436965408;0.03976751300091774;-0.0622004690527174;0.0006195043301999877;0.06525950851432649;0.0;53.70046683;86.85184475
2.9262183669652773;1.3803678284885987;4.426223720509292;-0.0020393596410727;0.023307423800764542;0.0509839910268175;3.5973057353869744;1.0602554497266474;1.1241416186750552;4.795561776384844;2.8898808339879887;0.024166411746711636;0.0001487560165548549;0.03976751300091774;-0.0622004690527174;0.0005921474330286913;0.06525950851432649;0.0;53.700304689999996;86.85185413
1.1457509346982055;1.775229137404595;4.426223720509292;0.0081574385642908;0.023387584167662935;0.0509839910268175;2.3895050064976338;1.1532391219977614;1.3299604725061676;4.795561776384844;2.975611183203604;0.024166411746711636;0.0001698513266202219;0.03976751300091774;-0.0346691138982359;0.0009636836716388567;0.09279086366880798;0.0;53.700139060000005;86.85185234
2.1302018198043164;1.6447516751429376;4.426223720509292;0.0096869582950953;0.0232404122902159;0.0509839910268175;2.8901797510516896;1.1296686772450701;1.2761513203486265;4.795561776384844;3.3086292862768123;0.024166411746711636;0.0001711423457329297;0.03976751300091774;-0.0346691138982359;0.0008213538687881958;0.09279086366880798;0.0;53.699965559999995;86.85184524
0.627117210975944;1.4475404313750768;3.9180612137137887;-0.0244723156928724;0.020814196558031448;0.0509839910268175;1.9056809423968548;1.0521541284478666;1.1070283100098899;4.35116627770668;3.5476981391758278;0.03538288977261139;0.00023075450342038145;0.0509839910268175;-0.0346691138982359;0.0006645253725464977;0.08871214438666261;0.0;53.69978199;86.85183319000001
0.85282733901616;1.5287703932270762;2.9262183669652773;0.0050983991026817;0.016018405869630378;0.0336494340776996;1.9150676488079124;0.8009355944187526;0.6414978264069205;3.5973057353869744;2.793837596856122;0.03538288977261139;0.0006525105190591059;0.09483022330988078;-0.0163148771285816;0.0006875730963035639;0.0866727847455899;0.0;53.69958827000001;86.85182123
-1.029690845971432;1.7041909124951211;2.9262183669652773;0.0254919955134087;0.012726836032218901;0.0254919955134087;1.8199505931812394;0.7598098616306558;0.5773110258311962;3.5973057353869744;2.793837596856122;0.03538288977261139;0.0007095810731242254;0.09483022330988078;-0.0122361578464362;0.0008701988693119429;0.0907515040277353;0.0;53.69938721000001;86.85180448999999
0.9753266099966704;1.6615411776782494;2.1302018198043164;0.0010196798205363;0.012726836032218901;0.0254919955134087;1.4869324901080314;0.5925553097295225;0.35112179508865043;2.8901797510516896;2.0867116125208374;0.03538288977261139;0.0007113486429161206;0.09483022330988078;-0.0071377587437544;0.0008245886370347985;0.0815743856429081;0.0;53.69919837;86.85177949
0.025394967713384897;1.6834267219796515;2.1302018198043164;0.0081574385642908;0.01508835206702926;0.0254919955134087;0.8034681385308523;0.5805727172822042;0.3370646800524421;2.8901797510516896;2.0867116125208374;0.03538288977261139;0.0007139480102571427;0.09483022330988078;-0.0071377587437544;0.0008427033392157915;0.0815743856429081;30.0;53.69900844;86.85175084
-2.1177580318969342;1.394942521805473;0.9753266099966704;-0.0050983991026817;0.01696276875163744;0.0254919955134087;2.20773122243505;0.6010382349245577;0.36124695984122773;2.5952622033033026;1.7917940647724504;0.03538288977261139;0.0007631280403492914;0.09483022330988078;-0.0071377587437544;0.0005787462502927484;0.062200469052717505;30.0;53.698812759999996;86.85172412
-2.2740136129584325;1.2972134617382025;0.9753266099966704;0.003059039461609;0.020191562958217356;0.0254919955134087;2.2902822513990655;0.6234629013824371;0.38870598940020645;2.5952622033033026;1.7917940647724504;0.03538288977261139;0.0007187539516521009;0.09483022330988078;-0.0071377587437544;0.0005045776354955697;0.062200469052717505;30.0;53.69861132;86.85170444
-2.5915857109408313;1.1168201007890655;0.9753266099966704;-0.0020393596410727;0.03072233798998027;0.0254919955134087;2.5952622033033026;0.6402169915727922;0.40987779629851673;2.5952622033033026;1.7917940647724504;0.03538288977261139;0.0008218621895126644;0.09483022330988078;-0.0071377587437544;0.00037181350445987174;0.062200469052717505;0.0;53.69840667;86.85169178999999
-2.1255732832552683;1.1206894077837577;0.9753266099966704;-0.0239624757826042;0.028522747101345586;0.0254919955134087;2.12699403763276;0.6808119496717145;0.4635049108158012;2.5952622033033026;1.7917940647724504;0.03538288977261139;0.0008439394827957499;0.09483022330988078;-0.0071377587437544;0.00037524466935002164;0.062200469052717505;0.0;53.698192829999996;86.85168787
-0.771742612293242;0.8631165427934284;0.025394967713384897;0.0254919955134087;0.028088482755982264;0.0254919955134087;0.8052496537082409;0.7247737039533223;0.5252969219422181;2.5952622033033026;1.7917940647724504;0.03538288977261139;0.0008338799311859925;0.09483022330988078;-0.0071377587437544;0.00022181267976725935;0.0438462322830631;0.0;53.697970899999994;86.8516861
-1.1988611176212352;0.674987184162879;-0.771742612293242;-0.040787192821454;0.02779529069333269;0.0254919955134087;1.2453541920049684;0.6723816671326373;0.4520971062960646;2.5952622033033026;1.7900125495950618;0.0343632099520752;0.0005958471992107486;0.09381054348934459;-0.0071377587437544;0.00014700866406449741;0.0326297542571633;0.0;53.69774178;86.85168738
-1.198877933120769;0.6743614690816616;-0.771742612293242;-0.0744366268991536;0.027338757182943856;0.0254919955134087;1.2048705827148907;0.6666178409833418;0.44437934591729195;2.5952622033033026;1.7900125495950618;0.0343632099520752;0.00047900274904584626;0.0805547058223719;-0.0071377587437544;0.00014700866406449741;0.0326297542571633;0.0;53.697509430000004;86.85169311000001
-0.8836483064925309;0.7292620151783856;-0.6649652539543092;-0.0224329560517997;0.026878499173766147;0.0254919955134087;0.8867543049581786;0.7235524529541679;0.5235281521759934;2.5952622033033026;1.9299643834153695;-0.0013255837666972248;0.0003140757794438938;0.048944631385744675;-0.0071377587437544;0.00017473524903540555;0.0356887937187723;30.0;53.69727212;86.85170412
-2.364762384949148;0.7010977088525373;-0.6649652539543092;-0.0152951973080452;0.027338757182943856;0.0254919955134087;2.364882003594253;0.6949588590590845;0.48296781578470455;2.389472607713074;1.724174787825141;-0.0018354236769650978;0.00030166813266941267;0.0484347914754768;-0.0107066381156316;0.00016185682795360587;0.0321199143468951;0.0;53.697030659999996;86.85172121999999
-2.1386841256014564;0.8645599081291765;-0.6649652539543092;-0.0392576730906495;0.02761536106736752;0.0254919955134087;2.14645152705288;0.858332936051291;0.7367354291104297;3.23513596232832;2.5698381424403864;-0.0013255837666972248;0.0003038949240248874;0.048944631385744675;0.0040787192821454;0.0002426336121688503;0.0469052717446721;0.0;53.69675635;86.85174643
-2.1067857050963004;0.807030403871018;-0.6649652539543092;-0.0229427959620679;0.027420772663002496;0.0244723156928724;2.1161259113212845;0.8025892254311767;0.6441494647782162;3.23513596232832;2.5698381424403864;0.029264810849393252;0.0005580552862582087;0.07953502600183515;0.0040787192821454;0.00021109462176444228;0.0469052717446721;0.0;53.69648002;86.85177218
-0.6649652539543092;0.7821674064710084;-0.6649652539543092;-0.0020393596410727;0.026917315547148636;0.0244723156928724;0.6652978198879331;0.780769665904005;0.6096012711958516;3.23513596232832;2.5698381424403864;0.029264810849393252;0.0006974275867119717;0.07953502600183515;0.0040787192821454;0.00020004731056509617;0.0469052717446721;30.0;53.696201939999995;86.85179618
-2.3892587726259684;0.7599635780094525;-0.6649652539543092;0.003059039461609;0.0187662953218124;0.0244723156928724;2.389472607713074;0.7579204884032658;0.5744434667414449;3.23513596232832;2.5698381424403864;0.029264810849393252;0.0006411801656381768;0.07953502600183515;0.0040787192821454;0.00018757034732818745;0.0469052717446721;30.0;53.69592503;86.85182135
-3.23325107459216;0.9107960938469116;-0.08676125162627324;-0.0336494340776996;0.024522068923732727;0.0244723156928724;3.23513596232832;0.8991210651238721;0.8084186897494864;3.23513596232832;3.097304067457346;0.029264810849393252;0.0007188839200191479;0.07953502600183515;0.0040787192821454;0.00027577554576688787;0.0571020699500356;30.0;53.695653500000006;86.85184422
-1.4962072375566755;0.8951347491342494;-0.08676125162627324;0.0244723156928724;0.02834718051997159;0.0244723156928724;1.53086870622069;0.883890951668527;0.7812632144414945;3.23513596232832;3.097304067457346;0.029264810849393252;0.0007210327303543933;0.07953502600183515;0.0040787192821454;0.0002666373254702261;0.0571020699500356;0.0;53.69538404;86.85186148
-1.894886758436205;0.904356940233925;-0.08676125162627324;-0.0081574385642908;0.029840277554450394;0.0244723156928724;1.9116895745120557;0.8932752867765419;0.7979407379657132;3.23513596232832;3.097304067457346;0.029264810849393252;0.0007232277516645903;0.07953502600183515;0.0040787192821454;0.0002709696043719305;0.0571020699500356;0.0;53.69511962;86.85186841999999
-2.308690497336755;0.964743929958876;-0.08676125162627324;-0.0050983991026817;0.03154678361665071;0.0244723156928724;2.309426536478066;0.9377580512136456;0.8793901626160144;3.23513596232832;3.097304067457346;0.04252064851636583;0.0008357976866464762;0.09279086366880773;0.0040787192821454;0.00029758712594400217;0.0571020699500356;0.0;53.69485514;86.8518625
-0.08676125162627324;0.9575655320730008;-0.08676125162627324;-0.0622004690527174;0.0323702619239566;0.0244723156928724;0.13783189487097358;0.9100611894362665;0.8282113685181521;3.23513596232832;3.097304067457346;0.04252064851636583;0.0005972335284592919;0.08259406546344472;0.0040787192821454;0.00028298445785932404;0.0571020699500356;0.0;53.69459350999999;86.85184919000001
-1.959233447544004;0.9288456091732966;-0.08676125162627324;-0.061180789232181;0.031893691121857304;0.0244723156928724;1.9605108622136804;0.8935044195301421;0.7983501477198962;3.23513596232832;3.097304067457346;0.04252064851636583;0.0005920347937772468;0.08259406546344472;0.0040787192821454;0.00026710232340567585;0.0571020699500356;0.0;53.69430834999999;86.85182515
-1.2592809805997016;0.7320767878350579;-0.08676125162627324;0.0173345569491179;0.03137345639975335;0.0244723156928724;1.2747511475761022;0.7290040786947003;0.5314469467535088;2.309426536478066;2.1715946416070926;0.04252064851636583;0.000590579148066274;0.08259406546344472;-0.0122361578464362;0.00016811841505953517;0.040787192821454;0.0;53.69404512;86.8517872
-0.5612585350686654;0.772828421670551;-0.08676125162627324;0.0193739165901906;0.031739735453949806;0.0193739165901906;0.7242492914183289;0.8003283154722595;0.6405254125466645;2.5588799576358663;2.4210480627648927;0.04252064851636583;0.0005401167634192217;0.08259406546344472;-0.0122361578464362;0.00018590964041586758;0.040787192821454;0.0;53.693780170000004;86.85174241
-0.734815945643887;1.3175706362203106;-0.08676125162627324;-0.0367084735393086;0.03136282186787982;0.0193739165901906;0.9452538946977037;1.3509410232709482;1.8250416483563565;5.043285061136838;4.905453166265865;0.04252064851636583;0.0005742897793958647;0.08259406546344472;0.0331395941674314;0.0005441371182399964;0.08616294483532161;0.0;53.69351286999999;86.85168247
-1.9959840926578352;1.6960638627798532;-0.08676125162627324;-0.0081574385642908;0.034067455497779404;0.0193739165901906;2.184404646347182;1.7455932921501398;3.0470959415995633;5.410874083636505;5.273042188765531;0.04252064851636583;0.0006420552859763239;0.08259406546344472;0.0387478331803813;0.0009063156344224794;0.0917711838482715;90.0;53.693237339999996;86.85159638
-1.8323456308659587;1.5492698066729442;-0.5612585350686654;-0.0224329560517997;0.04604722861216684;0.0193739165901906;2.180967834160015;1.5843873795312777;2.5102833684179893;5.410874083636505;4.686624792218176;0.04252064851636583;0.0005153101344280589;0.07341694707861723;0.0387478331803813;0.0007403720233715959;0.0795350260018353;90.0;53.69296044;86.8514782
-2.1922584442602613;1.585337420269927;-0.5612585350686654;-0.0642398286937901;0.0456572006177414;0.0193739165901906;2.5588799576358663;1.5761168422584593;2.4841443004507773;5.410874083636505;4.686624792218176;0.04252064851636583;0.0005105041930331018;0.07341694707861723;0.0387478331803813;0.000775215098485037;0.0795350260018353;90.0;53.69269293;86.85133613
-4.842200931387279;1.6478452876185996;-0.5309997038601919;-0.0311002345263586;0.04264031898497816;0.0193739165901906;5.043285061136838;1.528125442614557;2.3351673683659357;5.410874083636505;4.686624792218176;0.04252064851636583;0.000503745837946443;0.07341694707861723;0.0387478331803813;0.0008357976866464707;0.081574385642908;90.0;53.692434389999995;86.85117231000001
-5.146799633582953;1.605570034769391;-0.5309997038601919;-0.07545630671969;0.03696392091127674;-0.0081574385642908;5.410874083636505;1.3908745428907423;1.9345319940615313;5.410874083636505;4.465620188938801;0.0211073722851024;0.00034293164511517725;0.0520036708473538;0.0387478331803813;0.0008068551753971513;0.081574385642908;90.0;53.692188720000004;86.85098552000001
-2.060519596431365;1.5671657909940764;-0.5309997038601919;-0.1325583766697257;0.03677528987886725;-0.0081574385642908;2.789718385038886;1.2484089191188104;1.5585248293353964;5.410874083636505;3.4224036630627888;0.013969613541347958;0.0003253830273773411;0.04486591210359936;0.0387478331803813;0.0007776036282528435;0.081574385642908;90.0;53.69195743;86.85076959
-1.177660690414912;1.5752130296853006;-0.5309997038601919;-0.0520036708473539;0.033913446449464986;-0.0101967982053635;2.239859436633068;1.2369369351844963;1.530012981623615;5.410874083636505;3.4224036630627888;0.013969613541347958;0.0003062516837474158;0.04486591210359936;0.0387478331803813;0.000784962726013872;0.081574385642908;90.0;53.69176737;86.85051809000001
-0.5309997038601919;1.5795657203564766;-0.5309997038601919;-0.0101967982053635;0.03236419416173477;-0.0101967982053635;1.988470420573716;1.2116038571894907;1.4679839067564517;5.410874083636505;3.4224036630627888;0.013969613541347958;0.0002982456323370661;0.04486591210359936;0.0387478331803813;0.0007886942622412067;0.081574385642908;90.0;53.69160177;86.85019120999999
-1.023806046697887;1.5913768925131824;-0.5309997038601919;-0.0423167125522585;0.0327615507830645;-0.0101967982053635;2.2091121347021776;1.1975714227620613;1.4341773126163475;5.410874083636505;3.4224036630627888;0.013969613541347958;0.0003327305723946326;0.04486591210359936;0.0387478331803813;0.0007996116050735015;0.081574385642908;90.0;53.691461340000004;86.84982806000001
-1.1857226254785715;1.3622625299740316;-0.5309997038601919;-0.0509839910268175;0.034033527224570856;-0.0101967982053635;2.4235108977746584;1.0318345128845128;1.0646824619796196;5.410874083636505;3.4224036630627888;0.013969613541347958;0.00036580607771617913;0.05098399102681761;0.0387478331803813;0.0005839940841356763;0.081574385642908;90.0;53.691351569999995;86.84942645
-2.7724332001287686;0.9817292579410251;-0.5309997038601919;-0.0479249515652085;0.03405388824487082;-0.0101967982053635;3.576226724715627;0.7150835566214457;0.5113444929503763;3.8186249968535755;1.8301545762798594;0.08228816151728358;0.0011954894747393848;0.11930253900275323;0.0020393596410727;0.0002957762333630897;0.0448659121035994;90.0;53.69127546;86.84900474
-2.942942244450169;0.9820085247215783;-0.5309997038601919;-0.0672988681553992;0.022643691411968207;-0.0101967982053635;3.68107654637917;0.7122354732325169;0.5072793693307472;3.8186249968535755;1.8301545762798594;0.08228816151728358;0.001192058309849235;0.11930253900275323;0.0020393596410727;0.0002959841827503715;0.0448659121035994;90.0;53.69122529;86.84857568999999
-3.058541151564735;0.9344550430687013;-0.5309997038601919;-0.0744366268991536;0.025463938878698338;-0.0101967982053635;3.6586384858502172;0.6622597532956382;0.4385879808351997;3.8186249968535755;1.8301545762798594;0.08228816151728358;0.0013639284784376477;0.13255837666972548;0.0020393596410727;0.00026994429836519365;0.0448659121035994;90.0;53.69119137;86.84813729
-2.605708798879075;0.8534913101983503;-1.023806046697887;-0.0193739165901906;0.024928860369737668;-0.0132558376669725;3.3277450851721198;0.611814596287715;0.3743171002306997;4.071291277585126;1.8621791428829484;0.08228816151728358;0.001506986104143795;0.13765677577240754;0.0112164780258998;0.00023443116411495517;0.0463954318344039;90.0;53.69117016;86.84767832
-3.127232986610284;0.6975215356258718;-1.1857226254785715;-0.0346691138982359;0.024723132643945867;-0.0132558376669725;3.8186249968535755;0.48439970705983454;0.23464307619965352;4.071291277585126;1.6477803798104675;0.08228816151728358;0.0015471001185876432;0.13765677577240754;0.0112164780258998;0.00015850653226961897;0.043846232283062996;90.0;53.691159240000005;86.84721428
-1.9719895565602816;0.4853297778072151;-1.9719895565602816;-0.0805547058223717;0.02496482254785053;-0.0132558376669725;2.9841230103654834;0.34482201299769394;0.11890222064778179;4.071291277585126;1.0928289186287978;0.08228816151728358;0.0015251499054856745;0.13765677577240754;0.0112164780258998;7.740627122971334e-05;0.0295707147955541;90.0;53.691148510000005;86.84674531
-2.0574819933261566;0.4911108278206726;-1.9719895565602816;-0.0846334251045171;0.02526394086592147;-0.0132558376669725;2.978462358956328;0.346897330362039;0.12033775781230965;4.071291277585126;1.0928289186287978;0.08228816151728358;0.0015736714291847628;0.13765677577240754;0.0112164780258998;7.89312334031133e-05;0.0295707147955541;90.0;53.691131840000004;86.8462832
-3.608869702655706;0.6547132370851922;-1.330500707231557;-0.0132558376669725;0.02490169155252499;-0.0132558376669725;4.071291277585126;0.4694431947373335;0.220376913085194;4.071291277585126;1.6499632634586083;0.08228816151728358;0.0015567582123525087;0.13765677577240754;0.0112164780258998;0.00013748053866668032;0.0407871928214539;90.0;53.691111590000006;86.84587383
-2.795153471757949;0.9392928254883686;-1.330500707231557;-0.0542979504435607;0.02433931624835423;-0.0132558376669725;3.4084667636498387;0.7333576475243432;0.5378134391824387;5.126098331026489;2.704770316899971;0.08228816151728358;0.0027087978178937278;0.19985724482512468;0.0336494340776996;0.00030568848749018784;0.0632201488732537;90.0;53.69108148;86.84547508
-2.710585835686582;1.113760045828912;-0.8621271092859648;-0.0418068726419904;0.023254280271147572;-0.0132558376669725;3.4501771357052093;0.8670208395799095;0.7517251362658511;5.126098331026489;3.0894562325401735;0.08228816151728358;0.0026853457481058334;0.19985724482512468;0.0336494340776996;0.0004190209035587743;0.0713775874375446;90.0;53.69103997;86.84509821
-2.526549535961541;1.4089785816730338;0.28868059612594266;-0.0652595085143265;0.021921156397953175;-0.0132558376669725;3.3368315806591666;0.9611150348137085;0.9237421101449562;5.126098331026489;3.219280069744342;0.017028653002957195;0.001668704299172545;0.1345977363107983;0.0336494340776996;0.0006412234884271916;0.0902416641174671;90.0;53.690986439999996;86.8447426
-1.330500707231557;1.5342809702045566;0.28868059612594266;-0.0448659121035994;0.023210022889772013;-0.0132558376669725;2.4213280141265177;1.0278116967470454;1.0563968839700404;5.126098331026489;3.219280069744342;0.025186091567248048;0.0019101566432942027;0.14275517487508915;0.0336494340776996;0.0007488372963455282;0.0902416641174671;90.0;53.69092284999999;86.84439997000001
-4.721414036941299;1.5345008938928315;0.28868059612594266;-0.0683185479759355;0.021630825684712463;-0.0132558376669725;5.126098331026489;1.0286871620744586;1.0581972774168034;5.126098331026489;3.219280069744342;0.025186091567248048;0.0018011911643585363;0.14275517487508915;0.0336494340776996;0.0007486062414707706;0.0902416641174671;90.0;53.69084487;86.84403783
-0.8621271092859648;1.4365042564763582;0.28868059612594266;-0.0805547058223717;0.02751100911537227;0.0101967982053635;2.036642098486315;0.9737565284549695;0.9482017767086739;5.126098331026489;3.219280069744342;0.025186091567248048;0.001663390037053123;0.14275517487508915;0.0336494340776996;0.0006591880049395937;0.0902416641174671;90.0;53.690764019999996;86.84369842
0.28868059612594266;1.4469166409062162;0.28868059612594266;-0.061180789232181;0.034365378342229844;0.0101967982053635;1.9068182612821463;0.9708825759248807;0.9426129762345317;5.126098331026489;3.219280069744342;0.07617008259406544;0.002484868097836499;0.19373916590190654;0.0336494340776996;0.0006684446408595683;0.0902416641174671;90.0;53.69067656;86.84336775999999
-0.3165984179989132;1.6777434927759296;0.28868059612594266;-0.0907515040277353;0.034432379722523;0.0101967982053635;2.022373542267279;1.1617555769537127;1.349676020583054;5.126098331026489;3.219280069744342;0.07617008259406544;0.0025796814656932664;0.19373916590190654;0.0336494340776996;0.0008970243402712922;0.0902416641174671;90.0;53.69058811;86.84304635
-2.147267568212852;1.7393099997547528;0.28868059612594266;-0.061180789232181;0.03601986792705398;0.0101967982053635;2.9142957827942046;1.2083133126217274;1.4600210614588924;5.126098331026489;3.219280069744342;0.07617008259406544;0.0025634267552540712;0.19373916590190654;0.0336494340776996;0.0009585773589067074;0.0902416641174671;90.0;53.69049201;86.84269169
-1.9265882477927645;1.742579972100194;0.28868059612594266;0.0101967982053635;0.036965796110187764;0.0101967982053635;2.5850096923563517;1.1993770632674932;1.4385053398921561;5.126098331026489;3.219280069744342;0.07617008259406544;0.0027616140740773744;0.19373916590190654;0.0336494340776996;0.0009557469366909271;0.0902416641174671;90.0;53.69039352;86.84232951999999
-2.93676277098443;1.5759200837538008;0.28868059612594266;0.0091771183848271;0.03682536178949361;0.0101967982053635;3.354175102149885;1.0315942957151034;1.06418679095194;4.959219798599109;3.052401537316962;0.07617008259406544;0.0013561072709271076;0.11420413990007128;0.0300805547058223;0.0007512287142992682;0.0866727847455898;90.0;53.69029463;86.84195415
-4.65700090905727;1.5216678612170336;0.28868059612594266;-0.061180789232181;0.03537568957153937;0.0101967982053635;4.959219798599109;0.9846359523437311;0.9695079586478464;4.959219798599109;3.052401537316962;0.07617008259406544;0.0014129121118862534;0.11420413990007128;0.0300805547058223;0.0006959488355135203;0.0866727847455898;90.0;53.690195489999994;86.84157597
-3.5890051259726126;1.2568300126453715;-0.3165984179989132;-0.0866727847455898;0.035563298123879844;0.0101967982053635;4.128838103831452;0.9339819146200788;0.8723222168373883;4.959219798599109;2.9368462563318296;0.07617008259406544;0.0014240951678245201;0.11420413990007128;0.0300805547058223;0.00047701567712292263;0.0759661466299581;90.0;53.69009523999999;86.84118644
-3.362872850837488;0.981839936908845;-1.172383107258752;-0.0265116753339451;0.0324289178005575;0.0101967982053635;3.883394722981135;0.8404850892752226;0.7064151852939788;4.959219798599109;2.5126193913573416;0.07617008259406544;0.0017586626264734738;0.13255837666972559;0.0300805547058223;0.0002970325942445818;0.060670949321912804;90.0;53.689996029999996;86.84079539
-1.172383107258752;1.0006212872564908;-1.172383107258752;-0.0652595085143265;0.03664878633337616;0.0101967982053635;2.446600407241767;0.7971584548205558;0.6354616020918962;4.959219798599109;2.5126193913573416;0.07617008259406544;0.0016881331259537263;0.13255837666972559;0.0300805547058223;0.0003071181395277497;0.060670949321912804;90.0;53.689906040000004;86.84044684
-2.5417356399515625;0.9495154227838556;-1.172383107258752;-0.0499643112062812;0.03047309537363489;0.0091771183848271;3.639497068285;0.6963960846445019;0.4849675067081922;4.959219798599109;2.5126193913573416;0.07617008259406544;0.001750483283907057;0.13255837666972559;0.0300805547058223;0.00027392710676882553;0.060670949321912804;90.0;53.689813689999994;86.84010105
-3.231947868539733;1.1049241066560285;-1.172383107258752;-0.0652595085143265;0.022469233500255665;-0.0265116753339451;4.346733244183038;0.9026772310137529;0.814826183390656;5.917169349301669;3.4705689420599017;0.043540328336902245;0.0010652669473260206;0.0999286224125624;0.0305903946160905;0.0003724142471342375;0.061180789232181;90.0;53.68972086;86.8397599
-3.3038199505884913;1.4118329441752342;-1.172383107258752;-0.0509839910268175;0.026385221060060783;-0.0265116753339451;4.4674960803188695;1.3125034715438155;1.7226653628145674;7.232143816554521;4.785543409312753;0.043540328336902245;0.0011538418335643333;0.0999286224125624;0.0591414295911083;0.0006359814309561262;0.0897318242071988;90.0;53.68961977;86.83943097
-1.945512276068349;1.4276803616202265;-1.172383107258752;-0.0999286224125624;0.03341727402671734;-0.0265116753339451;3.741496983550998;1.3087676832196316;1.7128728486400817;7.232143816554521;4.785543409312753;0.043540328336902245;0.0011014847989442693;0.0999286224125624;0.0591414295911083;0.0006522245886515831;0.0897318242071988;90.0;53.68951895;86.83915351
-2.6635981831161017;1.4288325258926626;-1.172383107258752;-0.0438462322830631;0.03265740312841633;-0.0346691138982359;4.316250497895934;1.2970695407946722;1.6823893936573016;7.232143816554521;4.785543409312753;0.0506780870806568;0.0012922437035441158;0.10706638115631695;0.0591414295911083;0.0006529639642508072;0.0897318242071988;90.0;53.6894152;86.83888848
-4.727714306374025;1.394106953127224;-1.405321520600847;-0.0346691138982359;0.03495786207391249;-0.0346691138982359;5.917169349301669;1.174372374077568;1.3791504729965833;7.232143816554521;3.995872268611363;0.0506780870806568;0.001058011824258633;0.10706638115631695;0.0591414295911083;0.0006307826962740806;0.0866727847455897;90.0;53.68931388;86.83866428
-6.210990868556857;1.4081429316578526;-1.405321520600847;-0.1019679820536351;0.03418188378161717;-0.0346691138982359;7.232143816554521;1.2069390046938953;1.4567017610514907;7.232143816554521;3.995872268611363;0.0506780870806568;0.0010522701106209075;0.10706638115631695;0.0591414295911083;0.0006432134485360377;0.0866727847455897;90.0;53.68921092000001;86.8384538
-2.4839226974985458;1.4556336410298416;-1.405321520600847;-0.1300091771183848;0.03592597136587521;-0.0346691138982359;4.411221182581101;1.3120243515422114;1.7214078990397603;7.232143816554521;4.2760321204858425;0.07718976241460185;0.0018392545667889155;0.133578056490262;0.0591414295911083;0.0006813375028710361;0.0866727847455897;90.0;53.689087140000005;86.83824041999999
-3.427917703074813;1.4641786267960228;-1.405321520600847;-0.1101254206179259;0.03424941278847176;-0.0346691138982359;4.781212051497895;1.373049308241151;1.8852644028615033;7.232143816554521;4.2760321204858425;0.16284286733965536;0.00403745288151371;0.21209340267156107;0.0591414295911083;0.0006870301173478757;0.0866727847455897;90.0;53.68895884;86.83804044
-1.405321520600847;1.5416298130647197;-1.405321520600847;-0.1172631793616804;0.04987130313656128;0.0275313551544814;3.236271547943158;1.39149237552427;1.9362510311421761;7.232143816554521;4.2760321204858425;0.16284286733965536;0.004126917329019839;0.21209340267156107;0.0591414295911083;0.0007401727385421151;0.0866727847455897;90.0;53.68882542;86.83784557999999
-2.308121159095741;1.552267922843171;-1.405321520600847;-0.0591414295911083;0.052795202147769234;0.0275313551544814;3.3253336402191507;1.4549685843308942;2.1169335813898464;7.232143816554521;4.2760321204858425;0.16284286733965536;0.003781028181507762;0.21209340267156107;0.0591414295911083;0.0007502611720112172;0.0866727847455897;90.0;53.688684769999995;86.83766397
-1.995927916899774;1.4845315493068263;-1.405321520600847;-0.1223615784643621;0.052633244385836914;0.0275313551544814;2.9561116960686777;1.4043000440943274;1.97205861384333;7.232143816554521;4.324394030808947;0.16284286733965536;0.0036222039487853455;0.21209340267156107;0.0591414295911083;0.0006866979759654115;0.0866727847455897;90.0;53.68854218;86.83749578
-2.443676488801578;1.0769914367513256;-1.1152787267412552;-0.0703579076170082;0.05494616828501927;0.0275313551544814;3.1547749736117536;1.0035857919102826;1.0071844417241893;5.321343216372994;3.3297961025987424;0.16284286733965536;0.002785970146062765;0.17436524931171626;0.0326297542571632;0.0003247736201451622;0.06423982869379;90.0;53.68840324;86.83733892
-4.9719778018561005;1.3524241021611414;0.10002859830238053;0.0275313551544814;0.05185394670156492;0.0275313551544814;5.321343216372994;1.1290239777238638;1.2746951422754154;5.321343216372994;3.8101681146766557;0.16284286733965536;0.0028610398748714944;0.17946364841439766;0.0326297542571632;0.0005400012359818346;0.08769246456612609;90.0;53.68827198;86.83718974
-2.450818435588659;1.2856119670279893;0.10002859830238053;-0.0142755174875089;0.05086704691869634;0.0275313551544814;3.1274014073931498;0.998401426311442;0.9968054080607218;5.321343216372994;3.8101681146766557;0.16284286733965536;0.0030687119963035948;0.17946364841439766;0.0326297542571632;0.000488727271087197;0.08769246456612609;90.0;53.68814110999999;86.83705631
-2.261690132294817;1.2627411685531311;0.10002859830238053;-0.0367084735393086;0.043458515233131656;0.0275313551544814;2.9077497857455734;1.0103291108355639;1.020764912201781;5.321343216372994;3.8101681146766557;0.16284286733965536;0.0033703079243246454;0.1835423676965433;0.0326297542571632;0.00047162921035513706;0.08769246456612609;90.0;53.68800782000001;86.8369179
-1.1152787267412552;1.5624517692476843;0.10002859830238053;-0.0112164780258998;0.04282924994323749;0.0275313551544814;1.9915471137742515;1.248569410845783;1.5589255736997856;5.321343216372994;3.8101681146766557;0.16284286733965536;0.0034112046371567325;0.1835423676965433;0.0367084735393086;0.0007344772358793425;0.0917711838482715;90.0;53.68787546;86.8367881
0.10002859830238053;1.5645445517954244;0.10002859830238053;-0.0122361578464362;0.029116774314138165;0.0275313551544814;1.5111751016963384;1.2494566184281777;1.5611418413339768;5.321343216372994;3.8101681146766557;0.16284286733965536;0.003691682149624942;0.21005404303048847;0.0367084735393086;0.000738208772106677;0.0917711838482715;90.0;53.68776482;86.83668514
-2.2164005632574466;1.6297300894762372;0.10002859830238053;0.0091771183848271;0.026159861009893662;0.0275313551544814;2.626822004659907;1.3048794131232717;1.7027102827929341;5.321343216372994;3.8101681146766557;0.0527174467217294;0.0011391034207407337;0.0999286224125625;0.0367084735393086;0.0008003163224415107;0.0917711838482715;90.0;53.687659169999996;86.83658461
-2.0271625804373525;1.4661849551989161;0.10002859830238053;-0.0163148771285816;0.04735397673127262;0.0091771183848271;2.4440270361306067;1.1381547843317237;1.2953963130971924;5.253129693149649;3.741954591453311;0.05118792699092478;0.0008415278475404645;0.09839910268175789;0.0367084735393086;0.0006653918283268305;0.0917711838482715;90.0;53.68755324;86.83648124
-5.067633048504554;1.4654419093871165;0.10002859830238053;-0.0489446313857448;0.054016837394994015;0.0091771183848271;5.253129693149649;1.1412484559267462;1.3024480381551824;5.253129693149649;3.741954591453311;0.05118792699092478;0.0008646102295287455;0.09839910268175789;0.0367084735393086;0.0006648632903008226;0.0917711838482715;90.0;53.687458330000005;86.83636841
-3.0557335679881947;1.6428391662346828;0.10002859830238053;-0.0469052717446721;0.05418500063250328;0.0091771183848271;3.3920536403913477;1.372957183471798;1.8850114276468122;5.389610129354557;3.8784350276582185;0.03946160905475682;0.0005780559738544135;0.08667278474558993;0.0367084735393086;0.0008298364708777237;0.0917711838482715;90.0;53.687382639999996;86.83625432
-1.115056031084052;1.5937756982547786;0.10002859830238053;-0.0520036708473539;0.05284930548066016;0.0091771183848271;1.985029941314252;1.3950586590077187;1.9461886620724147;5.389610129354557;3.8784350276582185;0.017028653002957195;0.00037893288278834385;0.0642398286937903;0.0367084735393086;0.000788593175733498;0.0917711838482715;90.0;53.687329045;86.836146965
-3.8631549745943277;1.3137594838995796;-1.115056031084052;-0.1611094116447435;0.052245145326668935;0.0091771183848271;4.308398997707571;1.2205735104325741;1.4897996943696972;5.389610129354557;3.4045801880403044;0.017028653002957195;0.0003983645977554551;0.0642398286937903;0.0367084735393086;0.0005278708550570611;0.06933822779647181;90.0;53.687281645;86.836061165
-2.35175173632715;1.357605354547988;-1.115056031084052;-0.1284796573875803;0.04588697665361521;-0.0163148771285816;3.263152975793862;1.2129279578727883;1.4711942309894523;5.389610129354557;3.4045801880403044;0.017028653002957195;0.0004158092407996507;0.0642398286937903;0.0367084735393086;0.0005656800971252021;0.06933822779647181;90.0;53.687237104999994;86.835985905
-4.6498759967454335;1.357605354547988;-1.115056031084052;-0.0723972672580809;0.04588697665361521;-0.0163148771285816;5.389610129354557;1.2129279578727883;1.4711942309894523;5.389610129354557;3.4045801880403044;0.017028653002957195;0.0004158092407996507;0.0642398286937903;0.0367084735393086;0.0005656800971252021;0.06933822779647181;90.0;53.687237104999994;86.835985905
-3.6451999456447624;1.357605354547988;-1.115056031084052;-0.0876924645661262;0.04588697665361521;-0.0163148771285816;4.922388836393402;1.2129279578727883;1.4711942309894523;5.389610129354557;3.4045801880403044;0.017028653002957195;0.0004158092407996507;0.0642398286937903;0.0367084735393086;0.0005656800971252021;0.06933822779647181;90.0;53.687237104999994;86.835985905
-1.6391246091880325;1.357605354547988;-1.115056031084052;-0.0183542367696543;0.04588697665361521;-0.0163148771285816;4.337018011467529;1.2129279578727883;1.4711942309894523;5.389610129354557;3.4045801880403044;0.017028653002957195;0.0004158092407996507;0.0642398286937903;0.0367084735393086;0.0005656800971252021;0.06933822779647181;90.0;53.687237104999994;86.835985905
-1.6823885378654164;1.357605354547988;-1.115056031084052;-0.078515346181299;0.04588697665361521;-0.0163148771285816;5.142511224420221;1.2129279578727883;1.4711942309894523;5.389610129354557;3.4045801880403044;0.017028653002957195;0.0004158092407996507;0.0642398286937903;0.0367084735393086;0.0005656800971252021;0.06933822779647181;90.0;53.687237104999994;86.835985905
0.6173597710138576;2.6740603072950524;0.6173597710138576;-0.1060467013357805;0.05308007814178018;0.0346691138982359;4.006164660885793;1.9684405426481912;3.874758169941106;6.9808844187674035;5.939151909076274;0.010910574079738833;0.0003598564146911711;0.05812174977057194;0.0652595085143265;0.002290169707622039;0.130519017028653;120.0;53.71678458;86.83964154
-1.8144313939600305;2.6740603072950524;0.6173597710138576;-0.0887121443866625;0.05308007814178018;0.0346691138982359;3.7536373314427545;1.9684405426481912;3.874758169941106;6.9808844187674035;5.939151909076274;0.010910574079738833;0.0003598564146911711;0.05812174977057194;0.0652595085143265;0.002290169707622039;0.130519017028653;120.0;53.71678458;86.83964154
-0.061826630603373456;2.6740603072950524;0.6173597710138576;-0.0367084735393086;0.05308007814178018;0.0346691138982359;2.7137440269600854;1.9684405426481912;3.874758169941106;6.9808844187674035;5.939151909076274;0.010910574079738833;0.0003598564146911711;0.05812174977057194;0.0652595085143265;0.002290169707622039;0.130519017028653;120.0;53.71678458;86.83964154
-6.603235304166624;2.6740603072950524;0.6173597710138576;-0.1060467013357805;0.05308007814178018;0.0346691138982359;6.9715086595481806;1.9684405426481912;3.874758169941106;6.9808844187674035;5.939151909076274;0.010910574079738833;0.0003598564146911711;0.05812174977057194;0.0652595085143265;0.002290169707622039;0.130519017028653;120.0;53.71678458;86.83964154
-6.734219021937435;2.6740603072950524;0.6173597710138576;0.0346691138982359;0.05308007814178018;0.0346691138982359;6.9808844187674035;1.9684405426481912;3.874758169941106;6.9808844187674035;5.939151909076274;0.010910574079738833;0.0003598564146911711;0.05812174977057194;0.0652595085143265;0.002290169707622039;0.130519017028653;120.0;53.71678458;86.83964154
-3.784689027511263;2.6740603072950524;0.6173597710138576;0.0193739165901906;0.05308007814178018;0.0346691138982359;4.07932012418325;1.9684405426481912;3.874758169941106;6.9808844187674035;5.939151909076274;0.010910574079738833;0.0003598564146911711;0.05812174977057194;0.0652595085143265;0.002290169707622039;0.130519017028653;120.0;53.71678458;86.83964154
-2.888856669070451;2.417230598462948;-0.061826630603373456;-0.092790863668808;0.05072968310361796;0.0346691138982359;3.159074137153586;1.9842907641890613;3.937409836846009;6.9808844187674035;5.939151909076274;0.010910574079738833;0.00041872919677939937;0.05812174977057194;0.0652595085143265;0.0018579584589005355;0.1172631793616804;120.0;53.71682711;86.83971478999999
-5.398255299975332;3.786249791491646;-0.061826630603373456;-0.1101254206179259;0.056778685558300325;0.0412970327317222;5.508366516483037;3.435036123056269;11.799473166701443;13.025873043347021;11.984140533655891;0.010910574079738833;0.00043461421941898135;0.05812174977057194;0.1774242887733251;0.004523003148072986;0.22942795962067902;120.0;53.716859299999996;86.83980842
-0.39650595650589926;3.4752274262810388;-0.39650595650589926;-0.0744366268991536;0.05979825445129224;0.0412970327317222;1.0417325096911296;3.3623983072254964;11.305722376432884;13.025873043347021;11.984140533655891;0.010910574079738833;0.0004438564144092841;0.05812174977057194;0.1774242887733251;0.0038170842947136724;0.2243295605179972;0.0;53.71688873000001;86.83992745
-1.8785036914667534;3.469178448182451;-0.39650595650589926;-0.0336494340776996;0.056219852689749196;0.0412970327317222;2.073749317925287;3.3533574557758845;11.245006226207714;13.025873043347021;11.984140533655891;0.010910574079738833;0.00043720203401626624;0.05812174977057194;0.1774242887733251;0.003796878545916123;0.2243295605179972;0.0;53.71692471;86.84006071000002
-4.750306771922494;3.537858564136057;-0.39650595650589926;-0.0387478331803813;0.05142240942793269;0.0412970327317222;4.82326339690814;3.421671582109944;11.707836415818768;13.025873043347021;11.984140533655891;0.010910574079738833;0.000386696326580196;0.05812174977057194;0.1774242887733251;0.003959266800081674;0.2243295605179972;0.0;53.716961760000004;86.84020016000001
-12.99971819135088;3.850938781331899;0.3912127741033409;0.0412970327317222;0.04755618895370466;0.0412970327317222;13.025873043347021;3.614776328369291;13.066607904138971;13.025873043347021;12.104182067358993;0.010910574079738833;0.00035330889717772815;0.05812174977057194;0.1774242887733251;0.004709016763182497;0.23860507800550612;60.0;53.71700301999999;86.8403515
-6.558103461826336;4.216209381232326;1.4601803989311177;0.0193739165901906;0.04419478545002863;0.0412970327317222;6.61142412649502;3.6971512613683752;13.668927449437769;13.025873043347021;12.104182067358993;0.010910574079738833;0.00027341012148656194;0.05200367084735391;0.1774242887733251;0.005645851858374524;0.25695931477516054;60.0;53.717050629999996;86.84050918999999
-3.6242540867600703;4.6027737375001125;2.850861588218784;-0.0734169470786173;0.04674147368176972;0.0412970327317222;3.7275911328386058;3.677995301179057;13.52764943549522;13.025873043347021;12.104182067358993;0.010910574079738833;0.00022079892650426323;0.04384623228306306;0.1774242887733251;0.006711245885881659;0.2814316304680329;60.0;53.71710703;86.84067055
-1.704379052406944;4.867324071557597;2.850861588218784;-0.026511675333945;0.04511307017465478;0.0412970327317222;1.8975980606536405;3.570575923015802;12.749012422020146;13.025873043347021;12.104182067358993;0.010910574079738833;0.00022391816731349122;0.04384623228306306;0.1774242887733251;0.007465408997090352;0.2814316304680329;60.0;53.71717746;86.8408229
0.3912127741033409;5.103885024859128;2.850861588218784;-0.0336494340776996;0.04760811689128587;0.0412970327317222;0.9216909759880282;3.550438335371728;12.605612373277166;13.025873043347021;12.104182067358993;0.010910574079738833;0.00022391816731349122;0.04384623228306306;0.1774242887733251;0.008170449841925588;0.2814316304680329;60.0;53.717272320000006;86.8409664
1.4601803989311177;5.233512791270704;3.0989513914195443;-0.0448659121035994;0.04842268499147392;0.0412970327317222;1.6517983757885006;3.55201185794507;12.616788238982387;13.025873043347021;12.104182067358993;0.010910574079738833;0.00023313725681631804;0.04384623228306306;0.1774242887733251;0.008579887744553798;0.2839808300193738;60.0;53.717393990000005;86.84110855
2.850861588218784;3.2166966538441555;3.0989513914195443;-0.1233812582848985;0.04205789566038646;0.0193739165901906;3.0061925357442245;1.605384878578379;2.5772606083681167;6.61142412649502;5.689733150506992;0.010910574079738833;0.0002386825738104999;0.04384623228306306;0.0642398286937901;0.0032393777913573294;0.1707963699398388;0.0;53.717544780000004;86.84124398
2.653147757325497;2.3037457359690316;3.526402874649203;-0.0433363923727949;0.037705525298777014;0.0122361578464362;2.728440633135732;0.9521005050067118;0.9064953716340357;3.7275911328386058;2.8059001568505777;0.010910574079738833;0.00018761944648907743;0.042826552462526646;0.0112164780258998;0.0016464508265474588;0.1274599775670438;0.0;53.71771249;86.84136305
2.417619359548624;1.765843901374235;4.477222220870123;0.0122361578464362;0.035750285703857104;0.0122361578464362;2.429712314838038;1.1109290025189698;1.234163248637793;4.609374765977955;3.6876837899899266;0.013969613541347958;0.00020286906822307684;0.04588559192413577;-0.0229427959620679;0.0009385911122401822;0.1065565412460487;0.0;53.7178813;86.84147554
3.0989513914195443;1.4322332983487462;5.0545358093784305;-0.0010196798205363;0.03602070984013287;0.0122361578464362;3.111518656554481;1.3657957201642057;1.8653979492188613;5.223788681472895;4.302097705484867;0.013969613541347958;0.00020703672052651664;0.04588559192413577;-0.061180789232181;0.0006016697820546348;0.07953502600183548;0.0;53.7180519;86.84158982
1.3034752331326356;1.177911958921056;5.0545358093784305;-0.0275313551544814;0.0380744570270198;0.0122361578464362;1.4254816907372214;1.1866406264920315;1.4081159764414009;5.223788681472895;3.7983069907356732;0.013969613541347958;0.000123198459220734;0.03262975425716308;-0.07545630671969;0.000411231466093514;0.06525950851432649;0.0;53.71822304;86.84169696000001
3.526402874649203;1.1214388151871162;5.0545358093784305;-0.0316100744366268;0.0377756243454514;0.0122361578464362;3.6220623720295504;1.1420937334296486;1.3043780959392732;5.223788681472895;3.7983069907356732;0.013969613541347958;8.17934256641788e-05;0.029570714795554065;-0.07545630671969;0.0003835395393538197;0.06525950851432649;0.0;53.718391569999994;86.84179637
4.477222220870123;1.1096975178661563;5.0545358093784305;-0.0356887937187723;0.020728543925830952;0.0122361578464362;4.609374765977955;1.13313813179475;1.284002025727296;5.223788681472895;3.7983069907356732;0.013969613541347958;7.649071628849188e-05;0.029570714795554065;-0.07545630671969;0.00037836391015925015;0.06525950851432649;0.0;53.718563089999996;86.84189109
