acc_X;acc_X_std;acc_Z;acc_Z_std;acc;acc_std;acc_var;acc_max;acc_range;fb_tilt_max;fb_tilt_std;fb_tilt_var;fb_tilt_range;tilt_max;tilt_var;tilt_range;hole;lat;lon
-5.327270333907153;2.6821170949222166;0.0734169470786173;0.06862048722778112;5.616048148858415;1.1865126729460795;1.4078123230616502;5.616048148858415;3.5662294774764334;-0.9299479963291526;0.035636800731283655;0.0012699815663612193;0.11726317936168051;0.0978892627714897;0.002334301188700733;0.1560110125420617;0;53.72753464;86.85422392000001
2.3370551368191084;2.6821170949222166;-0.1080860609768532;0.06862048722778112;2.360239197768825;1.1865126729460795;1.4078123230616502;5.616048148858415;3.5662294774764334;-0.9299479963291526;0.035636800731283655;0.0012699815663612193;0.11726317936168051;0.0978892627714897;0.002334301188700733;0.1560110125420617;1;53.72753464;86.85422392000001
-1.8361222705222289;2.6821170949222166;0.0815743856429081;0.06862048722778112;2.0498186713819813;1.1865126729460795;1.4078123230616502;5.616048148858415;3.5662294774764334;-0.9299479963291526;0.035636800731283655;0.0012699815663612193;0.11726317936168051;0.0978892627714897;0.002334301188700733;0.1560110125420617;0;53.72753464;86.85422392000001
1.9143481541985008;2.6821170949222166;-0.0509839910268175;0.06862048722778112;2.6986813622401713;1.1865126729460795;1.4078123230616502;5.616048148858415;3.5662294774764334;-0.9299479963291526;0.035636800731283655;0.0012699815663612193;0.11726317936168051;0.0978892627714897;0.002334301188700733;0.1560110125420617;0;53.72753464;86.85422392000001
2.7414475302810306;2.6821170949222166;-0.0560823901294993;0.06862048722778112;3.840600041124745;1.1865126729460795;1.4078123230616502;5.616048148858415;3.5662294774764334;-0.9299479963291526;0.035636800731283655;0.0012699815663612193;0.11726317936168051;0.0978892627714897;0.002334301188700733;0.1560110125420617;0;53.72753464;86.85422392000001
2.2997107649846056;2.6821170949222166;-0.0795350260018354;0.06862048722778112;4.01492508124167;1.1865126729460795;1.4078123230616502;5.616048148858415;3.5662294774764334;-0.9299479963291526;0.035636800731283655;0.0012699815663612193;0.11726317936168051;0.0978892627714897;0.002334301188700733;0.1560110125420617;0;53.72753464;86.85422392000001
2.715162056219257;2.005110429479646;-0.0418068726419904;0.05538028707542943;4.6086262365135315;1.0753543280599918;1.1563869308773562;5.26539543300484;3.2155767616228585;-0.9299479963291526;0.03442986323237358;0.0011854154821999497;0.10706638115631706;0.0428265524625267;0.0012675208319450522;0.1009483022330987;0;53.72745904999999;86.85429425
0.2843035319961269;2.067975423337686;-0.0367084735393086;0.052848868283182686;4.019501233820487;0.9550371833380156;0.9120960215582105;5.26539543300484;3.2155767616228585;-0.9299479963291526;0.0341006301067865;0.001162852973679874;0.10706638115631706;0.0428265524625267;0.001339609952869412;0.1009483022330987;1;53.727368209999995;86.85433653
3.2173607911554662;2.004902234698952;-0.1213418986438258;0.02849919465086332;5.26539543300484;0.675546216424166;0.4563626905250062;5.26539543300484;2.5667140707646685;-0.9299479963291526;0.03392877240657465;0.0011511615970171414;0.10706638115631706;0.0428265524625267;0.0012540387800029475;0.1009483022330987;1;53.72726623999999;86.85434208000001
-0.125191401634797;2.2761755602638827;-0.0795350260018354;0.02851641770919896;4.2168356739804445;0.44883565795637687;0.20145344785313374;5.26539543300484;1.4247953918800946;-0.9299479963291526;0.03147804437467615;0.0009908672776540806;0.10706638115631706;0.0509839910268175;0.0016014528896884225;0.1091057407973895;0;53.72715187;86.85430963
-2.361406776157544;2.2226844996160935;-0.0560823901294993;0.04007585291897826;4.794590472817655;0.4081986596151474;0.16662614571160297;5.26539543300484;1.2504703517631697;-0.9299479963291526;0.03220943868503774;0.001037447940405206;0.10706638115631706;0.0509839910268175;0.0015335227565096987;0.1091057407973895;0;53.72703185;86.85423569
-1.1127117633415338;2.236506202045703;-0.0214132762312633;0.04234693724424967;4.2099363696214915;0.40052018018814384;0.1604164147379432;5.26539543300484;1.2458941991843524;-0.9299479963291526;0.034145996968921934;0.001165949109001626;0.10706638115631706;0.0591414295911083;0.0015772267860700918;0.11726317936168029;0;53.726918850000004;86.85412269
-1.35291863694125;1.8873992201072056;-0.0418068726419904;0.04298662359536854;4.1253901187779265;0.48082787283170947;0.23119544329186656;5.26539543300484;1.5680822802089205;-0.9299479963291526;0.03202021945572761;0.0010252944539929569;0.10706638115631706;0.0591414295911083;0.0011543617070325334;0.11726317936168029;0;53.72682109;86.85397885
-2.916888683887538;1.9540455679532347;-0.0683185479759355;0.04115671074796252;4.741354385373166;0.5443569824101786;0.2963245242987155;5.26539543300484;1.701956866239354;-0.9299479963291526;0.031468317117951713;0.0009902549822359728;0.10706638115631706;0.0591414295911083;0.001235046069297875;0.11726317936168029;1;53.72674893;86.85380429
-2.1005759741397694;1.5192767787516566;-0.1498929336188436;0.0406333843537874;4.57012876356944;0.5159829910747938;0.26623844707849076;4.928613518241461;1.3866366379093353;-0.9299479963291526;0.031017938333978666;0.0009621124984905032;0.10706638115631706;0.0591414295911083;0.0007357509258764481;0.0790251860915671;1;53.726705960000004;86.8536026
-3.244841827485987;1.6820015441266787;-0.113184460079535;0.056886092286896874;4.928613518241461;0.5580291662106095;0.31139655034170804;4.928613518241461;1.3866366379093353;-0.9809319873559702;0.020613343122336092;0.0004249099146791607;0.05608239012949945;0.0591414295911083;0.0008930530846113978;0.08055470582237159;1;53.726696430000004;86.85337035
-1.0591752815326283;1.702927767674421;-0.0346691138982359;0.058142219269675215;3.6973131527959193;0.5592596400200677;0.3127713449553757;4.928613518241461;1.5226333041137368;-0.9809319873559702;0.02251520364593879;0.0005069343952180953;0.0662791883348629;0.0591414295911083;0.0009146567154012299;0.08055470582237159;0;53.726718819999995;86.85312394
0.97349460115852;1.7998567765502496;-0.0713775874375446;0.057789853432465586;3.5634385667654858;0.5714630298993089;0.3265699945416984;4.928613518241461;1.5226333041137368;-0.9809319873559702;0.022304095993713177;0.0004974726980967722;0.0662791883348629;0.0591414295911083;0.0010227903967877706;0.08055470582237159;0;53.72677513;86.85287049
1.1572750559525018;1.824439078616497;-0.0244723156928724;0.05746951009674257;3.5419768803321254;0.5792704708986409;0.33555427845513314;4.928613518241461;1.5226333041137368;-0.9809319873559702;0.02215441982322607;0.0004908183177037523;0.0662791883348629;0.0591414295911083;0.0010548377079166449;0.08055470582237159;0;53.72686331;86.85261306999999
1.2480351349448922;1.5823339310033264;0.0622004690527174;0.057893812847116796;3.568968619060328;0.5060418671128917;0.25607837127110156;4.928613518241461;1.5226333041137368;-0.9809319873559702;0.02216901602130938;0.000491465271353072;0.0662791883348629;0.0591414295911083;0.0008059222913403203;0.08055470582237159;0;53.72698744;86.85236344
0.7225767916337872;1.4019635405961757;-0.0897318242071989;0.05044410109918772;3.405980214127724;0.43479102826387267;0.1890432382587557;4.928613518241461;1.5226333041137368;-0.9666564698684612;0.026620609565244476;0.0007086568536251857;0.0805547058223719;0.0591414295911083;0.000634271624882925;0.08055470582237159;0;53.72714196;86.85212372
1.1515322664869194;0.7079507805591555;-0.0907515040277353;0.04724443142988427;3.5968202237272924;0.1548322033461159;0.02397301119301298;3.6973131527959193;0.545900703651724;-0.9666564698684612;0.029112012651322204;0.000847509280610744;0.08769246456612634;0.0183542367696543;0.00015193013289683591;0.039767513000917604;1;53.727319290000004;86.85189145
0.8527265554850917;1.0055356030276592;-0.0764759865402263;0.04685216414308432;3.6134644138990146;0.4169965139132142;0.17388609261577345;4.75284342414195;1.601430974997755;-0.9666564698684612;0.028975976323396505;0.0008396072038940348;0.08769246456612634;-0.0010196798205363;0.00030350213073779904;0.062200469052717394;1;53.72753093;86.85164485
0.2267633491928631;1.3949173027591484;-0.0876924645661262;0.04683135444747193;3.6517778064246507;0.6388372821644104;0.40811307308321054;5.179835469309079;2.028423020164884;-0.9666564698684612;0.02896286607007789;0.0008388476109932691;0.08769246456612634;-0.0010196798205363;0.0006022589719852662;0.0718874273478128;1;53.727750990000004;86.85140411
0.0602552682309514;1.412575236440862;-0.07545630671969;0.046409094030438254;3.5406809658300853;0.6323769337632186;0.3999005863557702;5.179835469309079;2.028423020164884;-0.9421841541755888;0.035515553705031226;0.0012613545549749572;0.11216478025899879;-0.0010196798205363;0.0006115560425083238;0.0718874273478128;1;53.72798669;86.85116109
0.3045874710488837;1.4418779647404707;-0.0356887937187722;0.021437607937424722;3.1514124491441953;0.6762635575049681;0.4573323992092754;5.179835469309079;2.134182417394988;-0.9421841541755888;0.03439818166443428;0.0011832349018194228;0.11216478025899879;-0.0010196798205363;0.0006367872348318499;0.0718874273478128;1;53.72822479;86.85091791
3.6339509508637216;1.4293190020684192;-0.0499643112062812;0.022466983944920495;4.75284342414195;0.6908548878087424;0.47728047600922996;5.179835469309079;2.134182417394988;-0.9421841541755888;0.031705365891378644;0.0010052302263061962;0.11216478025899879;-0.0010196798205363;0.0006272562212481002;0.0718874273478128;1;53.728497270000005;86.85065534999998
4.09773648857267;1.4475118044190747;-0.0331395941674313;0.022717549525519593;5.179835469309079;0.7323348327992241;0.5363143073310674;5.179835469309079;2.195116964916809;-0.9421841541755888;0.03226127045749108;0.001040789571531387;0.11216478025899879;-0.0010196798205363;0.0006439961469242859;0.0718874273478128;1;53.72877538;86.85040866
2.1009724931113647;1.4509660321701445;-0.0734169470786173;0.027102572581356798;3.8115544980055462;0.8299458592789155;0.6888101293342175;5.179835469309079;2.7148474671684926;-0.9421841541755888;0.031352506149701094;0.0009829796418670451;0.11216478025899879;-0.0010196798205363;0.000648155134669922;0.0718874273478128;1;53.72905349;86.85017989
0.5221455450525294;1.407043533427476;-0.0723972672580809;0.02528729432101226;3.0456530519140914;0.8718453564553021;0.7601143255726728;5.179835469309079;2.7148474671684926;-0.9421841541755888;0.02961370738911755;0.0008769716653282754;0.11216478025899879;-0.0010196798205363;0.0006107242449591966;0.0718874273478128;0;53.729325900000006;86.84995822
1.0483008832392082;1.3790372930776316;-0.0978892627714897;0.02463048045307683;3.2097037459269693;0.9215291764755655;0.849216023095734;5.179835469309079;2.7148474671684926;-0.9421841541755888;0.028187841199748688;0.0007945543915022495;0.11216478025899879;-0.0056082390129499;0.0005866367742657202;0.06729886815539919;0;53.72958834;86.84973169999999
0.6531996143794775;1.4377716770202804;-0.040787192821454;0.03145294008432165;2.98471850439227;0.9550091093118136;0.9120423988685435;5.179835469309079;2.7148474671684926;-0.9421841541755888;0.020251550332767463;0.00041012529088061393;0.07494646680942185;0.0040787192821454;0.0006379453973915718;0.0769858264504945;0;53.72983421;86.84949885
0.7685477165937544;1.283993525340835;-0.0142755174875089;0.035918252837273096;2.4649880021405868;0.8221741137944424;0.6759702733936767;5.179835469309079;2.7148474671684926;-0.9421841541755888;0.020362486609900716;0.00041463086093838594;0.07494646680942185;0.0050983991026817;0.0005110038491997652;0.0780055062710308;0;53.7300392;86.8492712
0.9371154029811144;1.1789467402081102;-0.0662791883348628;0.037980544941936166;2.72301785467129;0.4785456613397906;0.22900594998713755;3.8115544980055462;1.3465664958649595;-0.9421841541755888;0.018555807025395738;0.00034431797436372584;0.0662791883348629;0.0418068726419904;0.0004089786810646273;0.0764759865402263;0;53.73021718;86.84902934
0.3472956975404776;1.8230057481394484;-0.0418068726419904;0.03823519848995252;2.534555205624948;0.9256488580922232;0.8568258084874368;5.564543176244418;3.099555174103831;-0.9829713469970428;0.0077425568939367955;5.99471872558482e-05;0.02549199551340886;0.0805547058223717;0.0009977411601781174;0.09890894259202601;0;53.730356740000005;86.84878233999999
-0.2350459272657301;3.1286214402487396;0.0101967982053635;0.03699125814688186;2.577545828236152;2.047325421857005;4.191541382981963;8.953410731959522;6.488422729818936;-0.9829713469970428;0.014108232414441625;0.00019904222185990138;0.04996431120628142;0.1549913327215254;0.0031497516054388706;0.1733455694911797;0;53.73046549000001;86.84853013
-0.2923154124272377;3.0766010282349883;0.0071377587437544;0.034391421952050444;2.790544489688175;2.040383717575068;4.163165714945455;8.953410731959522;6.488422729818936;-0.9829713469970428;0.020731818010584997;0.0004298082780240164;0.06322014887325389;0.1549913327215254;0.0030599059173893914;0.171306209850107;0;53.73050968;86.84829528
-2.3994811756138623;3.253251315674657;-0.0836137452839808;0.03692659247165526;3.7452975071388903;2.1899495840362846;4.7958791806206955;8.953410731959522;6.488422729818936;-0.9880697460997246;0.019759466778365396;0.00039043652736532575;0.05812174977057205;0.1549913327215254;0.003383593579623199;0.171306209850107;0;53.73051124;86.8480562
-4.660508930824247;3.282140301050856;-0.0122361578464362;0.036239740566233865;5.564543176244418;2.241545220008203;5.024524973341624;8.953410731959522;6.418855526334575;-0.9880697460997246;0.01957531499214442;0.000383192957041674;0.05812174977057205;0.1549913327215254;0.003460742802304752;0.171306209850107;0;53.730472250000005;86.84780217
-8.522046871398333;2.9981828134964754;-0.0540430304884266;0.036367349323063326;8.953410731959522;2.189090206402041;4.79211593176533;8.953410731959522;6.418855526334575;-0.9880697460997246;0.01951384089163878;0.00038078998634419385;0.05812174977057205;0.1549913327215254;0.0028998801993182378;0.16110941164474352;1;53.73040096999999;86.84754657
-3.2812244584500982;2.746413913939641;-0.0815743856429081;0.03892367926415445;4.103697595243226;2.108305086174136;4.444950336387731;8.953410731959522;6.37586490372337;-0.9880697460997246;0.019724355455040244;0.00038905019811677586;0.05812174977057205;0.1549913327215254;0.0024408665851248586;0.15091261343938;1;53.73030069;86.84730293
-6.1496846482890914;2.4850411598960127;-0.0800448659121035;0.03928911166552736;6.630307304992192;1.9606945923538301;3.844323284485552;8.953410731959522;6.162866242271347;-0.9880697460997246;0.018788444258495535;0.0003530056376545938;0.05812174977057205;0.1549913327215254;0.002003826289520923;0.1498929336188437;1;53.73017436;86.84707164
-6.421339117307879;2.1541912620266968;-0.0652595085143265;0.033598927171719556;6.860308088491634;1.8521285020293476;3.4303799880294754;8.953410731959522;5.59189990652709;-0.9880697460997246;0.018629128317928567;0.000347044421885848;0.05812174977057205;0.1549913327215254;0.0015193367092460703;0.1172631793616804;1;53.73001189;86.84684773000001
-2.110044011132717;2.1566395839148584;-0.0683185479759355;0.03300361935579363;3.3615108254324326;1.887631857762038;3.563154030438162;8.953410731959522;5.59189990652709;-0.9880697460997246;0.02159031396435975;0.00046614165707962774;0.0683185479759355;0.1549913327215254;0.0015036827414812457;0.1172631793616804;1;53.72983338;86.8466385
-2.1674405263923364;2.171552792106273;-0.0917711838482716;0.0345897145473857;3.4105350514945907;1.9090061126148785;3.6443043380009703;8.953410731959522;5.59189990652709;-0.9207708779443254;0.03732718390806889;0.0013933186585067972;0.1356174161313347;0.1549913327215254;0.0015511934001032704;0.1172631793616804;1;53.729641730000004;86.84644685
-4.710875640692692;1.586150899228685;0.0122361578464362;0.03565981009444666;5.347303419855261;1.3170337540877735;1.734577909406534;6.860308088491634;3.4987972630592017;-0.9207708779443254;0.037211871992226024;0.0013847234171658154;0.1356174161313347;0.1152238197206077;0.0007943096177443049;0.0774956663607627;1;53.72944311;86.84627127
-2.980293534337775;1.8708520396790784;-0.06984806770674;0.04685154769238496;3.8098133974459576;1.5323209753523852;2.348007571504885;6.860308088491634;4.7386043481554765;-0.9207708779443254;0.04483873816198691;0.0020105124399592217;0.1356174161313347;0.1152238197206077;0.0011178788643548003;0.1040073416947079;1;53.72924159;86.84610814999999
-2.375147096337869;1.6464228602768354;-0.0387478331803813;0.04618310407097843;3.372169653399788;1.3187571839385523;1.7391205101895406;6.860308088491634;4.7386043481554765;-0.9207708779443254;0.04715938023591086;0.0022240071442352198;0.1356174161313347;0.1152238197206077;0.0008763109927957655;0.1040073416947079;1;53.729037829999996;86.84594790999999
-3.422241735817148;1.3561148501612905;-0.0020393596410727;0.046114637055995625;4.078172985562043;0.9970300053235703;0.9940688315155187;5.347303419855261;3.2255996795191035;-0.9207708779443254;0.046315868427831565;0.0021451596682242045;0.1356174161313347;0.0846334251045171;0.0005726124654144204;0.0734169470786173;1;53.72883462;86.84579846
-4.691738300504738;1.7057527654418172;-0.0265116753339451;0.044803297149108356;5.071743497643903;1.1780012743551787;1.3876870023824248;5.347303419855261;3.3871063359781033;-0.9207708779443254;0.04892054968787599;0.002393220181763944;0.1356174161313347;0.0846334251045171;0.0008990930034468598;0.0876924645661261;1;53.72862874;86.84565146
-0.6959538016442156;1.6839636686960076;0.0540430304884266;0.041057362917858824;2.1217037403361574;1.1699348142582844;1.3687474696135666;5.347303419855261;3.3871063359781033;-0.9207708779443254;0.04771549564749521;0.002276768524886134;0.1356174161313347;0.0846334251045171;0.0008796439593641418;0.0876924645661261;1;53.72842128999999;86.84550544999999
-3.8394865159496008;2.012940905186857;-0.0729071071683491;0.03842838821806122;4.29058182793216;1.1147992612997426;1.2427773929944517;5.085813301798003;3.1256162179208458;-0.9207708779443254;0.0500966250224679;0.0025096718386417574;0.1356174161313347;0.0846334251045171;0.0012455309062864837;0.1050270215152441;0;53.72821665;86.84536481
-4.72959600233388;2.195836104708334;-0.0642398286937901;0.036235277278962204;5.085813301798003;1.1626902893332656;1.351848708909873;5.085813301798003;3.1256162179208458;-0.890180483328235;0.05785388896592764;0.003347072468481884;0.1662078107474252;0.0846334251045171;0.0014660893913117023;0.1050270215152441;1;53.72800923;86.84524187
0.1879778700717801;2.7596842860168707;-0.0275313551544814;0.03608159613996359;1.9601970838771576;1.8097312409573423;3.275127164497002;7.867133948196456;5.906936864319299;-0.890180483328235;0.053301616230306235;0.0028410622927628453;0.14887325379830751;0.1172631793616804;0.0021282002404169834;0.1376567757724074;0;53.72781194;86.84512394000001
-2.9738374368325995;2.749615939900515;-0.0591414295911083;0.04213802783380915;3.6711928901441158;1.8102566566336156;3.2770291628863157;7.867133948196456;5.906936864319299;-0.890180483328235;0.05164543797109729;0.0026672512632264574;0.14887325379830751;0.1172631793616804;0.002121372568867897;0.1376567757724074;0;53.727626810000004;86.84500281
1.1240390532358997;2.647185203024583;-0.0265116753339451;0.042108407676798854;2.536767226787569;1.7683896955569676;3.127202115352065;7.867133948196456;5.906936864319299;-0.890180483328235;0.04753599125035807;0.002259670464154119;0.14887325379830751;0.1172631793616804;0.00191591857423347;0.1376567757724074;0;53.72745784999999;86.84488249
0.4592028850369506;2.5923808838470888;-0.0265116753339451;0.025910091215471293;2.5063626227960545;1.6787984733510135;2.8183643141256938;7.867133948196456;5.906936864319299;-0.890180483328235;0.04904001540752654;0.0024049231111704407;0.14887325379830751;0.1172631793616804;0.0018415189045615332;0.1376567757724074;0;53.72730757000001;86.84477317000001
-7.359721365698591;2.937156856110457;-0.0254919955134087;0.025680280830494145;7.867133948196456;1.6778502643224447;2.8151815094868975;7.867133948196456;5.906936864319299;-0.890180483328235;0.04921872897233337;0.0024224832816520086;0.14887325379830751;0.1172631793616804;0.0024099485546963577;0.15397165290098902;1;53.72717838;86.84467982
-3.0424215418856053;2.8487796996386154;-0.1050270215152442;0.025428242453329537;4.125580826708541;1.6452794912187045;2.706944604224879;7.867133948196456;5.906936864319299;-0.890180483328235;0.049268816742723605;0.0024274163032280815;0.14887325379830751;0.1172631793616804;0.002233099153556917;0.15397165290098902;1;53.727070319999996;86.84459992
-2.639082291471011;2.9700160508258486;-0.0509839910268175;0.024615642512597125;4.1551369958370765;1.5026385166954301;2.2579225118566426;7.867133948196456;5.3607713254004015;-0.890180483328235;0.04788624595630518;0.0022930925517877544;0.14887325379830751;0.1172631793616804;0.002447148389532325;0.15397165290098902;1;53.72698242;86.84454018
-3.248726475800989;3.014723888328796;-0.0499643112062812;0.02458065291018599;4.745322115336412;1.51033950254936;2.2811254129610483;7.867133948196456;5.3607713254004015;-0.890180483328235;0.04796820215027359;0.0023009484175295115;0.14887325379830751;0.1172631793616804;0.0025103650032659943;0.15397165290098902;1;53.72691486;86.84449822
2.107156779568033;3.4000261819075734;-0.0703579076170082;0.023091739647880822;4.197843065925387;1.4541486779430706;2.11454837756358;7.867133948196456;5.3607713254004015;-0.890180483328235;0.04448643350525276;0.0019790427660172755;0.13255837666972536;0.1172631793616804;0.0032527443158620536;0.1927194860813704;1;53.72686366000001;86.8444675
0.2924069118217456;3.4827629803936193;-0.0591414295911083;0.021658697086310356;3.5816804886424296;1.329275290084164;1.7669727968283382;7.867133948196456;4.397912190973418;-0.9075150402773527;0.03204834913090047;0.0010270966820160887;0.11522381972060758;0.1172631793616804;0.0034147715467857964;0.1927194860813704;1;53.7268554;86.84444388
1.55956320102407;2.516687320501514;-0.037728153359845;0.018904911538407246;3.585740523372885;0.6815666410510999;0.4645330861936788;5.372198167831125;2.3412142355563237;-0.971754868971143;0.015425313936038378;0.00023794031002533978;0.05098399102681728;0.058121749770572;0.0019355582385878613;0.133578056490262;1;53.726864119999995;86.844427
1.2230214918671038;2.246928288203424;-0.058121749770572;0.009780425254028174;3.4692217572230386;0.7737196750603927;0.5986421355755597;5.372198167831125;2.558388901807135;-0.971754868971143;0.01350236456801006;0.0001823138489274535;0.05098399102681728;0.058121749770572;0.0015594933244324478;0.133578056490262;1;53.72688264999999;86.84442505
4.297645916456102;2.019491540149798;-0.0591414295911083;0.010114894885397966;5.372198167831125;0.8544191587062803;0.7300320987643477;5.372198167831125;2.7313404923024307;-0.971754868971143;0.013493377683477048;0.00018207124130895644;0.05098399102681728;0.058121749770572;0.0012674399627388847;0.133578056490262;1;53.72690193;86.84443409000001
1.9215579364375823;1.4784402305119329;-0.0397675130009177;0.00994500071090877;3.689706248174582;0.890047027972959;0.7921837120034971;5.372198167831125;3.166261730162132;-0.971754868971143;0.011172101115906378;0.00012481584334403655;0.03874783318038144;0.0132558376669725;0.0006689500733981008;0.0887121443866625;1;53.72691841000001;86.84444801000001
-0.2939041837844184;1.4388183633488383;-0.0591414295911083;0.018554561794576874;3.0309839322748013;0.9359570946476062;0.876015683021188;5.372198167831125;3.225405107172954;-0.971754868971143;0.011729519392302004;0.00013758162517438878;0.03874783318038144;0.0132558376669725;0.0006342571839532524;0.0887121443866625;0;53.72693071;86.84446287
0.0590337340714923;1.5790433496216203;-0.0560823901294993;0.02210613173108877;2.81380926602399;1.0651833190291902;1.1346155031380414;5.372198167831125;3.8038293320351215;-0.971754868971143;0.019161360826765252;0.000367157748733494;0.07443662689915365;0.020393596410727;0.0007702907414667687;0.095849903130417;0;53.72693864;86.84448104
-0.7569467957419432;1.6242748357201724;-0.0632201488732537;0.033335369615511555;2.6408576755286943;1.074189092131538;1.1538822056543778;5.372198167831125;3.8038293320351215;-0.971754868971143;0.0211445307977236;0.0004470911826558818;0.07443662689915365;0.020393596410727;0.0008088769055512824;0.095849903130417;0;53.72694051;86.84449059
0.4627649757304861;1.7199365904820476;-0.0550627103089629;0.0325838718119064;2.205936437668993;1.0571859118951852;1.1176420523096544;5.372198167831125;3.8038293320351215;-0.971754868971143;0.021136401976913688;0.0004467474885296808;0.07443662689915365;0.020393596410727;0.0009071243264841336;0.095849903130417;0;53.72693676;86.84448684
1.3322171308207331;1.298299601112502;-0.0020393596410727;0.03448267095915541;2.146793060658171;0.6639815545776181;0.44087150481931037;3.689706248174582;2.1709774140486067;-0.971754868971143;0.021115074579980235;0.00044584637451812757;0.07443662689915365;0.020393596410727;0.0005100796297007328;0.0678087080656673;0;53.72692963000001;86.84447715000002
-1.116701423602037;1.298299601112502;-0.0081574385642908;0.03448267095915541;1.5683688357960033;0.6639815545776181;0.44087150481931037;3.689706248174582;2.1709774140486067;-0.971754868971143;0.021115074579980235;0.00044584637451812757;0.07443662689915365;0.020393596410727;0.0005100796297007328;0.0678087080656673;0;53.72692963000001;86.84447715000002
2.2196423644512544;1.298299601112502;0.0346691138982359;0.03448267095915541;2.255606208791512;0.6639815545776181;0.44087150481931037;3.689706248174582;2.1709774140486067;-0.971754868971143;0.021115074579980235;0.00044584637451812757;0.07443662689915365;0.020393596410727;0.0005100796297007328;0.0678087080656673;0;53.72692963000001;86.84447715000002
2.7198607066627254;1.298299601112502;-0.0254919955134087;0.03448267095915541;2.7539265044803183;0.6639815545776181;0.44087150481931037;3.689706248174582;2.1709774140486067;-0.971754868971143;0.021115074579980235;0.00044584637451812757;0.07443662689915365;0.020393596410727;0.0005100796297007328;0.0678087080656673;0;53.72692963000001;86.84447715000002
0.5863564776544045;1.298299601112502;0.0152951973080452;0.03448267095915541;1.5187288341259755;0.6639815545776181;0.44087150481931037;3.689706248174582;2.1709774140486067;-0.971754868971143;0.021115074579980235;0.00044584637451812757;0.07443662689915365;0.020393596410727;0.0005100796297007328;0.0678087080656673;0;53.72692963000001;86.84447715000002
-5.605740809647735;3.3166216478180988;0.0622004690527174;0.041797234313144305;5.614470874086635;1.477703803978792;2.183608532293392;5.614470874086635;4.67071038782386;-0.9574793514836342;0.024535727489461187;0.0006020019234371014;0.07953502600183548;0.1019679820536351;0.0034305294892442656;0.1753849291322524;1;53.7275385;86.85421754000001
-4.209788014344228;3.3166216478180988;-0.0183542367696543;0.041797234313144305;4.211555009794046;1.477703803978792;2.183608532293392;5.614470874086635;4.67071038782386;-0.9574793514836342;0.024535727489461187;0.0006020019234371014;0.07953502600183548;0.1019679820536351;0.0034305294892442656;0.1753849291322524;1;53.7275385;86.85421754000001
-3.735052818819147;3.3166216478180988;-0.0101967982053635;0.041797234313144305;3.7359064733700533;1.477703803978792;2.183608532293392;5.614470874086635;4.67071038782386;-0.9574793514836342;0.024535727489461187;0.0006020019234371014;0.07953502600183548;0.1019679820536351;0.0034305294892442656;0.1753849291322524;1;53.7275385;86.85421754000001
4.135764175583243;3.3166216478180988;-0.0989089425920261;0.041797234313144305;4.147148772910533;1.477703803978792;2.183608532293392;5.614470874086635;4.67071038782386;-0.9574793514836342;0.024535727489461187;0.0006020019234371014;0.07953502600183548;0.1019679820536351;0.0034305294892442656;0.1753849291322524;1;53.7275385;86.85421754000001
-0.7922191358477731;3.3166216478180988;0.0311002345263587;0.041797234313144305;0.9437604862627749;1.477703803978792;2.183608532293392;5.614470874086635;4.67071038782386;-0.9574793514836342;0.024535727489461187;0.0006020019234371014;0.07953502600183548;0.1019679820536351;0.0034305294892442656;0.1753849291322524;1;53.7275385;86.85421754000001
2.615043056813948;3.3166216478180988;-0.023452635872336;0.041797234313144305;2.718099086452202;1.477703803978792;2.183608532293392;5.614470874086635;4.67071038782386;-0.9574793514836342;0.024535727489461187;0.0006020019234371014;0.07953502600183548;0.1019679820536351;0.0034305294892442656;0.1753849291322524;0;53.7275385;86.85421754000001
-0.4528500053966204;2.810695366189889;-0.0183542367696543;0.032725253745192744;1.0759392575462958;1.1593413700696473;1.344072412354967;4.211555009794046;3.267794523531271;-0.9574793514836342;0.022304095993713306;0.000497472698096778;0.07443662689915365;0.0734169470786173;0.002401307102380428;0.1468338941572346;0;53.72747484;86.85429468
2.7426554107455754;2.4077843909785517;-0.0265116753339451;0.032725253745192744;2.999650298649299;1.035914790535621;1.0731194532504593;4.147148772910533;3.2033882866477583;-0.9574793514836342;0.022211446791741314;0.0004933483685823555;0.07443662689915365;0.0642398286937901;0.0017613428630206599;0.1376567757724074;0;53.727397329999995;86.85435541000001
1.4598021701812862;2.0940598547830684;0.0050983991026817;0.03329085010101235;2.0611450968998555;0.979050979729194;0.9585408209086945;4.147148772910533;3.2033882866477583;-0.9299479963291526;0.03221302524259352;0.0010376789952799672;0.10196798205363522;0.0336494340776996;0.00131910383273468;0.1070663811563169;0;53.727310409999994;86.85440161
1.4332126266984326;1.8310171060990261;-0.0214132762312633;0.020117045044534;2.2202569122895035;0.8026671217014331;0.6442745082604632;3.1674160479329894;2.2236555616702143;-0.9299479963291526;0.031995179493156944;0.0010236915107993308;0.10196798205363522;0.0336494340776996;0.0009910983325288395;0.0795350260018354;0;53.72721631;86.85442271
2.4842115455046514;1.8143040001470063;-0.0163148771285816;0.011760626523098717;3.1483390428149307;0.6273337051498984;0.39354757761709963;3.1674160479329894;2.0914767903866935;-0.9299479963291526;0.029926488070499274;0.0008955946882337354;0.10196798205363522;0.0336494340776996;0.0009693936152313006;0.0795350260018354;0;53.727116620000004;86.85442286
-1.5762848659176532;1.7852573322412317;-0.0183542367696543;0.01689657632292359;2.680910907769017;0.6847896884140496;0.4689369173582112;3.413235688569838;2.337296431023542;-0.9299479963291526;0.029669441350273325;0.0008802757500373087;0.10196798205363522;0.0336494340776996;0.0009364682955783472;0.0795350260018354;0;53.72700615;86.85437383000001
-2.0701063330004;1.8265396171966515;-0.0428265524625267;0.03165248695793452;3.1674160479329894;0.45014192873761844;0.20262775600762314;3.413235688569838;1.3520905916699824;-0.9299479963291526;0.027167233691307108;0.000738058586438092;0.08871214438666253;0.0336494340776996;0.0009836265955163659;0.0795350260018354;0;53.72690091;86.85428651
-0.7038649670980197;1.5597451282404566;-0.023452635872336;0.04182900820348961;2.7105728404087617;0.5250274724336007;0.27565384681001537;3.6890743221486804;1.6279292252488249;-0.9299479963291526;0.0247011458797422;0.000610146607772305;0.08871214438666253;0.0336494340776996;0.0007332786387165438;0.0774956663607627;0;53.72680374;86.85416374
-0.5644508723282163;1.43323221400317;-0.0239624757826042;0.03865383856495671;2.6464111621849913;0.4828180496882429;0.23311326910475857;3.6890743221486804;1.4688174098591769;-0.9299479963291526;0.027158727449727457;0.0007375964766885798;0.0989089425920262;0.0336494340776996;0.0006200386445978615;0.0774956663607627;0;53.72673367;86.85398359
-1.7646901576071554;1.4669201409621946;-0.0591414295911083;0.039911959501219944;3.413235688569838;0.4711646634467197;0.22199614008086063;4.030606741994156;1.3841955798091643;-0.9299479963291526;0.027406707715294257;0.0007511276277915698;0.0989089425920262;0.0336494340776996;0.0006520628502392599;0.0774956663607627;0;53.72668565;86.85377940999999
-1.206212397909883;1.0662564489614046;-0.1101254206179259;0.03823463195555901;3.2844230847174956;0.49450357369703873;0.24453378439914264;4.030606741994156;1.3841955798091643;-0.9299479963291526;0.026940750054854454;0.0007258040135181402;0.0989089425920262;0.0336494340776996;0.00034046224614120717;0.0632201488732537;0;53.72666656;86.8535504
-0.5856674443915231;1.2396296498102526;-0.1213418986438258;0.03657167122524729;3.6890743221486804;0.5006177245311411;0.25061810611473745;4.105603959680805;1.459192797495814;-0.9299479963291526;0.02798196017116452;0.0007829900950206375;0.0989089425920262;0.0336494340776996;0.00046245922001320164;0.0632201488732537;1;53.72667819000001;86.85330347
-0.2270373492394085;1.1591964168285034;-0.0305903946160905;0.03815780768018798;3.6648426484918897;0.5170401557960167;0.2673305227055692;4.105603959680805;1.459192797495814;-0.9829713469970428;0.015740123177559233;0.00024775147764473734;0.04588559192413599;0.0305903946160905;0.00041885916514644876;0.0601611094116446;0;53.7267174;86.85304060000001
1.6519721631160214;1.167762807993183;-0.0917711838482716;0.036758832894532724;4.030606741994156;0.4381625217915979;0.19198639550277255;4.105603959680805;1.459192797495814;-0.9829713469970428;0.015417822646229484;0.00023770925515058673;0.04588559192413599;0.0305903946160905;0.0004245662205529606;0.0601611094116446;0;53.726789280000006;86.85276432
-0.0585824775822874;1.166045544698259;-0.078515346181299;0.03367174290759801;3.740556496316261;0.26267014654398746;0.06899560588543983;4.105603959680805;0.8211808749633098;-0.9901091057407974;0.01342255708098181;0.0001801650385922149;0.03874783318038144;0.0305903946160905;0.00042307302842483984;0.0601611094116446;0;53.72689505000001;86.85248353
1.604538873487958;0.9383833412243723;-0.0346691138982359;0.033445221776456036;4.105603959680805;0.24283236638553674;0.05896755816439955;4.105603959680805;0.8211808749633098;-0.9901091057407974;0.02669087542180295;0.0007124028307822049;0.09432038339961268;0.0214132762312633;0.00027797056707708884;0.0509839910268174;0;53.727040380000005;86.85222438
1.037158384936234;1.3282757988484375;-0.023452635872336;0.030742778216226434;3.988435674815463;0.25882678031618733;0.0669913022088439;4.435453261358819;0.8510520329028632;-0.9901091057407974;0.027608875960915453;0.0007622500318252152;0.09432038339961268;0.0499643112062812;0.0005451624242467381;0.07953502600183529;0;53.72721108;86.85197268
0.8103993624895189;1.3039515610238879;-0.0876924645661262;0.024997526998447265;3.883127886117361;0.30946004418760165;0.09576551894859237;4.435453261358819;1.106815095027804;-0.9880697460997246;0.02782063298098912;0.0007739876194628996;0.0963597430406854;0.0499643112062812;0.0005240786669251102;0.07953502600183529;1;53.72740312;86.85173208
0.8158326192571493;1.9368623231886946;-0.0662791883348628;0.026670037105287824;3.739103013013985;0.7142628096297582;0.5101713612201962;5.916732435970974;2.5880942696399587;-0.9870500662791885;0.028617923689917373;0.000818985556321934;0.09737942286122159;0.0499643112062812;0.001129211383915175;0.1376567757724074;1;53.72760108999999;86.85151533000001
0.5375011451258497;2.0503745987480824;-0.0734169470786173;0.02473433034029997;3.5844012284559557;0.7202829992424893;0.5188075989977559;5.916732435970974;2.5880942696399587;-0.9870500662791885;0.028617923689917373;0.000818985556321934;0.09737942286122159;0.0499643112062812;0.0012751918537870052;0.1376567757724074;1;53.7278059;86.85130798
-2.8685993819677287;2.178214594285982;-0.0764759865402263;0.029050238851139793;4.435453261358819;0.7593798492351038;0.576657755424329;5.916732435970974;2.5880942696399587;-0.9870500662791885;0.028173031533138132;0.0007937197057671956;0.09737942286122159;0.0499643112062812;0.0014513596430459118;0.1376567757724074;1;53.72801446;86.85110182000001
0.8840743630558001;2.2061054141409095;-0.078515346181299;0.028542941130780083;3.328638166331015;0.7583088542391226;0.575032318417451;5.916732435970974;2.5880942696399587;-0.9870500662791885;0.02902139261762404;0.0008422412294662831;0.09737942286122159;0.0499643112062812;0.0014857406084098372;0.1376567757724074;1;53.72822483;86.85089746999999
5.075920175346281;2.3060029625981127;-0.020393596410727;0.027433409158548694;5.916732435970974;0.7849748734889129;0.6161855520089349;5.916732435970974;2.5880942696399587;-0.9381054348934434;0.03690558596907654;0.0013620222757208993;0.1463240542469666;0.0499643112062812;0.0016208037354493716;0.1376567757724074;1;53.728439370000004;86.85069729
3.1372019005644827;2.3102202070814806;-0.0642398286937901;0.0257611298525255;4.37826265646079;0.7761023714396246;0.602334890954209;5.916732435970974;2.5880942696399587;-0.9381054348934434;0.03690558596907654;0.0013620222757208993;0.1463240542469666;0.0499643112062812;0.0016262104195186985;0.1376567757724074;1;53.728656130000005;86.85050189
3.8823140646625336;2.3124068034211964;-0.0061180789232181;0.02659021379195529;5.015395889360476;0.7834332477117623;0.6137676536201995;5.916732435970974;2.5880942696399587;-0.9381054348934434;0.03692811761813962;0.0013636858708191537;0.1463240542469666;0.0499643112062812;0.001629410529534091;0.1376567757724074;1;53.72888031;86.85030366999999
2.5919954761300628;2.283829274898913;-0.0438462322830631;0.02857227040746271;4.324476411736743;0.7600937975496691;0.5777425810734773;5.916732435970974;2.5880942696399587;-0.9381054348934434;0.023742037836809334;0.000563684360644486;0.08361374528398091;0.0499643112062812;0.0015915319710035226;0.1376567757724074;1;53.72910555;86.85011931
-0.5584294115455244;1.7464153583572626;-0.0805547058223717;0.027780739598959953;3.5808648142648827;0.8183709361622555;0.6697309891550866;5.916732435970974;2.6288691300650213;-0.9381054348934434;0.02421611365022537;0.0005864201603206315;0.08361374528398091;0.0091771183848271;0.0009301142865225158;0.0968695829509533;0;53.729327549999994;86.84994707000001
2.3182254982755643;1.850618551255442;-0.0652595085143265;0.028353904210447155;4.277635131034469;0.8169912453426091;0.6674746949664674;5.916732435970974;2.6288691300650213;-0.9381054348934434;0.025373949174259187;0.0006438372966978884;0.08565310492505351;0.0091771183848271;0.0010455261964639189;0.0968695829509533;0;53.72954473;86.84977257
0.7583747715905238;1.5920448971627812;-0.0795350260018354;0.025961483440118706;3.647283748128161;0.558975109531968;0.3124531730762756;5.015395889360476;1.7275325834545234;-0.9381054348934434;0.025803306285965243;0.0006658106152873333;0.08565310492505351;0.0091771183848271;0.0007923564820061194;0.078515346181299;0;53.7297466;86.8496058
1.8239014957715407;1.5128400915122562;-0.020393596410727;0.029965404290328745;3.892741081398086;0.5365333914123547;0.28786808010044296;5.015395889360476;1.7275325834545234;-0.9381054348934434;0.02475767298751778;0.0006129423717568676;0.08565310492505351;0.0091771183848271;0.00071124755640841;0.078515346181299;0;53.72993667000001;86.84943747
0.1730872712377724;1.1777265732888076;-0.0652595085143265;0.023929065811773762;3.2878633059059523;0.36012619807542984;0.12969087854026373;4.324476411736743;1.0366131058307908;-0.9381054348934434;0.023371462869718265;0.0005462252766706196;0.08565310492505351;0.0091771183848271;0.00042018773067630395;0.0540430304884265;0;53.730110409999995;86.84927073
-0.1706338591374065;1.0174219374490432;-0.0836137452839808;0.022383720494324535;3.3408585419188386;0.32727815129049986;0.10711098831212731;4.277635131034469;0.9897718251285164;-0.9381054348934434;0.02358403797614282;0.0005562068472601468;0.08565310492505351;0.0091771183848271;0.00031685999068472095;0.0499643112062811;0;53.730265759999995;86.84909584
-0.3269773226863626;0.9717696763442137;-0.0591414295911083;0.02343267712229266;3.489111202068236;0.4208081014520625;0.1770794582476893;4.609074569922646;1.3212112640166933;-0.9809319873559702;0.01098439145325759;0.00012065685559839842;0.04282655246252676;0.0056082390129499;0.0002909818447118739;0.0463954318344039;0;53.73039648;86.84891936
-0.028958541228199;0.8090385618254127;-0.1040073416947078;0.023415661805716793;3.775313887212935;0.49778946242783534;0.24779434890419327;4.762853118769737;1.4749898128637846;-0.9809319873559702;0.012152788813479523;0.00014769027594503304;0.04282655246252676;0.0056082390129499;0.00020114770940613251;0.0377281533598449;0;53.73050078;86.84874206
1.6868003087578145;1.478102392933621;-0.0876924645661262;0.02419242754468126;3.9745329906170896;0.8016454636104906;0.6426354493272783;5.920586164513142;2.6327228586071896;-0.9809319873559702;0.01210134619045923;0.00014644257962134213;0.04282655246252676;0.0586315896808402;0.0006731321666312152;0.0907515040277352;0;53.7305716;86.84856968
0.0577536852665662;1.6643990272422402;-0.0795350260018354;0.02597216113670512;4.107190031329097;0.9314112180231905;0.8675268570594432;5.920586164513142;2.6327228586071896;-0.9809319873559702;0.01306225372072986;0.00017062247226472108;0.04282655246252676;0.0586315896808402;0.0008413545563843955;0.0882023044763943;0;53.730612480000005;86.8483904
1.5195379407925205;2.1901933956661765;-0.0479249515652085;0.026024374130598747;4.609074569922646;1.1475235046329315;1.3168101936850454;6.8002465352340495;3.459387993315211;-0.9809319873559702;0.012557205074310813;0.0001576833992782972;0.04282655246252676;0.0856531049250535;0.0014665197310159408;0.1152238197206076;0;53.73061934;86.84818734
0.472444190026354;2.2751097837125274;-0.0662791883348628;0.028287616411787016;4.762853118769737;1.0832959265659483;1.1735300645143762;6.8002465352340495;3.3111353331658133;-0.9809319873559702;0.009695005056799813;9.399312305137395e-05;0.027531355154481463;0.0856531049250535;0.0015794593537974382;0.1152238197206076;0;53.73059952;86.84798831999998
-3.337412862275381;2.609948459564344;-0.0458855919241358;0.030266918697462366;5.920586164513142;1.1514895092489752;1.3259280899104455;6.993401697466285;3.2180878102533503;-0.9737942286122158;0.011047838593620038;0.00012205473759068038;0.034669113898235904;0.0907515040277353;0.0020545514990880104;0.12032221882328939;0;53.73056142;86.84779405999998
-3.0218939488123464;2.7266137562037613;-0.0122361578464362;0.030637377106385488;5.660839317328976;1.0822549097487224;1.1712756896752154;6.993401697466285;3.0188687068491955;-0.9737942286122158;0.010620781037976432;0.00011280098985663975;0.034669113898235904;0.0907515040277353;0.0022499228366252037;0.12032221882328939;0;53.73050818;86.84760514
-4.882119725703947;2.4458921520506336;-0.0703579076170082;0.033842174918262906;6.8002465352340495;0.9436977058683995;0.8905653600612803;6.993401697466285;2.8862116661371884;-0.9737942286122158;0.010454688350403505;0.00010930050850406278;0.034669113898235904;0.0907515040277353;0.0018120738489596176;0.1172631793616804;0;53.73044587;86.84742763
-2.943615896785181;2.5184073201795787;-0.1040073416947078;0.03412433673792328;5.60366725429182;0.9287006472907845;0.8624848922783221;7.463689423254277;2.854614853331632;-0.9737942286122158;0.010973868995192178;0.0001204258007236402;0.03772815335984514;0.1152238197206077;0.0019529942170742574;0.1417354950545528;1;53.73037548;86.84726764
-5.294289126568535;2.0883943844366626;-0.1040073416947078;0.03546310312571971;6.993401697466285;0.9367630774994752;0.8775250633662878;7.728045307168425;2.965192188398688;-0.9737942286122158;0.011037376622908341;0.00012182368271592352;0.03772815335984514;0.1172631793616804;0.0013372560813328213;0.1254206179259712;1;53.73029759999999;86.84711552
-4.779899918600185;1.4124582051629182;-0.1070663811563169;0.058081087491576804;6.397700742890174;0.799695847228429;0.6395134480743949;7.728045307168425;2.1243780528766045;-0.9737942286122158;0.011747234736266822;0.00013799752394895383;0.03772815335984514;0.1172631793616804;0.0006397938363896338;0.0662791883348629;1;53.730209990000006;86.84697415
-4.122929248586807;1.3364404588863577;-0.1193025390027531;0.05992782060175004;5.697058063026025;0.8438750229805735;0.7121250544104635;7.728045307168425;2.211321639942999;-0.9737942286122158;0.019014590924356888;0.0003615546680206354;0.0683185479759355;0.1172631793616804;0.0005700123760269145;0.0662791883348629;1;53.730111699999995;86.84684258
-6.4734205004977925;1.1732891001983028;-0.0897318242071989;0.05821968472865923;7.463689423254277;0.7916999243016365;0.626788770139217;7.728045307168425;2.211321639942999;-0.9737942286122158;0.018735489471366645;0.00035101856573169037;0.0683185479759355;0.1172631793616804;0.0004321765904902885;0.0662791883348629;1;53.73000315;86.84671611
-6.770695079211812;1.5105130030391336;-0.0356887937187723;0.06648335454324802;7.728045307168425;1.1584371605571806;1.3419766549597831;7.728045307168425;3.8533773594124456;-0.9737942286122158;0.020091401617239196;0.0004036644189452018;0.0683185479759355;0.1172631793616804;0.0007063809631088296;0.0795350260018354;1;53.72988753;86.84661329000001
-6.148904854766185;1.6757515870889248;-0.2222902008769246;0.07596415058618894;7.213926039753202;1.4436862205797925;2.084229903491965;7.728045307168425;4.189920201619138;-0.9360660752523708;0.028631040579498473;0.0008197364846648882;0.10604670133578042;0.1172631793616804;0.000890543251034348;0.0856531049250536;1;53.729758360000005;86.84650715999999
-4.251436932544561;1.84132059590464;-0.0275313551544814;0.07533374225392805;5.516723667225426;1.6414525342632205;2.694366422239149;7.728045307168425;4.412800903512923;-0.9360660752523708;0.04235402975683404;0.0017938638366427836;0.1641684511063526;0.1172631793616804;0.0010469211902702684;0.0856531049250536;0;53.729619;86.84639596000001
-5.416314322620289;1.9351276181412183;-0.0249821556031405;0.0736196786557382;6.423617488212071;1.7922142786368074;3.2120320205496515;7.728045307168425;4.484498507822487;-0.9360660752523708;0.042202783667963796;0.0017810749493249514;0.1641684511063526;0.1172631793616804;0.0011573076566856954;0.0856531049250536;0;53.729470649999996;86.84628601
-2.114624278301415;1.9700563885750995;0.0112164780258998;0.07239335758199672;3.874667947755979;1.7913175688570389;3.208818632495892;7.728045307168425;4.484498507822487;-0.9360660752523708;0.04213155020387043;0.0017750675225812547;0.1641684511063526;0.1172631793616804;0.0011944266223154983;0.0856531049250536;0;53.7293145;86.84617082
-1.932436201164346;2.1296426414522536;0.0387478331803813;0.07179990981281507;3.538125105549286;1.99456624809142;3.9782945180254834;7.728045307168425;6.1633307983488566;-0.9360660752523708;0.0494670550902914;0.0024469895393059242;0.1641684511063526;0.1172631793616804;0.0013844836977332693;0.1065565412460488;0;53.72914675;86.84604659
-2.174739558540125;1.9533767177054435;-0.0387478331803813;0.07175766062704379;3.3152444036555018;1.8833100900026005;3.5468568951056034;7.213926039753202;5.649211530933634;-0.9360660752523708;0.05500731865907576;0.003025805106061104;0.1641684511063526;0.1111451004384623;0.0012096444740042195;0.1004384623228307;1;53.72896894;86.84591742
-2.453867073405525;1.7417459512632243;-0.0540430304884266;0.03805970012459198;3.2435467993459377;1.6991459356123062;2.8870969105078195;6.423617488212071;4.858902979392503;-0.8667278474558988;0.07241164746431855;0.005243446688496751;0.23350667890282462;0.0938105434893443;0.0009539360441100207;0.08310390537371269;1;53.72878548;86.8457826
-5.362952145425975;1.6611458809019568;0.0066279188334862;0.04089203552710691;5.6438246648892;1.60412276398876;2.5732098419469396;6.423617488212071;4.858902979392503;-0.8667278474558988;0.07195888593098032;0.005178081264427838;0.23350667890282462;0.0938105434893443;0.0008520408443419341;0.08310390537371269;1;53.72859502;86.8456459
-0.5594043372403845;1.2961038969611371;-0.0805547058223717;0.044560254456231393;1.5647145088195684;1.2118052029186486;1.4684718498207072;5.6438246648892;4.079110156069632;-0.8667278474558988;0.07212918474603115;0.005202619292127093;0.23350667890282462;0.0938105434893443;0.0005321453702400842;0.08310390537371269;1;53.72839709;86.84550684999999
-1.304836500656586;1.4553477411030402;-0.0428265524625267;0.04436173671952679;1.9865964199773412;1.2785380658584433;1.634659585849049;5.6438246648892;4.079110156069632;-0.8667278474558988;0.07186876293602067;0.0051651190859539385;0.23350667890282462;0.0938105434893443;0.0006760925572140481;0.08310390537371269;1;53.728196579999995;86.84537546
-1.0745342959322914;1.53714967993319;-0.0734169470786173;0.03940230273585773;1.808105258145142;1.3584241254955625;1.845316104728384;5.6438246648892;4.079110156069632;-0.8667278474558988;0.07229604633425198;0.005226718315564308;0.23350667890282462;0.0938105434893443;0.0007735977143617409;0.08310390537371269;1;53.72799975;86.84525799
-1.8829568124440603;2.063857077872936;-0.0759661466299582;0.040696063350365345;2.5018293027906156;1.3573923286274556;1.8425139338166663;5.6438246648892;4.079110156069632;-0.8667278474558988;0.07957105887313903;0.006331553410192557;0.27633323136535126;0.0938105434893443;0.001432312056808084;0.13153869684918928;0;53.727806099999995;86.84514881999999
-1.6139553331542535;2.0975661131787926;0.0224329560517997;0.041166007929650944;2.492657052517332;1.3948693274253199;1.9456604405919644;5.6438246648892;4.079110156069632;-0.8667278474558988;0.08044464935233968;0.0064713416094208855;0.27633323136535126;0.0938105434893443;0.0014661153849851159;0.13153869684918928;1;53.727615650000004;86.84503004999999
-4.134503167520315;1.8580919678834453;0.0091771183848271;0.03887359829798584;4.515887281389137;1.2058950881495218;1.454182963623143;4.55321497870289;2.9885004698833217;-0.8667278474558988;0.08047939573201342;0.0064769331373900185;0.27633323136535126;0.0734169470786173;0.0011766498378888372;0.1111451004384623;0;53.72743749;86.84490565000002
-3.888374311562618;2.006913217747244;-0.0749464668094218;0.03994302771379164;4.55321497870289;1.2961994180915206;1.6801329314607967;5.5866276467057965;3.7785223885606545;-0.8667278474558988;0.07495521411903257;0.005618284123630019;0.27633323136535126;0.0897318242071989;0.0014009319166300718;0.12745997756704391;1;53.72727989;86.84479669
1.890384113259192;2.231535669790794;-0.0081574385642908;0.04035007032186171;3.173136595003574;1.2204466634542401;1.489490058336587;5.5866276467057965;3.7785223885606545;-0.8667278474558988;0.07224159472833416;0.0052188480088928785;0.27633323136535126;0.0897318242071989;0.001686804560423869;0.12745997756704391;1;53.72714667;86.84470443000001
-3.2634796257841523;2.44778224126791;-0.0081574385642908;0.039343876025305036;4.158877797609942;1.0959989538518222;1.2012137068442885;5.5866276467057965;3.0939705941884643;-0.9584990313041704;0.05404506125913847;0.00292086864650403;0.18456204751707972;0.0897318242071989;0.001984807585142438;0.12745997756704391;1;53.72703686999999;86.84463047
-3.633950398018423;2.6952848862158403;-0.0448659121035994;0.04269771851616375;4.462647458351914;1.0494939459593722;1.1014375426053737;5.5866276467057965;3.0939705941884643;-0.9656367900479248;0.05199367302531644;0.0027033420346635182;0.17742428877332528;0.0897318242071989;0.0023694215296638805;0.12745997756704391;0;53.726952080000004;86.84456104
-4.951568274935802;2.695296262179293;-0.0887121443866625;0.037837045308418124;5.5866276467057965;1.003282499032182;1.0065757728642604;5.5866276467057965;2.897559679987898;-0.9656367900479248;0.05050589883690346;0.0025508458173235256;0.17742428877332528;0.0897318242071989;0.0023694215296638805;0.12745997756704391;0;53.72690351999999;86.84450992000001
0.8051628594889026;2.5597349229476247;-0.0193739165901906;0.03396046665666306;2.6890679667178983;0.9801654738377609;0.9607243561036023;5.5866276467057965;2.897559679987898;-0.9656367900479248;0.05081785241615746;0.0025824541241903608;0.17742428877332528;0.0897318242071989;0.002142387009727096;0.12745997756704391;0;53.726879225000005;86.84446770499999
1.1108101378188704;2.556472998980826;-0.0622004690527174;0.03317069288301445;2.7651896590275076;0.9588192076553315;0.9193342729687976;5.5866276467057965;2.897559679987898;-0.9656367900479248;0.04910593291714963;0.0024113926476636;0.17742428877332528;0.0897318242071989;0.002085778565411492;0.12745997756704391;0;53.726866345;86.844429225
1.6043473725341784;2.5313685514980437;-0.0999286224125624;0.035678109759548354;2.9588554071981212;0.9822738861560013;0.9648619874240131;5.5866276467057965;2.897559679987898;-0.9656367900479248;0.019864428386212885;0.0003945955151109802;0.06627918833486302;0.0897318242071989;0.0019868986317589914;0.1182828591822167;0;53.726860445;86.844392605
-1.581019398172174;2.471624607605117;-0.0214132762312633;0.033485956865505054;2.894577833765478;0.9850179098637954;0.9702602827524404;5.5866276467057965;3.0876545959443096;-0.9768532680738248;0.01738081402011384;0.0003020926960017858;0.05506271030896304;0.0897318242071989;0.0019256228789732857;0.1182828591822167;0;53.726860645;86.844367205
-2.206439207404112;2.361752128496407;-0.0683185479759355;0.033771779236195044;3.227015792680459;0.8919058976622596;0.795496130284721;5.5866276467057965;3.0876545959443096;-0.9768532680738248;0.017245690325062242;0.0002974138347879454;0.05506271030896304;0.0897318242071989;0.0017682167455446945;0.136637095951871;0;53.726857935;86.844359375
1.5854969898242264;1.6110916023764426;-0.0305903946160905;0.031658645513088016;2.771538350062555;0.2593599243921453;0.06726757038069932;3.3175572461158223;0.8185841953543354;-0.9768532680738248;0.013726386910657353;0.00018841369762106553;0.040787192821454155;0.0387478331803813;0.0007920676634126702;0.0856531049250534;0;53.726850215;86.844354215
1.6740652513791296;1.6110916023764426;0.0091771183848271;0.031658645513088016;2.7511564319940014;0.2593599243921453;0.06726757038069932;3.3175572461158223;0.8185841953543354;-0.9768532680738248;0.013726386910657353;0.00018841369762106553;0.040787192821454155;0.0387478331803813;0.0007920676634126702;0.0856531049250534;0;53.726850215;86.844354215
1.3763710785556391;1.6110916023764426;-0.0428265524625267;0.031658645513088016;2.498973050761487;0.2593599243921453;0.06726757038069932;3.3175572461158223;0.8185841953543354;-0.9768532680738248;0.013726386910657353;0.00018841369762106553;0.040787192821454155;0.0387478331803813;0.0007920676634126702;0.0856531049250534;0;53.726850215;86.844354215
2.660797320519064;1.6110916023764426;-0.061180789232181;0.031658645513088016;3.3175572461158223;0.2593599243921453;0.06726757038069932;3.3175572461158223;0.8185841953543354;-0.9768532680738248;0.013726386910657353;0.00018841369762106553;0.040787192821454155;0.0387478331803813;0.0007920676634126702;0.0856531049250534;0;53.726850215;86.844354215
2.524775674047808;1.6110916023764426;-0.0193739165901906;0.031658645513088016;3.1418693690437878;0.2593599243921453;0.06726757038069932;3.3175572461158223;0.8185841953543354;-0.9768532680738248;0.013726386910657353;0.00018841369762106553;0.040787192821454155;0.0387478331803813;0.0007920676634126702;0.0856531049250534;0;53.726850215;86.844354215
-10.182114886680072;4.7216683885936925;0.1916998062608341;0.07818048187340798;11.426823988225793;2.602221988763061;6.771559278801979;11.426823988225793;9.467912519818674;-0.99214846538187;0.024266094624386052;0.0005888433483196576;0.08667278474559015;0.1967982053635158;0.007590617633721478;0.284490669929642;1;53.72729402;86.85425466000001
-4.846271404297283;4.7216683885936925;-0.0091771183848271;0.07818048187340798;5.686874122915207;2.602221988763061;6.771559278801979;11.426823988225793;9.467912519818674;-0.99214846538187;0.024266094624386052;0.0005888433483196576;0.08667278474559015;0.1967982053635158;0.007590617633721478;0.284490669929642;1;53.72729402;86.85425466000001
4.882207494917875;4.7216683885936925;-0.0152951973080452;0.07818048187340798;5.002881447131633;2.602221988763061;6.771559278801979;11.426823988225793;9.467912519818674;-0.99214846538187;0.024266094624386052;0.0005888433483196576;0.08667278474559015;0.1967982053635158;0.007590617633721478;0.284490669929642;1;53.72729402;86.85425466000001
5.005424959004396;4.7216683885936925;-0.0290608748852859;0.07818048187340798;5.02936752257208;2.602221988763061;6.771559278801979;11.426823988225793;9.467912519818674;-0.99214846538187;0.024266094624386052;0.0005888433483196576;0.08667278474559015;0.1967982053635158;0.007590617633721478;0.284490669929642;1;53.72729402;86.85425466000001
0.7937568183984477;4.7216683885936925;-0.0560823901294993;0.07818048187340798;1.9589114684071205;2.602221988763061;6.771559278801979;11.426823988225793;9.467912519818674;-0.99214846538187;0.024266094624386052;0.0005888433483196576;0.08667278474559015;0.1967982053635158;0.007590617633721478;0.284490669929642;1;53.72729402;86.85425466000001
-0.3353501919274937;4.7216683885936925;-0.0152951973080452;0.07818048187340798;2.851341260604438;2.602221988763061;6.771559278801979;11.426823988225793;9.467912519818674;-0.99214846538187;0.024266094624386052;0.0005888433483196576;0.08667278474559015;0.1967982053635158;0.007590617633721478;0.284490669929642;1;53.72729402;86.85425466000001
0.4547868986247844;3.6374645029694395;-0.0897318242071989;0.03647524602740733;3.6646924771946114;1.50322941518374;2.259698674673649;7.1055714528023355;5.146659984395215;-0.99214846538187;0.015770828130849086;0.0002487190199327809;0.053023350667890545;0.1040073416947078;0.004170335428172707;0.191699806260834;0;53.72717554;86.85423858
-5.714277181381771;3.434880278773142;-0.0703579076170082;0.03455689454177877;7.1055714528023355;1.498943161514076;2.246830601449813;7.1055714528023355;5.146659984395215;-0.974813908432752;0.019676855786208654;0.0003871786536312529;0.07035790761700855;0.1040073416947078;0.003735695215080314;0.191699806260834;1;53.72705336;86.85417272000001
-2.9268471566195777;2.8816504026781;-0.0456306719690017;0.03159454928809491;5.465310683204972;1.5016117107346745;2.254837729815516;7.1055714528023355;5.146659984395215;-0.974813908432752;0.021259230648580315;0.00045195488776953667;0.07035790761700855;0.1040073416947078;0.0026295893186408974;0.191699806260834;0;53.72693491;86.85406451
-2.388401222846634;1.972086622516656;-0.0448659121035994;0.029729989296537054;5.392514556190469;1.4991071851205169;2.2473223524799595;7.1055714528023355;5.146659984395215;-0.974813908432752;0.02064701266802643;0.00042629913211364386;0.07035790761700855;0.1040073416947078;0.0012623567554942172;0.11828285918221669;0;53.72684595;86.85389362999999
-1.9351222397354264;1.7828694057896657;-0.1233812582848985;0.02983143222420134;5.271422660518395;1.1876885349225954;1.4106040559865811;7.1055714528023355;4.254230192197897;-0.974813908432752;0.02175907700367051;0.00047345743205166283;0.07035790761700855;0.1040073416947078;0.0010351518325873;0.11216478025899859;0;53.726790140000006;86.85368678
-2.8646139587222144;1.995346804403346;-0.0805547058223717;0.023694014096152634;5.623624676706146;1.0312702621823977;1.0635183536617512;7.1055714528023355;3.440878975607724;-0.974813908432752;0.019921414133277002;0.00039686274106952866;0.06729886815539932;0.1040073416947078;0.0012910220008938275;0.1264402977465075;0;53.72676976;86.8534488
-0.1759680166792474;2.004082019516607;-0.07545630671969;0.02888644180881558;4.29754274874712;1.0660525018182865;1.1364679366330277;7.1055714528023355;3.6777090298731263;-0.974813908432752;0.020504398023224207;0.0004204303382948008;0.06729886815539932;0.1040073416947078;0.0012999407190594692;0.1264402977465075;1;53.72678745;86.85317977
-0.965880801976734;1.613700461453472;-0.0836137452839808;0.029007966859303614;4.329303394851988;0.8661633575286367;0.750238961925281;5.623624676706146;2.371317335056716;-0.974813908432752;0.01959397019705564;0.00038392366808310467;0.06729886815539932;0.0520036708473538;0.0008106820217603236;0.07443662689915351;0;53.72685863;86.85287719
-1.9308261971920695;1.4743086431135395;-0.0540430304884266;0.028057206676448784;4.421653119587377;0.9116265719490421;0.8310630066835619;5.623624676706146;2.5614980769983378;-0.974813908432752;0.019945755727560445;0.00039783317154351024;0.06729886815539932;0.0489446313857448;0.000675168337715012;0.07137758743754449;0;53.72696555;86.85256939
1.261931632354429;1.4394115080936019;-0.0876924645661262;0.028260291272127074;3.870679804175085;0.9411804727983508;0.8858206823769271;5.623624676706146;2.877184570118445;-0.974813908432752;0.019540242289255536;0.00038182106872281044;0.06729886815539932;0.0489446313857448;0.0006408566888135133;0.07137758743754449;0;53.727104350000005;86.85227043
0.5260720816929672;1.5238646457487601;-0.0193739165901906;0.021390672188324116;3.427862422929209;0.8428882503836094;0.7104606026347421;5.623624676706146;2.877184570118445;-0.974813908432752;0.01936564110492957;0.0003750280554049378;0.06729886815539932;0.0489446313857448;0.0007155798353101103;0.07137758743754449;0;53.727271810000005;86.85198477
1.1121157311846055;1.9174528858382922;-0.0596512695013765;0.02090889324461545;3.2523073416494297;0.6390470917725583;0.40838118550296443;4.576918463925295;1.830478357337594;-0.9554399918425616;0.023698203872269907;0.0005616048667716684;0.0866727847455897;0.0458855919241358;0.0010982067079086388;0.1142041399000713;0;53.72745982;86.85171965999999
-1.1965589047170984;2.206901002240664;-0.0632201488732537;0.034115237033139144;3.062126599707808;0.6258802872294065;0.39172613394236433;4.576918463925295;1.830478357337594;-0.9554399918425616;0.023904491187826317;0.000571424698948866;0.0866727847455897;0.0458855919241358;0.001492409429732521;0.1142041399000713;0;53.72766226;86.85147154
0.6869108243424763;2.536471581895098;-0.0428265524625267;0.03288899944302773;2.7464401065877007;0.7881250410945413;0.6211410804002724;5.320327832609041;2.5738877260213404;-0.9554399918425616;0.025080864911589503;0.0006290497847134015;0.0866727847455897;0.0458855919241358;0.001952185525012601;0.1294993372081166;0;53.72785476;86.8512698
-2.602564854257569;2.4317189734049096;-0.078515346181299;0.0340627075739514;3.507528417340101;0.7911332235084781;0.6258917773389157;5.320327832609041;2.5738877260213404;-0.9554399918425616;0.021894047852281093;0.0004793493313579744;0.07239726725808082;0.0458855919241358;0.0017895315577410784;0.1294993372081166;0;53.728042349999996;86.85107339000001
4.083937907792318;2.565552039081235;-0.0520036708473539;0.03001514534952577;4.576918463925295;0.8671616946751024;0.7519694047117955;5.320327832609041;2.5738877260213404;-0.9554399918425616;0.02221307212500577;0.0004934205732307083;0.07239726725808082;0.0458855919241358;0.001988238750032585;0.1294993372081166;1;53.7282318;86.85087884000001
3.5751483630893923;2.5338550481572977;0.0265116753339451;0.029785251137183368;4.140651676256506;0.9303543744501719;0.8655592620585707;5.320327832609041;2.5738877260213404;-0.9554399918425616;0.024132482259650985;0.0005823767000123695;0.07239726725808082;0.0458855919241358;0.0019416003235627696;0.1294993372081166;0;53.7284226;86.85068820000001
4.87029306341261;2.5163151039145895;-0.0265116753339451;0.030430605104949385;5.320327832609041;0.9088988536180482;0.8260971261082022;5.320327832609041;2.5738877260213404;-0.9554399918425616;0.024461986894630406;0.0005983888028330697;0.07239726725808082;0.0458855919241358;0.0019166463970889526;0.1294993372081166;0;53.72860266;86.8505201
3.752244239872162;2.2379964565411092;-0.0152951973080452;0.029470138500501456;4.4569943100658715;0.858103890155086;0.736342286299292;5.320327832609041;2.5738877260213404;-0.9554399918425616;0.02409265565200208;0.0005804560563659476;0.07239726725808082;0.0458855919241358;0.0015124967629067576;0.1294993372081166;0;53.728782530000004;86.85036461
4.259665057567805;2.2267006137996908;-0.0367084735393086;0.032166368802028576;4.955847742280511;0.8258072730582116;0.6819576522358396;5.320327832609041;2.5288529089754292;-0.9554399918425616;0.022936123012575936;0.0005260657388480155;0.07239726725808082;0.0458855919241358;0.001498910736271013;0.1294993372081166;0;53.72896952999999;86.85021112999999
1.2016555902908488;1.3630276212512384;-0.0540430304884266;0.02983248508909695;2.791474923633612;0.8230084800146114;0.6773429581759609;5.320327832609041;2.5288529089754292;-0.9554399918425616;0.0231039936895909;0.0005337945244086561;0.07239726725808082;-0.0142755174875089;0.0005469646522698422;0.0693382277964719;0;53.729159589999995;86.85006582999999
2.248689524859717;1.3094927763779005;-0.0672988681553992;0.03182769760218068;3.6452389361927637;0.8002643629532125;0.640423050612911;5.320327832609041;2.5288529089754292;-0.9707351891506067;0.01853711978003719;0.00034362480973944596;0.05710206995003564;-0.0142755174875089;0.0005153563454030074;0.0693382277964719;0;53.729351269999995;86.84992215
2.746684392148982;1.5614419745290418;-0.0326297542571632;0.02207710817922829;3.90717894789815;0.8079900421427586;0.6528479082018569;5.320327832609041;2.5288529089754292;-0.9707351891506067;0.016367546381105897;0.0002678965745376528;0.048944631385744786;0.0020393596410727;0.0007308727798331271;0.0856531049250535;0;53.72954055;86.84978119
0.817599182016765;1.5408114464600942;-0.078515346181299;0.022593061530355188;2.9567278180743544;0.6386430604056602;0.40786495860430777;4.955847742280511;2.1643728186468993;-0.9707351891506067;0.015102892847420415;0.00022809737236066273;0.048944631385744786;0.0076475986540226;0.0007282878534217768;0.08106454573263991;0;53.72972557000001;86.84962829
2.021980098493114;1.501417851385941;-0.0530233506678902;0.01742959980410475;3.549089075292648;0.595741248635625;0.3549076353259336;4.955847742280511;2.1643728186468993;-0.9707351891506067;0.014889110100544597;0.00022168559958613915;0.048944631385744786;0.0076475986540226;0.0006878763558266788;0.08106454573263991;0;53.72990444;86.84947179999999
2.4652913362738507;1.3254815837611964;-0.07545630671969;0.02262806123393042;3.964391828593941;0.45019114223400536;0.20267206454595843;4.199066603382457;1.4075916797488452;-0.9707351891506067;0.013972879773695062;0.00019524136917013657;0.048944631385744786;0.0152951973080452;0.0005511842919201028;0.06423982869379;0;53.73006893;86.84929580999999
-0.1160602118090028;1.3810096832665548;-0.0693382277964719;0.02258308819246469;3.5488073982620363;0.35197760216952373;0.1238882324290075;4.199066603382457;1.2423387853081027;-0.9855205465483838;0.010641563903139984;0.00011324288230461188;0.0341592739879677;0.0152951973080452;0.0005985938640344206;0.06423982869379;0;53.73020893;86.84909533
-0.4391398259220352;1.7531150036169352;-0.0846334251045171;0.02327313553019203;3.837253669731681;0.5119229903150132;0.2620651480130651;4.952593226263054;1.9958654081886995;-0.9855205465483838;0.010940261117100787;0.00011968931331034736;0.0341592739879677;0.0530233506678902;0.0009528818562439339;0.101967982053635;0;53.73032436;86.84888308
-0.0585668362088729;2.7105389610643824;-0.0683185479759355;0.024002578558651854;3.944664139064388;1.3621733130162341;1.8555161346936235;7.878471440605584;4.921743622531229;-0.9855205465483838;0.01882660527190279;0.000354441066064038;0.06678902824513111;0.1294993372081166;0.002430766598912016;0.17334556949117969;0;53.730411319999995;86.84865004
-0.8706354383071115;3.352073220913311;-0.0112164780258998;0.024002578558651854;4.199066603382457;1.700799178603064;2.8927178459368577;7.97646590579445;4.4276585075324135;-0.9855205465483838;0.01861679887419642;0.00034658520032228106;0.06678902824513111;0.1294993372081166;0.0036373351548960268;0.17334556949117969;0;53.73046810999999;86.84841755
-0.2663349130625857;3.1784687046563835;-0.0560823901294993;0.025530713942912606;4.026924357261756;1.6444756464664734;2.704300151821325;7.97646590579445;4.4276585075324135;-0.9855205465483838;0.021365273196404064;0.00045647489875698193;0.06678902824513111;0.1294993372081166;0.0032885347159620063;0.17334556949117969;0;53.73049615;86.84818191000001
-3.049629460204085;2.800202886087416;-0.078515346181299;0.028547797712693834;4.952593226263054;1.6107788915814938;2.5946086375645057;7.97646590579445;4.4276585075324135;-0.979912307535434;0.023058257967387037;0.0005316832604905678;0.07239726725808093;0.1294993372081166;0.0025510075557358585;0.1284796573875803;0;53.730494369999995;86.84794205
-7.013284402690842;2.8836654534329313;-0.0275313551544814;0.028559328784793704;7.878471440605584;1.6493176024890988;2.720248553880389;7.97646590579445;4.13921223606277;-0.979912307535434;0.02444167070540839;0.0005973952668716187;0.07239726725808093;0.1294993372081166;0.0026504882320627305;0.1284796573875803;1;53.73046435;86.84769954999999
-7.260435573474362;2.8251572987259377;-0.078515346181299;0.028913712107715022;7.97646590579445;1.6098932026293886;2.5917561238723095;7.97646590579445;4.031801766730062;-0.9584990313041704;0.028190709993091347;0.0007947161299145804;0.09381054348934459;0.1294993372081166;0.0024927384045079375;0.1284796573875803;0;53.73040411000001;86.84746267
-3.747915059967645;2.5307160261254484;-0.0897318242071989;0.029157415161957124;5.025736815196857;1.6200876175978383;2.6246838886938395;7.97646590579445;4.111982172354571;-0.9584990313041704;0.03218634065327954;0.0010359605246489552;0.09381054348934459;0.1294993372081166;0.0019931053433321776;0.1249107780157031;0;53.73031096;86.84723128
-4.083493435361895;2.401661570096864;-0.1050270215152442;0.031282924564240054;5.302552811793843;1.731495969280673;2.9980782916352173;7.97646590579445;4.643791004443009;-0.9584990313041704;0.03413284170964977;0.0011650508831760069;0.09381054348934459;0.1294993372081166;0.001807337224027095;0.1249107780157031;0;53.73019323;86.84702139000001
-6.571963744392219;2.034035733559282;-0.0703579076170082;0.03755182356942419;7.265609149029073;1.754364624589743;3.07779523601191;7.97646590579445;4.643791004443009;-0.9584990313041704;0.03519561612687381;0.00123873139455026;0.09381054348934459;0.1294993372081166;0.0012914119059949916;0.0978892627714898;0;53.73006007;86.84683447
-6.3077682100246415;2.0100834390524143;-0.040787192821454;0.038517721941491674;6.99393869326303;1.8353290389370929;3.368432681165753;7.97646590579445;4.643791004443009;-0.9584990313041704;0.03510358753827089;0.0012322618580570476;0.09381054348934459;0.1294993372081166;0.001253484248303537;0.0978892627714898;1;53.729905859999995;86.84665978000001
-2.7192989547501103;2.136926127180113;-0.07545630671969;0.03931332611210983;3.864483733439879;1.9481023883714508;3.795102915578551;7.97646590579445;6.033767767942419;-0.9584990313041704;0.031616469630873;0.000999601151919915;0.09075150402773535;0.1284796573875803;0.0013483091689040416;0.1152238197206078;0;53.729738639999994;86.8465028
-1.868987527313688;1.801099484370056;-0.0010196798205363;0.04061177054739743;3.3326749013514414;1.6297048063945092;2.6559377559853647;7.265609149029073;5.322911011177042;-0.9584990313041704;0.04671523618783502;0.0021823132920852106;0.15397165290098935;0.113184460079535;0.000947047720656314;0.0999286224125625;0;53.729559040000005;86.8463488
-2.8201601739645863;1.8262533828307173;0.003059039461609;0.04322448297278557;3.81937817614269;1.6253396807457363;2.641729077806652;7.265609149029073;5.322911011177042;-0.9584990313041704;0.04654689155406012;0.002166613113345433;0.15397165290098935;0.113184460079535;0.000983612154586699;0.0999286224125625;1;53.72936802;86.84619617999999
-3.3726861207546146;2.055293458513044;-0.0173345569491179;0.0449739299331038;3.8490748434733435;1.8640481236869293;3.4746754074207615;7.265609149029073;5.77456587100599;-0.8677475272764352;0.06543108838409059;0.004281227327126675;0.24472315692872448;0.113184460079535;0.0012869294414246928;0.10298766187417151;0;53.729168900000005;86.84603802
-0.7575690480116225;1.7278479601586658;-0.0173345569491179;0.04588445893256972;1.9426981378520314;1.518981222857542;2.3073039553937935;6.99393869326303;5.502895415239946;-0.8677475272764352;0.06537482871385322;0.004273868229365648;0.24472315692872448;0.1060467013357805;0.0009438129524097069;0.095849903130417;1;53.72895694;86.8458747
-4.127623224451474;1.5099818773950466;-0.0917711838482716;0.04593277506454429;4.491121886994849;1.1894009752285406;1.4146746798746033;4.8462553756202125;3.355212097597129;-0.8677475272764352;0.06344825163583949;0.004025680635644808;0.24472315692872448;0.0836137452839808;0.0008145724082140623;0.0785153461812991;1;53.72872047;86.84570223
-4.588524156521656;1.535397259262687;-0.1101254206179259;0.04406582258628925;4.8462553756202125;1.2060386901352553;1.4545293221031623;4.8462553756202125;3.355212097597129;-0.8677475272764352;0.06242979928195808;0.0038974798383855738;0.24472315692872448;0.0836137452839808;0.0008406960499913395;0.0785153461812991;1;53.72848326;86.84553925999998
-0.6729991861022545;1.5264361629541927;0.023452635872336;0.04370451279497169;1.4910432780230836;1.2046561412474077;1.451196418645094;4.8462553756202125;3.355212097597129;-0.8677475272764352;0.06842288824696378;0.004681691636056495;0.24472315692872448;0.0836137452839808;0.0008276645550550126;0.0785153461812991;0;53.72824478;86.84538525999999
-3.456131675247352;2.4029022948932885;0.0081574385642908;0.04396661058053581;3.7621279628170328;1.2217858714479672;1.4927607156698688;4.8462553756202125;3.355212097597129;-0.8677475272764352;0.06786333306464369;0.0046054319746427624;0.24472315692872448;0.0836137452839808;0.0018938672746237964;0.1447945345161618;0;53.72801482;86.84524746
-0.2814479937998737;2.511655445390393;-0.0428265524625267;0.043785457295284276;1.6557397565435317;1.2192521821355142;1.4865758836422134;4.8462553756202125;3.355212097597129;-0.8677475272764352;0.07009395415860505;0.004913162409588626;0.24472315692872448;0.0836137452839808;0.002081807309751599;0.1447945345161618;1;53.727792369999996;86.84511461
-1.5149513801425143;2.5891776510185047;-0.0020393596410727;0.05312783027791011;2.3577058928258254;1.1937725240196748;1.425092839104305;4.8462553756202125;3.355212097597129;-0.8677475272764352;0.07189116366613411;0.005168339413270881;0.24472315692872448;0.0836137452839808;0.0021799132095736613;0.1447945345161618;0;53.7275808;86.84497984
-2.48078001868636;2.499808968090439;-0.0469052717446721;0.05066815830652473;3.059253693481217;1.122913836440516;1.260935484069558;4.8462553756202125;3.355212097597129;-0.8677475272764352;0.06093870280738948;0.0037135254998473385;0.19271948608137035;0.0836137452839808;0.0019411179965117176;0.1447945345161618;1;53.727389589999994;86.84484239000001
3.524993006963204;2.37530836526565;0.0061180789232181;0.04302785726081911;4.053916047951235;1.0053715314101546;1.0107719161699995;4.053916047951235;2.5628727699281515;-0.8677475272764352;0.05960026370367724;0.0035521914335478666;0.19271948608137035;0.0632201488732537;0.0017190742618696962;0.1244009381054347;0;53.72722276;86.84471651999999
1.3213108873530832;2.5291017264776583;-0.0336494340776996;0.03977245131451227;2.338504861072321;0.8613355691336149;0.7418989626547282;4.053916047951235;2.3981762914077036;-0.91669215866218;0.04209245764523578;0.0017717749906159684;0.14377485469562556;0.0632201488732537;0.0019410024690743376;0.1244009381054347;1;53.727078770000006;86.84462117000001
-3.442972959657297;2.404838868972332;-0.1284796573875803;0.04006417620444493;3.991854092872189;0.8350276268364902;0.6972711375801808;4.053916047951235;2.3981762914077036;-0.91669215866218;0.04096017158886958;0.0016777356565896389;0.14377485469562556;0.0632201488732537;0.0017331686092299072;0.1244009381054347;0;53.726965529999994;86.84455145
-3.162994980470452;2.4404501930089717;-0.0132558376669725;0.04153657123324873;3.6953234545714206;0.6846242279254068;0.46871033346245927;4.053916047951235;1.7154111868789141;-0.91669215866218;0.038772273935734985;0.0015032892261476745;0.14377485469562556;0.0632201488732537;0.0017839313652141442;0.1244009381054347;0;53.72689518;86.84450414
-3.557501024951662;2.4533548753116907;-0.023452635872336;0.04011907040678962;4.008794750393359;0.6492791965930506;0.42156347512851716;4.053916047951235;1.7154111868789141;-0.91669215866218;0.03903019782194768;0.0015233563420203693;0.14377485469562556;0.0632201488732537;0.0017978495332323528;0.1244009381054347;0;53.72684492999999;86.84446413
1.404149192382358;2.8639461860753825;-0.0152951973080452;0.04019502032588792;2.685689067786929;0.8962519502207387;0.8032675582744774;5.214215785920033;2.8757109248477124;-0.9574793514836342;0.028433651885054503;0.0008084725595204636;0.10298766187417141;0.0632201488732537;0.0024652284334821042;0.14173549505455268;0;53.72681477;86.84443141
-1.5029976245663748;2.631855215592478;-0.0774956663607627;0.037916614322965704;3.093260714813098;0.8938022566569611;0.7988824740050763;5.214215785920033;2.8757109248477124;-0.9574793514836342;0.028798609692110955;0.000829359920198547;0.10298766187417141;0.0632201488732537;0.002081804421565662;0.14173549505455268;0;53.726800090000005;86.84439881
0.4739966897243302;2.621009711557564;-0.0020393596410727;0.03786737521256515;2.735907035637463;0.8344873100485558;0.6963690706320744;5.214215785920033;2.5576122690753236;-0.9574793514836342;0.022180217296812278;0.0004919620393338106;0.06933822779647181;0.0632201488732537;0.002062037677030153;0.14173549505455268;0;53.7268107;86.84437102
0.2278134444629791;2.422685741225954;-0.0458855919241358;0.02572455469098363;2.6566035168447097;0.8807296080506957;0.7756846424971321;5.214215785920033;3.0132082333000216;-0.9778729478943612;0.017561746354287745;0.00030841493501233895;0.048944631385744786;0.0632201488732537;0.0017814446371245654;0.14173549505455268;0;53.72683836;86.84437052000001
4.541981446273216;2.2389353034033657;-0.0244723156928724;0.026708129138808965;5.214215785920033;0.905725185189365;0.8203381110863095;5.214215785920033;3.0132082333000216;-0.9850107066381156;0.01538190755198099;0.00023660307993768982;0.041806872641990345;0.0632201488732537;0.001539703474409462;0.14173549505455268;0;53.72685997;86.84438700999999
1.2430486494905564;1.8882101474861392;-0.0601611094116447;0.02767177998774767;2.7394789430711275;0.8466402398206819;0.7167996956836219;5.214215785920033;3.0132082333000216;-0.9850107066381156;0.024136311729678155;0.0005825615439121993;0.07851534618129918;0.0356887937187723;0.0011021433053373228;0.1142041399000713;0;53.72686976999999;86.84439937
-1.9881637867495952;1.9128890497878515;-0.0509839910268175;0.026205088065549872;3.031628470092933;0.8642997702303788;0.7470140928202857;5.214215785920033;3.0132082333000216;-0.9850107066381156;0.024382989694142165;0.000594530186424643;0.07851534618129918;0.0356887937187723;0.001134895333834208;0.1142041399000713;0;53.72687158;86.84439861999999
-0.634864543219349;1.7990481170937858;-0.0672988681553992;0.03131522152957025;2.2010075526200117;0.8630713028891456;0.7448920738707673;5.214215785920033;3.0132082333000216;-0.9850107066381156;0.025346616489175862;0.0006424509674493618;0.07851534618129918;0.0356887937187723;0.0009997744430759834;0.1142041399000713;0;53.72686487000001;86.84438935
1.2820757461257395;1.9665647277315912;-0.0050983991026817;0.029975474727569475;2.2905033147394143;0.9269580900871162;0.8592513007779542;5.214215785920033;3.0132082333000216;-0.9656367900479248;0.028182512665926057;0.0007942540201650826;0.09788926277149002;0.0356887937187723;0.0011705702064967762;0.1142041399000713;0;53.726852910000005;86.84437994999999
2.1372715471486083;1.9665647277315912;-0.0662791883348628;0.029975474727569475;2.7106138197607916;0.9269580900871162;0.8592513007779542;5.214215785920033;3.0132082333000216;-0.9656367900479248;0.028182512665926057;0.0007942540201650826;0.09788926277149002;0.0356887937187723;0.0011705702064967762;0.1142041399000713;0;53.726852910000005;86.84437994999999
1.874544888695188;1.9665647277315912;-0.0520036708473539;0.029975474727569475;2.3477128882524094;0.9269580900871162;0.8592513007779542;5.214215785920033;3.0132082333000216;-0.9656367900479248;0.028182512665926057;0.0007942540201650826;0.09788926277149002;0.0356887937187723;0.0011705702064967762;0.1142041399000713;0;53.726852910000005;86.84437994999999
2.4760557376617083;1.9665647277315912;0.023452635872336;0.029975474727569475;2.7262654504346595;0.9269580900871162;0.8592513007779542;5.214215785920033;3.0132082333000216;-0.9656367900479248;0.028182512665926057;0.0007942540201650826;0.09788926277149002;0.0356887937187723;0.0011705702064967762;0.1142041399000713;0;53.726852910000005;86.84437994999999
3.865758851044792;1.9665647277315912;-0.0158050372183134;0.029975474727569475;3.9588047199727288;0.9269580900871162;0.8592513007779542;5.214215785920033;3.0132082333000216;-0.9656367900479248;0.028182512665926057;0.0007942540201650826;0.09788926277149002;0.0356887937187723;0.0011705702064967762;0.1142041399000713;0;53.726852910000005;86.84437994999999
-3.63055259962468;3.4888312717442465;0.0632201488732537;0.05070135109431212;3.644426852367228;1.59351559452914;2.5392919500075584;7.726317054474748;5.478292740469836;-0.9299479963291526;0.04697123362319801;0.002206296788085047;0.1325583766697258;0.1009483022330988;0.00374889133661491;0.171306209850107;1;53.72733065;86.85428617
-3.1259486383132065;3.4888312717442465;-0.0968695829509534;0.05070135109431212;3.30848455573765;1.59351559452914;2.5392919500075584;7.726317054474748;5.478292740469836;-0.9299479963291526;0.04697123362319801;0.002206296788085047;0.1325583766697258;0.1009483022330988;0.00374889133661491;0.171306209850107;1;53.72733065;86.85428617
0.0549256395927458;3.4888312717442465;-0.0499643112062812;0.05070135109431212;2.2480243140049114;1.59351559452914;2.5392919500075584;7.726317054474748;5.478292740469836;-0.9299479963291526;0.04697123362319801;0.002206296788085047;0.1325583766697258;0.1009483022330988;0.00374889133661491;0.171306209850107;1;53.72733065;86.85428617
3.952794958179902;3.4888312717442465;-0.0795350260018354;0.05070135109431212;5.090291073038451;1.59351559452914;2.5392919500075584;7.726317054474748;5.478292740469836;-0.9299479963291526;0.04697123362319801;0.002206296788085047;0.1325583766697258;0.1009483022330988;0.00374889133661491;0.171306209850107;0;53.72733065;86.85428617
3.278972058289317;3.4888312717442465;-0.0632201488732537;0.05070135109431212;5.151953058190022;1.59351559452914;2.5392919500075584;7.726317054474748;5.478292740469836;-0.9299479963291526;0.04697123362319801;0.002206296788085047;0.1325583766697258;0.1009483022330988;0.00374889133661491;0.171306209850107;0;53.72733065;86.85428617
4.292620878596748;3.4888312717442465;-0.0489446313857448;0.05070135109431212;6.2651980329016235;1.59351559452914;2.5392919500075584;7.726317054474748;5.478292740469836;-0.9299479963291526;0.04697123362319801;0.002206296788085047;0.1325583766697258;0.1009483022330988;0.00374889133661491;0.171306209850107;0;53.72733065;86.85428617
1.1313201378803306;3.343658738311908;-0.0545528703986948;0.02566638738909763;5.118671116065661;1.5307790396776253;2.343284468316353;7.726317054474748;5.478292740469836;-0.9360660752523708;0.040026095120483725;0.0016020882905940113;0.12644029774650756;0.1009483022330988;0.003506560983969176;0.171306209850107;1;53.7272256;86.85429631999999
1.7190092389178222;3.470779564664531;-0.133578056490262;0.02947881056198061;5.54887410228777;1.430262184126211;2.04564991534148;7.726317054474748;5.478292740469836;-0.9360660752523708;0.04058573339106278;0.001647201754890428;0.12644029774650756;0.1009483022330988;0.003708895737794377;0.171306209850107;1;53.72711136;86.85426912
-2.781344228657689;3.476346753533756;-0.0825940654634444;0.028415616366950835;6.097880029091291;0.9163634057603361;0.8397218914166825;7.726317054474748;3.048245549178679;-0.9360660752523708;0.03501478158124566;0.00122603492918234;0.11726317936168029;0.1009483022330988;0.0037179068779099223;0.171306209850107;1;53.726993330000006;86.85419716999999
-5.463617226037727;3.256994827149802;-0.0662791883348628;0.03413013388892876;7.726317054474748;0.8929111911300945;0.7972903952453643;7.726317054474748;3.048245549178679;-0.9360660752523708;0.03695766956107509;0.0013658693393856162;0.11726317936168029;0.1009483022330988;0.0032517623326443357;0.171306209850107;1;53.72688094;86.85408222000001
-2.0778403307222155;2.989833586268819;-0.0734169470786173;0.03571310399346013;5.786057245215912;0.9537452831720543;0.9096300651729421;7.726317054474748;3.111824279126699;-0.9360660752523708;0.03595245100285256;0.001292578733112514;0.11726317936168029;0.1009483022330988;0.0027495414568712907;0.171306209850107;1;53.72678538;86.85393289999999
-4.179974639520418;2.406826678091182;-0.1244009381054349;0.034438460481219534;6.713756233262598;1.0373485389260717;1.076091991212056;7.726317054474748;3.3725663296187287;-0.968695829509534;0.0285137842682608;0.000813035893296917;0.0846334251045171;0.1009483022330988;0.0018732080806345341;0.13153869684918928;1;53.72671676;86.8537414
-0.639961947904787;2.264983412468272;-0.0989089425920261;0.0358939205770549;4.678071505296069;1.1276946552738232;1.271695235533147;7.726317054474748;3.566059561069098;-0.968695829509534;0.02887792940497531;0.0008339348067187378;0.0846334251045171;0.1009483022330988;0.001663967674240018;0.13153869684918928;1;53.72668069;86.85351589
-2.8216572609315573;2.0171127623850307;-0.1427551748750892;0.03219921480427977;5.420057623361785;1.2400189102781876;1.5376468978475035;7.726317054474748;3.8520660984193738;-0.968695829509534;0.02900268942014506;0.0008411559936013942;0.0846334251045171;0.1009483022330988;0.0013257813186151734;0.11216478025899859;1;53.72668166;86.85326598
0.6397456335075193;2.111647851271848;-0.0479249515652085;0.0324444108964937;4.614492775348049;1.339193072846962;1.7934380863612884;7.726317054474748;4.273964873625864;-0.968695829509534;0.028487246372960295;0.0008115232059137396;0.0846334251045171;0.1009483022330988;0.0014422329754929864;0.11216478025899859;0;53.7267252;86.8529972
0.2240815272775264;1.649112735054524;-0.061180789232181;0.032849414436737265;4.353750724856019;1.0709852896908103;1.1470094907341088;6.713756233262598;3.4115953541883557;-0.968695829509534;0.02481408587451732;0.0006157388577879199;0.07239726725808104;0.0713775874375446;0.000823941683385478;0.0825940654634444;1;53.72681331;86.85271923
-0.5085941150624321;1.602328942685982;-0.0428265524625267;0.03561523622614464;4.16025749340565;1.0968243364170105;1.2030236249566153;6.713756233262598;3.687417212697789;-0.968695829509534;0.023405314025007055;0.000547808724609192;0.07239726725808104;0.0713775874375446;0.0007808615019869299;0.0825940654634444;0;53.72693674;86.85243818000001
-0.254853980780946;1.0542331677386902;-0.0713775874375446;0.03183840364302822;3.8742509560553744;0.801230409504785;0.6419701691152054;5.420057623361785;2.4319526802319476;-0.9911287855613338;0.01835504321167218;0.000336907611302353;0.04996431120628131;0.0514938309370857;0.00036149690430194783;0.0627103089629855;0;53.7270894;86.85216844
0.588046702227101;1.050204846491428;-0.0683185479759355;0.03072153890041487;3.452352180848884;0.8723446159149874;0.7609851289158668;5.420057623361785;2.8439460197707542;-0.9911287855613338;0.017261111871671418;0.000297945983046356;0.04996431120628131;0.0514938309370857;0.0003592787775042753;0.0627103089629855;0;53.72726449;86.85191345000001
0.5771540500983625;0.7758758879682358;-0.0591414295911083;0.014269446673928996;3.302160879074242;0.6684875125899089;0.4468755544886436;4.614492775348049;2.038381171757018;-0.945243193637198;0.02800730112597323;0.0007844089163609413;0.09584990313041708;0.020393596410727;0.0001761822301885767;0.0479249515652084;0;53.72745586;86.85166962
-0.113388779269281;1.2280487276791119;-0.0356887937187723;0.014014570856350448;3.0263390205648086;0.6027954272042257;0.36336232705832505;4.353750724856019;1.7776391212649885;-0.945243193637198;0.028187700313983228;0.0007945464489909302;0.09584990313041708;0.020393596410727;0.00045437229939668505;0.07545630671968989;0;53.727653739999994;86.85143486
-1.1689294504946115;1.5860114910320302;-0.0489446313857448;0.02099896844445161;2.9881049431298377;0.6909546590791413;0.47741834090317237;4.836235610769379;2.2601240071783484;-0.945243193637198;0.02602128037825061;0.0006771070325235301;0.08769246456612623;0.020393596410727;0.0007743804127499786;0.0841235851942489;0;53.727872579999996;86.85119802
-0.1719141592407277;1.9248338047780684;-0.0418068726419904;0.021177287642765615;2.576111603591031;0.943053386751633;0.889349690263725;5.626140763238377;3.050029159647346;-0.945243193637198;0.025902914369911798;0.0006709609728549831;0.08463342510451721;0.020393596410727;0.0011161567834913697;0.09890894259202601;0;53.728093969999996;86.85096629
1.6626148747695857;1.8751314462121804;-0.078515346181299;0.020203002857129237;3.1552809180376875;0.9474779183791161;0.8977144058160229;5.626140763238377;3.050029159647346;-0.945243193637198;0.024524424391567008;0.0006014473917376867;0.08463342510451721;0.020393596410727;0.0010622776748838408;0.09890894259202601;0;53.728315499999994;86.85074238
3.152179570191433;1.869542352431575;-0.0560823901294993;0.02010088703238126;4.182398853719923;0.9497272446772;0.9019818392821463;5.626140763238377;3.050029159647346;-0.945243193637198;0.02441465473644;0.0005960753658995722;0.08463342510451721;0.020393596410727;0.0010554615560784927;0.09890894259202601;0;53.72853337;86.85053017
3.5978000000126498;1.8488247366170507;-0.0061180789232181;0.021151359323914258;4.836235610769379;0.9421562476033447;0.887658394898015;5.626140763238377;3.050029159647346;-0.945243193637198;0.026399228511218214;0.0006969192659875167;0.08463342510451721;0.020393596410727;0.001033843484358988;0.09890894259202601;0;53.728744410000004;86.85032905
4.590202770382628;1.7561260049365555;-0.0642398286937901;0.02353401979130682;5.626140763238377;0.9107916686938996;0.8295414637622183;5.626140763238377;3.050029159647346;-0.945243193637198;0.024480811549991224;0.0005993101341461838;0.07341694707861712;0.020393596410727;0.0009323179723905138;0.09890894259202601;0;53.72895688999999;86.85014473
2.3570271343252904;1.4437824005230102;-0.0474151116549403;0.024183830377549512;4.029640058873981;0.8671497829269865;0.7519487460303199;5.626140763238377;3.050029159647346;-0.945243193637198;0.02647264603101563;0.0007008009878834476;0.07341694707861712;0.003059039461609;0.000631311234300096;0.081574385642908;0;53.729170739999994;86.84996434
0.6962600080684627;1.2600156224138015;-0.0300805547058223;0.024639332040976736;3.38713866032751;0.7633629455932295;0.5827229867047719;5.626140763238377;2.4708598452006894;-0.945243193637198;0.024739992955106968;0.0006120672514187425;0.06933822779647192;-0.0122361578464362;0.00048112556570767927;0.0662791883348628;0;53.72938651;86.84979099
1.0547655836441725;1.3553256989066729;-0.0703579076170082;0.024035525859783895;3.5052242082626757;0.747918769156176;0.5593824852560894;5.626140763238377;2.3268586217060045;-0.962577750586316;0.01954615367783596;0.0003820521235975802;0.05200367084735391;-0.0091771183848271;0.0005534919524817489;0.0693382277964719;0;53.729598810000006;86.84962441
1.379713303393855;1.4520462487009618;-0.0846334251045171;0.024064347749417306;3.629845251442602;0.7680676292988624;0.5899278831767747;5.626140763238377;2.3268586217060045;-0.962577750586316;0.019543789336965288;0.0003819597016476781;0.05200367084735391;0.003059039461609;0.0006344882388280129;0.081574385642908;0;53.72980696;86.84946136
1.5128607876332656;1.3457204167059373;-0.0713775874375446;0.015616607195758305;3.7354975481306822;0.7417046710778005;0.5501258190986282;5.626140763238377;2.3268586217060045;-0.962577750586316;0.019121904389725265;0.0003656472274897943;0.05200367084735391;0.003059039461609;0.0005387766451456261;0.081574385642908;0;53.72998725;86.84931141
1.3479436890231835;0.8412302004990279;-0.0774956663607627;0.022574134009476658;3.4072575439282753;0.4285270544047906;0.18363543635684637;4.628860942266919;1.3295788007345468;-0.962577750586316;0.018134588261893014;0.00032886329142838786;0.05200367084735391;0.003059039461609;0.00022123793076630368;0.0509839910268175;0;53.73015059000001;86.84914706999999
0.5238079753344909;1.1777000062735299;-0.0703579076170082;0.022386623495630018;3.2992821415323723;0.42138872586753967;0.1775684582882685;4.628860942266919;1.3295788007345468;-0.962577750586316;0.0168692048401033;0.0002845700719373647;0.04996431120628109;0.0295707147955541;0.0004209848699942178;0.0774956663607626;0;53.73028951;86.84896599
-0.1766721026905865;2.564354722483727;-0.0622004690527174;0.019765312601628428;3.3359185761821393;1.1785100992671504;1.388886054074669;7.227848258150194;3.928566116617822;-0.962577750586316;0.016497608606118867;0.00027217108972068735;0.04996431120628109;0.1111451004384623;0.0020229576331508474;0.1590700520036708;0;53.73039984;86.84877424
2.7116822470097546;3.0166385461468685;-0.0693382277964719;0.02179163902384321;4.628860942266919;1.3145509531900168;1.7280442085327816;7.227848258150194;3.928566116617822;-0.962577750586316;0.014675066752956573;0.00021535758420373138;0.04996431120628109;0.1111451004384623;0.002811432393261039;0.1590700520036708;0;53.73047934;86.8485747
1.3539979697333755;3.208952578772621;-0.0132558376669725;0.02001651082415105;4.100998578217909;1.3736045014392029;1.8867893263740412;7.227848258150194;3.928566116617822;-0.962577750586316;0.014675066752956573;0.00021535758420373138;0.04996431120628109;0.1111451004384623;0.003187474201928976;0.1590700520036708;0;53.73052665;86.84836857
-1.7137093147857612;3.1539567531686483;-0.0509839910268175;0.020471622598984964;3.9320509162489685;1.3492980747251215;1.8206052944569195;7.227848258150194;3.928566116617822;-0.9870500662791885;0.008997386484821693;8.095296355725206e-05;0.02549199551340864;0.1111451004384623;0.003089275880157011;0.1590700520036708;0;53.73054086;86.84814982
-6.317721142613447;3.1019611084374663;-0.0642398286937901;0.01938911637940977;7.227848258150194;1.3151008882508284;1.7294903462781177;7.227848258150194;3.928566116617822;-0.9768532680738248;0.011569359919505662;0.00013385008894706407;0.035688793718772316;0.1111451004384623;0.0029703288306318176;0.1590700520036708;0;53.730525039999996;86.84792664
-5.05080837487274;3.12809520365602;-0.0326297542571632;0.035705946114580084;6.093490492937096;1.2974559503813696;1.6833919431800228;7.227848258150194;3.891929681968055;-0.9768532680738248;0.01216086644070173;0.00014788667258858553;0.035688793718772316;0.1111451004384623;0.0030439429137295794;0.1590700520036708;0;53.73048202;86.84770441999999
-4.654613605311663;3.046908668516184;-0.0622004690527174;0.035697694575513764;5.904013901373639;1.1254717020721714;1.2666865521652304;7.227848258150194;3.295797341901226;-0.9768532680738248;0.01204297076660605;0.00014503314488532792;0.035688793718772316;0.1111451004384623;0.00289095859296666;0.1590700520036708;0;53.73040915;86.84747027
-3.4722587174685984;2.238131486057745;-0.0764759865402263;0.03567438580982734;5.09561194525666;1.0920339845059115;1.1925382233158572;7.227848258150194;3.295797341901226;-0.9768532680738248;0.015139946780066466;0.00022921798850324495;0.054043030488426624;0.1111451004384623;0.0015570325900162829;0.1345977363107983;1;53.73030422000001;86.84723478000001
-4.526756545244476;1.3251272455347483;-0.0622004690527174;0.03727012469104292;5.923547880329051;0.9478396477563024;0.8983999978587914;7.227848258150194;3.295797341901226;-0.9768532680738248;0.014981931053213354;0.00022445825808323862;0.054043030488426624;0.1111451004384623;0.0005547165433179649;0.0815743856429082;1;53.730172890000006;86.84701897
-5.642699843340301;1.7598687440167595;-0.15091261343938;0.037496107560686005;6.846850065374427;0.9052602719439543;0.8194961599600421;7.227848258150194;3.097001985082125;-0.9768532680738248;0.013781823529361328;0.00018993865979445752;0.054043030488426624;0.1111451004384623;0.0009650700008873997;0.1121647802589986;1;53.730017;86.846817
-4.811116800037567;1.5973158501288012;-0.0652595085143264;0.04059378286090247;6.327383072984793;0.792281571326261;0.6277100882632092;6.846850065374427;2.716003792306357;-0.9768532680738248;0.013767251067281598;0.0001895372019495663;0.054043030488426624;0.1009483022330988;0.0007980635374126312;0.1019679820536351;1;53.72984511999999;86.84663232
-3.107310383801852;1.573944531032205;-0.0672988681553992;0.03959648138954568;5.0518307967410845;0.8618752979325598;0.7428290291863386;6.846850065374427;2.716003792306357;-0.9768532680738248;0.01435460683226109;0.00020605473730879678;0.054043030488426624;0.1009483022330988;0.0007720958576758158;0.1019679820536351;1;53.729661480000004;86.84646147999999
-3.931039519605757;1.650205084958257;-0.0038237993270112;0.041089155405045985;5.67340478705454;1.0456971573398628;1.0934825448686698;6.846850065374427;3.4207112045891854;-0.9768532680738248;0.014850263472826258;0.0002205303252123578;0.054043030488426624;0.1009483022330988;0.0008438383962880408;0.1019679820536351;1;53.7294674;86.84629299999999
0.0580488660385747;1.759790489699639;-0.0458855919241358;0.05018384189854126;4.1308462730680695;1.2677363799413621;1.6071555290268296;6.846850065374427;3.9279849067450985;-0.9646171102273886;0.020110942432401874;0.0004044500055193822;0.06627918833486279;0.1009483022330988;0.0009680766024451842;0.1019679820536351;1;53.72926784;86.84613184
-3.2980836596261707;1.6886004746195045;-0.1121647802589986;0.05130649981057576;4.962551659556519;1.3023997696161318;1.696245159896153;6.846850065374427;3.9279849067450985;-0.9646171102273886;0.021869959842027536;0.0004782951434918971;0.08157438564290809;0.1009483022330988;0.0009039588746999599;0.1019679820536351;1;53.72906167;86.84596919
-2.681021084663832;1.9414215696956754;-0.0989089425920261;0.04261651241567341;4.3417819995372255;1.3548685344318259;1.835668745593444;7.124325917118647;4.205460758489318;-0.9646171102273886;0.022375202851028907;0.0005006497026246922;0.08157438564290809;0.1203222188232894;0.0011555083168485207;0.1213418986438257;1;53.7288463;86.84580758
-1.5371740948132382;1.8594317187638576;-0.113184460079535;0.0429464347740153;3.426138860785241;1.4044289514277961;1.9724206796085788;7.124325917118647;4.680294455828447;-0.9075150402773527;0.03901169374755649;0.001521912249053138;0.13867645559294395;0.1203222188232894;0.0010695645679965103;0.1213418986438257;1;53.728629649999995;86.84565493
-1.3321298319147097;1.8818443946033387;0.0112164780258998;0.04791561715072004;2.918865158629328;1.5010368307481095;2.2531115672623283;7.124325917118647;4.700272387784524;-0.9075150402773527;0.03739274022924337;0.0013982170218516756;0.13867645559294395;0.1203222188232894;0.0010935827222275593;0.1213418986438257;1;53.728415389999995;86.84551235
-2.565520821670337;2.055118870529904;-0.0367084735393086;0.04583256310871853;3.426291556591723;1.506286872390852;2.268900141937015;7.124325917118647;4.700272387784524;-0.9075150402773527;0.039781890501938366;0.0015825988119082138;0.13867645559294395;0.1203222188232894;0.0013465878100870942;0.1213418986438257;1;53.72820375;86.84538007
-6.8873819129755525;1.832402318523821;-0.0428265524625267;0.05029226086582423;7.124325917118647;1.5529285152455685;2.4115869734628057;7.124325917118647;4.700272387784524;-0.9075150402773527;0.04107846103896127;0.0016874399613294587;0.13867645559294395;0.1203222188232894;0.0010752831761467613;0.09788926277148971;1;53.7280045;86.84526018
-1.8646712812932456;2.1824249432756084;-0.037728153359845;0.04751411337993394;2.4440314612901997;1.6001839503516266;2.560588674962937;7.124325917118647;4.913826927581032;-0.9075150402773527;0.04107578920968457;0.0016872204591984392;0.13867645559294395;0.1203222188232894;0.0015111450918894322;0.1356174161313346;1;53.72781533999999;86.84514526000001
-1.6566551707040345;2.3890110881551347;0.0152951973080452;0.04189051876986908;2.424053529334123;1.6501886308704785;2.7231225174541844;7.124325917118647;4.96871797319926;-0.9075150402773527;0.04963151793501937;0.002463287572534149;0.13867645559294395;0.1203222188232894;0.0017932168829934677;0.1356174161313346;1;53.7276332;86.84503992
-5.436593587352778;2.3782133946094604;-0.0683185479759355;0.029484443585246718;5.717641985450506;1.652512213753318;2.7307966166038913;7.124325917118647;4.96871797319926;-0.9075150402773527;0.048767282330263464;0.002378247825879627;0.13867645559294395;0.1203222188232894;0.0017780134722344193;0.1356174161313346;1;53.727460859999994;86.84491366
-2.095795272472772;2.3577378223849395;0.0122361578464362;0.028945060521869105;2.8919885287643274;1.6419000173982055;2.6958356671322274;7.124325917118647;4.96871797319926;-0.9075150402773527;0.04887388717901878;0.002388656847987456;0.13867645559294395;0.1203222188232894;0.001743771139795348;0.1356174161313346;1;53.72730842000001;86.84480474
0.8750766923362716;2.8331362103244553;0.0101967982053635;0.029624189867474525;2.210498989537615;1.642145175022957;2.6966407758511783;7.124325917118647;4.96871797319926;-0.9075150402773527;0.04537810701850801;0.002059172596583166;0.1294993372081169;0.1203222188232894;0.0025027864033739505;0.1651881309268888;1;53.7271779;86.84471518000001
0.5783290693334174;2.812785422509848;-0.0336494340776996;0.029320794293435246;2.155607943919387;1.14890028368902;1.3199718618607106;5.717641985450506;3.5620340415311187;-0.9075150402773527;0.04548681339112526;0.002069050192479052;0.1294993372081169;0.0989089425920261;0.0024854110767921836;0.1702865300295707;1;53.727069740000005;86.84464286
-2.387657722104214;2.9787233694571547;-0.0244723156928724;0.03809474317248134;3.1971879807144963;1.1131515770747005;1.239106433543893;5.717641985450506;3.5620340415311187;-0.9085347200978892;0.035840452333514905;0.001284538023470954;0.1284796573875805;0.0989089425920261;0.002813797817541374;0.1702865300295707;1;53.726986;86.84458215999999
-2.747262645658943;2.969199359862112;-0.0520036708473539;0.034550448009992886;3.503488789183943;1.0941750642750523;1.1972190712813147;5.717641985450506;3.5620340415311187;-0.9085347200978892;0.035612803319705434;0.0012682717602880223;0.1284796573875805;0.0989089425920261;0.002799969183287133;0.1702865300295707;1;53.72693636;86.84453252
2.56778969882863;2.3865028804717454;-0.0479249515652085;0.033379526914801075;3.3899127242601654;0.7533726605094376;0.5675703656030684;4.652290583469002;2.496682639549615;-0.9085347200978892;0.033534222451774204;0.0011245440754450772;0.12236157846436224;0.0489446313857448;0.0017740508811323284;0.1203222188232894;0;53.72690076;86.8444918
4.078729925950795;2.355442809276464;-0.0367084735393086;0.02830313146604943;4.652290583469002;0.771936140844575;0.5958854055420155;4.652290583469002;2.496682639549615;-0.9085347200978892;0.0316418549282353;0.0010012069832994886;0.11012542061792596;0.0489446313857448;0.001719152242889931;0.1203222188232894;0;53.726863460000004;86.84444682
2.6230292430911906;2.4846038577594878;-0.1029876618741715;0.029864416440103722;3.4523838477781643;0.727657783089587;0.5294858492908524;4.652290583469002;2.496682639549615;-0.9085347200978892;0.031623776840684896;0.0010000632616694385;0.11012542061792596;0.0489446313857448;0.0019112974767383228;0.1203222188232894;0;53.72683184;86.84440752
-1.4444094857018326;2.4846038577594878;-0.0550627103089629;0.029864416440103722;2.650142581189314;0.727657783089587;0.5294858492908524;4.652290583469002;2.496682639549615;-0.9085347200978892;0.031623776840684896;0.0010000632616694385;0.11012542061792596;0.0489446313857448;0.0019112974767383228;0.1203222188232894;0;53.72683184;86.84440752
1.1628881543169474;2.4846038577594878;-0.0509839910268175;0.029864416440103722;2.461024565620618;0.727657783089587;0.5294858492908524;4.652290583469002;2.496682639549615;-0.9085347200978892;0.031623776840684896;0.0010000632616694385;0.11012542061792596;0.0489446313857448;0.0019112974767383228;0.1203222188232894;0;53.72683184;86.84440752
2.9851424378497726;2.4846038577594878;-0.0448659121035994;0.029864416440103722;3.6373484722359137;0.727657783089587;0.5294858492908524;4.652290583469002;2.496682639549615;-0.9085347200978892;0.031623776840684896;0.0010000632616694385;0.11012542061792596;0.0489446313857448;0.0019112974767383228;0.1203222188232894;0;53.72683184;86.84440752
3.324875623004248;2.4846038577594878;0.0173345569491179;0.029864416440103722;3.8513715094309995;0.727657783089587;0.5294858492908524;4.652290583469002;2.496682639549615;-0.9085347200978892;0.031623776840684896;0.0010000632616694385;0.11012542061792596;0.0489446313857448;0.0019112974767383228;0.1203222188232894;0;53.72683184;86.84440752
-3.938915624710528;3.2496628707669863;0.0142755174875089;0.03929789526049223;4.059735473489822;0.7424083738134369;0.5511701935083119;5.737368668607751;2.243462080576566;-0.9289283165086164;0.03640017344125602;0.0013249726265535198;0.1356174161313346;0.0887121443866625;0.003185657532976195;0.16314877128581612;0;53.72734603;86.85429643
-5.048289323795204;3.2496628707669863;-0.0418068726419904;0.03929789526049223;5.354871062546851;0.7424083738134369;0.5511701935083119;5.737368668607751;2.243462080576566;-0.9289283165086164;0.03640017344125602;0.0013249726265535198;0.1356174161313346;0.0887121443866625;0.003185657532976195;0.16314877128581612;1;53.72734603;86.85429643
4.391888314535264;3.2496628707669863;-0.0540430304884266;0.03929789526049223;5.036524583908365;0.7424083738134369;0.5511701935083119;5.737368668607751;2.243462080576566;-0.9289283165086164;0.03640017344125602;0.0013249726265535198;0.1356174161313346;0.0887121443866625;0.003185657532976195;0.16314877128581612;1;53.72734603;86.85429643
2.7630469449194504;3.2496628707669863;-0.0571020699500356;0.03929789526049223;4.100685922044321;0.7424083738134369;0.5511701935083119;5.737368668607751;2.243462080576566;-0.9289283165086164;0.03640017344125602;0.0013249726265535198;0.1356174161313346;0.0887121443866625;0.003185657532976195;0.16314877128581612;0;53.72734603;86.85429643
-0.1738732717446797;3.2496628707669863;-0.0968695829509534;0.03929789526049223;3.4939065880311855;0.7424083738134369;0.5511701935083119;5.737368668607751;2.243462080576566;-0.9289283165086164;0.03640017344125602;0.0013249726265535198;0.1356174161313346;0.0887121443866625;0.003185657532976195;0.16314877128581612;0;53.72734603;86.85429643
2.3039498232166373;3.2496628707669863;-0.0265116753339451;0.03929789526049223;4.486327501392702;0.7424083738134369;0.5511701935083119;5.737368668607751;2.243462080576566;-0.9289283165086164;0.03640017344125602;0.0013249726265535198;0.1356174161313346;0.0887121443866625;0.003185657532976195;0.16314877128581612;0;53.72734603;86.85429643
0.8719973600624736;3.0901704413156943;-0.1254206179259712;0.03008564307305108;4.214788681557875;0.7148630737114189;0.5110292141561374;5.737368668607751;2.243462080576566;-0.9289283165086164;0.03588088296222868;0.0012874377621491526;0.1356174161313346;0.0887121443866625;0.0028588535181190947;0.16314877128581612;1;53.727227570000004;86.85431109
-1.2461461485610956;2.791117780831688;-0.0938105434893443;0.02917068550372384;4.490872790266065;0.7061169214947586;0.49860110682123504;5.737368668607751;2.243462080576566;-0.9289283165086164;0.036380490463021824;0.001323540086330022;0.1356174161313346;0.061180789232181;0.002301549160203847;0.1356174161313346;1;53.72710188999999;86.85428269
-3.4223735282455414;2.255538235184763;-0.0520036708473539;0.030011055538729896;5.60092860371817;0.701636025843016;0.49229311276078147;5.737368668607751;2.243462080576566;-0.9289283165086164;0.035039683124805064;0.0012277793934867486;0.1356174161313346;0.061180789232181;0.0015279774395155182;0.1101254206179258;1;53.72697892;86.85420836
-3.5711948161020564;2.0002405950539113;-0.0662791883348628;0.03102464177496766;5.737368668607751;0.6884349980250316;0.47394274650572527;5.737368668607751;2.243462080576566;-0.9289283165086164;0.035713225301077144;0.0012754344614054967;0.1356174161313346;0.061180789232181;0.0011938720906160788;0.1009483022330987;0;53.726862499999996;86.85409705999999
-2.0163975440279622;2.031939425887316;-0.0479249515652085;0.03154257192192509;4.923725442156038;0.5811949547552675;0.3377875754329774;5.737368668607751;1.556104812805553;-0.9289283165086164;0.03741976418960702;0.0014002387520057956;0.1356174161313346;0.061180789232181;0.0012307831068586;0.1009483022330987;0;53.72676165;86.85394500999999
-2.8013554378737737;1.6806661507346532;-0.0550627103089629;0.027838068358578265;5.256137983562549;0.6043695168508231;0.36526251289849737;5.737368668607751;1.556104812805553;-0.9289283165086164;0.03733646773773704;0.001394011823131079;0.1356174161313346;0.061180789232181;0.0008463077952620108;0.0795350260018353;1;53.72669011000001;86.85375571
-0.9932836205999368;1.52064520015283;-0.095849903130417;0.021313503618999686;4.477335294243855;0.6514075493324358;0.4243317953272899;5.737368668607751;1.9069698728287738;-0.9289283165086164;0.028896126148653316;0.0008349861063988859;0.09483022330988056;0.061180789232181;0.0006837953491012777;0.0795350260018353;0;53.72665806;86.85354190000001
1.0219482572391776;1.5192307988496117;-0.1029876618741715;0.021464737897545463;4.264607469486587;0.6777407877993366;0.45933257544686534;5.737368668607751;1.9069698728287738;-0.9289283165086164;0.032479999186700886;0.0010549503471680903;0.10808606097685325;0.061180789232181;0.0006820277793093822;0.0795350260018353;0;53.72666626;86.85330434
0.3633841701585036;1.3892396052724563;-0.0448659121035994;0.02174918601574383;4.181263855802198;0.6015970999189056;0.3619190706308377;5.737368668607751;1.9069698728287738;-0.9289283165086164;0.044306753739302845;0.0019630884269152267;0.16212909146527976;0.058121749770572;0.0005667891605240468;0.0764759865402263;0;53.72671296;86.85305152000001
-1.4586701281926402;1.3792266959082644;-0.0601611094116447;0.023036641168867864;4.186263921953894;0.46047495780431286;0.2120371867648837;5.256137983562549;1.4737568192842136;-0.9635974304068522;0.03640509252301657;0.0013253307616093966;0.12745997756704397;0.0479249515652085;0.0006005578304698644;0.07035790761700819;0;53.726799189999994;86.85278959
-0.6542613052249162;1.4073756444402286;-0.0672988681553992;0.02251622983967457;3.8303987957789776;0.40854934587300623;0.1669125680132613;5.256137983562549;1.4737568192842136;-0.9635974304068522;0.03767820804504158;0.0014196473614854358;0.12745997756704397;0.0479249515652085;0.0006314729727124267;0.07035790761700819;0;53.726924569999994;86.85253097
-1.351016019481832;1.2668469984802542;-0.0367084735393086;0.021848819739127084;4.084001957499129;0.2979262375604925;0.08876004302695104;4.477335294243855;1.0080672879405328;-0.9635974304068522;0.036881944246697176;0.001360277811416479;0.12745997756704397;0.0418068726419904;0.000530143857387496;0.06423982869379011;0;53.72708127;86.85227295
-2.1884214500861225;1.2747456262616346;-0.0805547058223717;0.022278960522300023;4.185150840092339;0.2848904696919488;0.0811625797212992;4.304753800072031;0.8354857937687084;-0.9635974304068522;0.036848099255851655;0.0013577824187690952;0.12745997756704397;0.0418068726419904;0.000537260347530029;0.06423982869379011;0;53.727262110000005;86.85202115000001
1.2744157782264838;1.425344743479272;-0.0897318242071989;0.01866660932998135;3.782381164278335;0.26893212003698647;0.07232448518758809;4.304753800072031;0.8354857937687084;-0.9635974304068522;0.03684672756516365;0.0013576813322613904;0.12745997756704397;0.0418068726419904;0.0006628964356794555;0.07545630671969;0;53.72746011;86.85177627
-2.296117091546253;2.390473347233056;-0.0866727847455898;0.01904615849375873;4.304753800072031;0.8211474879627926;0.6742831969876045;6.408812345155496;2.939544338852174;-0.979912307535434;0.03267932862400021;0.0010679385193153995;0.11114510043846215;0.0418068726419904;0.001815502125663834;0.13867645559294378;0;53.727666369999994;86.85154477
0.1181135571210444;2.6211318327266806;-0.0662791883348628;0.01904615849375873;3.4692680063033223;0.871878325335935;0.7601718141905945;6.408812345155496;2.939544338852174;-0.979912307535434;0.03230099504103849;0.0010433542806411933;0.11114510043846215;0.0418068726419904;0.0021875004740235147;0.13867645559294378;1;53.727875329999996;86.85132365
-1.1877993005351748;2.7191713260330794;-0.0418068726419904;0.0254951676532629;3.682238620405025;0.8640843963140401;0.7466418439533992;6.408812345155496;2.939544338852174;-0.9870500662791885;0.029283388548350827;0.0008575168448736844;0.10400734169470771;0.0418068726419904;0.0023681853860839305;0.13867645559294378;0;53.72808573;86.85110397
1.9111192174705076;2.6033447674667336;-0.0713775874375446;0.02644186171615745;3.9703684576890104;0.9290139704856125;0.8630669573574425;6.408812345155496;3.1332854919225874;-0.9870500662791885;0.031268749514651965;0.0009777346962100474;0.10400734169470771;0.0418068726419904;0.0021744574263434496;0.13867645559294378;0;53.728298759999994;86.85088436
5.50421280369321;2.351576230787287;-0.0418068726419904;0.025813098377100472;6.408812345155496;1.0124858750706678;1.025127647217616;6.408812345155496;3.3881749842688778;-0.9870500662791885;0.022343232769389557;0.0004992200505871233;0.07239726725808093;0.0418068726419904;0.0017447993339880185;0.13867645559294378;0;53.7285125;86.85067058
3.876522831620624;2.399697331457128;-0.0601611094116447;0.02540892620807871;5.1175916468866;1.0942649299242218;1.197415736862062;6.408812345155496;3.576482508236168;-0.979912307535434;0.02489639924186968;0.0006198306952105693;0.07953502600183537;0.0418068726419904;0.0018152248598141245;0.13867645559294378;0;53.7287277;86.85046082
3.2524313529071067;2.05676851541673;-0.0101967982053635;0.023254513145330388;4.677576281385307;1.130789646786477;1.2786852252794854;6.408812345155496;3.576482508236168;-0.979912307535434;0.024396726123834863;0.0005952002455614064;0.07953502600183537;0.0214132762312633;0.0013212179848387112;0.11828285918221669;0;53.728939520000004;86.85025536
0.9337307268199188;2.0177768937667153;-0.0938105434893443;0.023957051339799574;3.275526853232909;1.1505792310395904;1.323832566899655;6.408812345155496;3.576482508236168;-0.979912307535434;0.02449502371822415;0.0006000061869563637;0.07953502600183537;0.0214132762312633;0.001272465406264865;0.11828285918221669;0;53.72915061;86.85006453
0.4691913347247424;1.8143498139085243;-0.0622004690527174;0.023740030549867744;3.0206373608866186;1.171431925621156;1.3722527563644897;6.408812345155496;3.576482508236168;-0.979912307535434;0.023028615862520765;0.000530317148543543;0.07953502600183537;0.0020393596410727;0.0010248698906605935;0.0989089425920261;0;53.72935827;86.84988562999999
-0.1191757722030872;1.8918207883360572;-0.0326297542571632;0.02458558734522177;2.832329836919328;1.1847300383008366;1.4035852636523019;6.408812345155496;3.576482508236168;-0.979912307535434;0.023529417196193315;0.0005536334735925177;0.07953502600183537;0.0020393596410727;0.0011144036546291503;0.0989089425920261;0;53.729566829999996;86.84970507
1.182578794251376;1.3211219079410068;-0.061180789232181;0.02458558734522177;3.113814495976254;0.7588943410582676;0.5759206208902622;5.1175916468866;2.285261809967272;-0.974813908432752;0.025510626186514323;0.0006507920484280702;0.08463342510451743;0.0020393596410727;0.0005475105194114622;0.0703579076170082;0;53.72977218;86.84951362
0.7089038085223275;0.9780195153694384;-0.07545630671969;0.02833678622393919;3.1478925885004503;0.5208127075202404;0.27124587631456354;4.677576281385307;1.845246444465979;-0.9737942286122158;0.02705094594543997;0.0007317536765431152;0.08565310492505362;0.0020393596410727;0.00030270787960582127;0.0601611094116447;0;53.72996264000001;86.84930984
0.4961650824603331;0.6396883353950393;-0.0458855919241358;0.02441654741869683;3.2054488299255857;0.24669350247864036;0.06085768416517894;3.7726105178427405;0.9402806809234123;-0.9737942286122158;0.025961761560826236;0.0006740130633411947;0.08565310492505362;0.0112164780258998;0.00012280855411958018;0.0367084735393085;0;53.730129010000006;86.84909732999999
0.1142354897958756;1.2053043037720037;-0.0805547058223717;0.02188580151870549;3.2973386095472326;0.4083583476061666;0.1667565400596388;4.25981562356824;1.4274857866489121;-0.9635974304068522;0.015654382400904707;0.000245059688353755;0.05608239012949934;0.0479249515652085;0.00041781941821003994;0.0734169470786172;0;53.73026393;86.84887641
1.49660409810345;1.9748755359240313;-0.0418068726419904;0.021567560684090614;3.7726105178427405;0.9140680288851478;0.8355203614299794;5.97660511768523;3.1442752807659016;-0.9635974304068522;0.015435140736268163;0.00023824356954840487;0.05608239012949934;0.0846334251045171;0.001147421396232004;0.1101254206179258;0;53.730366860000004;86.8486491
0.1199830269685959;2.4087732458849564;-0.0112164780258998;0.023385052439030506;3.3244048581601437;1.0876176166940186;1.1829120801431772;5.97660511768523;2.862790621708976;-0.9635974304068522;0.016467206478372836;0.00027116888920136425;0.05608239012949934;0.0856531049250535;0.001745183462717302;0.11114510043846221;0;53.73043473;86.84841489
-0.6491037673098957;2.9750540719122522;-0.0622004690527174;0.02599705870689256;3.3530493837841484;1.5951007301384816;2.544346339288317;7.810744639641184;4.662852051140733;-0.9635974304068522;0.018280523886031227;0.0003341775535477582;0.05608239012949934;0.1274599775670439;0.0027402212808607584;0.15295197308045258;0;53.73046197;86.84817333000001
-2.8459476567719904;3.048222415940114;-0.0295707147955541;0.032049070079973006;4.25981562356824;1.6190798060404872;2.621419418328102;7.810744639641184;4.6052958097155985;-0.9635974304068522;0.01881002971561065;0.0003538172179021557;0.05608239012949934;0.1274599775670439;0.0028910307976150224;0.15295197308045258;0;53.73044976;86.84792560000001
-4.90829106197254;3.0228548205874533;-0.0550627103089629;0.033913787101534545;5.97660511768523;1.585894950211617;2.5150627931067078;7.810744639641184;4.513406030093952;-0.945243193637198;0.023832311955179618;0.0005679790931289973;0.07443662689915354;0.1274599775670439;0.0027881507264432832;0.15295197308045258;1;53.73040059;86.84766907000001
-4.8519333296286575;2.92734979978473;-0.0856531049250535;0.03706925344754323;5.779822194076937;1.51317098215807;2.2896864212452184;7.810744639641184;4.486339781481041;-0.945243193637198;0.021666963205127787;0.00046945729453236145;0.0683185479759355;0.1274599775670439;0.002593417677997607;0.15295197308045258;1;53.73031455;86.84741151
-7.139314463973564;2.4103643915662447;-0.0907515040277353;0.03713962023671912;7.810744639641184;1.594311683433305;2.5418297439319395;7.810744639641184;4.667820601618427;-0.945243193637198;0.02255339783790858;0.0005086557540349793;0.0683185479759355;0.1274599775670439;0.0017824150675985534;0.1294993372081166;1;53.73019749;86.84716645
-5.460501570933933;2.526813063374121;-0.1182828591822167;0.03481559170432018;6.169377478197656;1.7666894119229342;3.121191478200603;7.810744639641184;5.575418398303601;-0.945243193637198;0.05370055568496655;0.0028837496808741935;0.19068012644029764;0.1274599775670439;0.0019873145305335624;0.1417354950545528;1;53.73005101;86.84693293000001
-5.604675419210175;2.261667589990922;-0.0244723156928724;0.03896843399319087;6.154775335139529;1.6590642083059175;2.7524940472817407;7.810744639641184;5.575418398303601;-0.945243193637198;0.05638705454768753;0.0031794999205638896;0.19068012644029764;0.1274599775670439;0.0016185509504204863;0.1417354950545528;1;53.72988635;86.84670939
-5.782312442198042;2.526371243471099;-0.0050983991026817;0.03843349859595295;6.310515482532061;1.9684055216031215;3.8746202974776573;7.810744639641184;5.957578392529331;-0.9013969613541348;0.06417856474027737;0.004118888172121974;0.2345263587233608;0.1274599775670439;0.0020046783043715924;0.1417354950545528;1;53.72970629;86.84650117
-2.1237770407522927;2.950159864861603;-0.0397675130009177;0.038400569832315275;3.1429240380227577;2.1937845676975205;4.812690729467796;7.810744639641184;6.117905966935902;-0.9013969613541348;0.06408083524086103;0.004106353445166377;0.2345263587233608;0.1274599775670439;0.002707085123634591;0.14479453451616178;1;53.729514570000006;86.84630689000001
0.7196411442609422;2.935646524648163;-0.0367084735393086;0.03625898219909497;2.235326241337584;2.1558168676960903;4.647546367042983;7.810744639641184;6.117905966935902;-0.8820230447639441;0.07363260419070423;0.005421760399904914;0.2539002753135515;0.1274599775670439;0.0026417543577968894;0.14479453451616178;1;53.72931237;86.84612261
-4.483516730866365;2.775272928895201;0.0020393596410727;0.043921293668753074;4.910063641055998;2.0942037775272375;4.385689461809351;6.310515482532061;5.487041775840072;-0.8820230447639441;0.0736494883077573;0.00542424712799448;0.2539002753135515;0.0978892627714897;0.002279402550458338;0.11522381972060759;1;53.729106519999995;86.84594747999999
-0.5178292281894249;2.6623756941036025;-0.0458855919241358;0.031751380793375694;1.8531662471118535;1.9341594686571257;3.740972850196015;6.310515482532061;5.487041775840072;-0.8820230447639441;0.07469120850697453;0.005578776628232344;0.2539002753135515;0.0978892627714897;0.002080706910910569;0.11522381972060759;1;53.728896680000005;86.84577604
