acc_X;acc_X_std;acc_Z;acc_Z_std;acc;acc_std;acc_var;acc_max;acc_range;fb_tilt_max;fb_tilt_std;fb_tilt_var;fb_tilt_range;tilt_max;tilt_var;tilt_range;hole;lat;lon
1.4248687297982203;1.3640518561507968;-0.0418068726419904;0.05090700372271571;1.8699059292997917;1.2167923540032206;1.4805836327606987;5.637349214618088;3.767443285318296;-0.9401447945345162;0.036001581530487034;0.0012961138726963052;0.10400734169470793;-0.0050983991026817;0.0005318912098778509;0.0672988681553992;1;53.72281418;86.83691594000001
2.016860019032688;1.3640518561507968;0.0132558376669725;0.05090700372271571;2.6309165976901983;1.2167923540032206;1.4805836327606987;5.637349214618088;3.767443285318296;-0.9401447945345162;0.036001581530487034;0.0012961138726963052;0.10400734169470793;-0.0050983991026817;0.0005318912098778509;0.0672988681553992;1;53.72281418;86.83691594000001
2.9334948291228367;1.3640518561507968;-0.0591414295911083;0.05090700372271571;3.6176625604796793;1.2167923540032206;1.4805836327606987;5.637349214618088;3.767443285318296;-0.9401447945345162;0.036001581530487034;0.0012961138726963052;0.10400734169470793;-0.0050983991026817;0.0005318912098778509;0.0672988681553992;0;53.72281418;86.83691594000001
1.482534562430275;1.3640518561507968;-0.0866727847455898;0.05090700372271571;2.9020685878811747;1.2167923540032206;1.4805836327606987;5.637349214618088;3.767443285318296;-0.9401447945345162;0.036001581530487034;0.0012961138726963052;0.10400734169470793;-0.0050983991026817;0.0005318912098778509;0.0672988681553992;0;53.72281418;86.83691594000001
0.3069710040665134;1.3640518561507968;0.0489446313857448;0.05090700372271571;2.8397997443843517;1.2167923540032206;1.4805836327606987;5.637349214618088;3.767443285318296;-0.9401447945345162;0.036001581530487034;0.0012961138726963052;0.10400734169470793;-0.0050983991026817;0.0005318912098778509;0.0672988681553992;1;53.72281418;86.83691594000001
1.7545412369528492;1.3640518561507968;-0.0795350260018354;0.05090700372271571;3.5689267631720156;1.2167923540032206;1.4805836327606987;5.637349214618088;3.767443285318296;-0.9401447945345162;0.036001581530487034;0.0012961138726963052;0.10400734169470793;-0.0050983991026817;0.0005318912098778509;0.0672988681553992;1;53.72281418;86.83691594000001
4.215929020642994;1.7035273293572277;-0.0856531049250535;0.05080810443634789;5.3842419988465755;1.3938987666623706;1.9429537717028775;6.797346651175117;4.166430053484918;-0.9401447945345162;0.037603780139403103;0.0014140442807725675;0.10400734169470793;-0.0050983991026817;0.0008900955822145053;0.0948302233098807;1;53.722694020000006;86.8368009
0.4861550185971123;1.704039877487545;-0.0683185479759355;0.04574693887357474;3.582094079841219;1.3113998935880453;1.7197696809027365;6.797346651175117;3.957546906790765;-0.9401447945345162;0.036058175095750204;0.0013001919912357803;0.10400734169470793;-0.0050983991026817;0.0008903728480642145;0.0948302233098807;0;53.72256952;86.83668408000001
4.242437979073926;2.0172402575482877;-0.1254206179259712;0.04591481973133987;5.637349214618088;1.5556779853811171;2.420133994199451;7.283808795350121;4.44400905096577;-0.9401447945345162;0.037081717471784285;0.001375053770657232;0.10400734169470793;-0.0050983991026817;0.0012177776055956853;0.0989089425920261;1;53.722441960000005;86.83656164
2.5687990762766013;1.9791484325890563;-0.0530233506678902;0.04516365045637612;4.616967920475051;1.4382342732319346;2.0685178246989913;7.283808795350121;4.44400905096577;-0.9228102375853982;0.04374995522845342;0.0019140585824916788;0.12134189864382594;-0.0050983991026817;0.0011551848400238609;0.0989089425920261;0;53.72231247999999;86.83642448
5.547357771738739;1.7975498898363431;-0.046395431834404;0.026485571316282836;6.797346651175117;1.3133463209858394;1.7248785588470392;7.283808795350121;3.7148820321781058;-0.9228102375853982;0.04343870609780408;0.0018869211874514014;0.12134189864382594;-0.0086672784745589;0.0009260246152393072;0.0953400632201489;0;53.72218394;86.83627546
3.228273043974261;1.9689308184239278;-0.0346691138982359;0.026967966404103375;5.13122576560592;1.4268583362924696;2.035924711847314;8.46338016061052;4.8812860807693;-0.9228102375853982;0.04457347481479714;0.0019867946570653553;0.12134189864382594;-0.0086672784745589;0.0010658590254425855;0.11369429998980321;0;53.72207100000001;86.83612668
6.073969615911515;1.968212564159193;-0.0713775874375446;0.026090489736860036;7.283808795350121;1.4117379457540924;1.993004027481985;8.46338016061052;4.8812860807693;-0.9228102375853982;0.04571536098914801;0.0020898942303681158;0.12134189864382594;-0.0086672784745589;0.0010666215065292855;0.11369429998980321;0;53.721958810000004;86.83596585000001
4.292198668099015;1.4622865870528385;-0.0438462322830631;0.026862806397345906;5.883357107216609;1.1475556253847563;1.316883913352199;8.46338016061052;3.846412240135469;-0.9228102375853982;0.04424948330109968;0.0019580167724142995;0.12134189864382594;-0.0469052717446721;0.000561694400535642;0.07545630671969;0;53.72184995;86.83580579
5.599243176276364;1.4563407602986411;-0.0815743856429081;0.032502444232165084;6.969206161180071;1.1289929831303622;1.2746251559575943;8.46338016061052;3.846412240135469;-0.9228102375853982;0.042704989479702055;0.0018237161264614634;0.12134189864382594;-0.0469052717446721;0.0005570733030404908;0.07545630671969;1;53.721744130000005;86.83564621000001
7.43778432782682;1.233255434518355;-0.0479249515652085;0.032179161190115595;8.46338016061052;0.9679023774618102;0.9368350122962246;8.46338016061052;3.3321543950045998;-0.9228102375853982;0.03969394666629647;0.0015756094019467885;0.10706638115631706;-0.058121749770572;0.00040508540642496374;0.06423982869379011;1;53.72163918;86.83547725999999
4.413253005063806;1.3168493315988843;-0.0591414295911083;0.03358396668628232;6.0017690493687015;0.9993696129418832;0.9987396232716095;8.46338016061052;3.3321543950045998;-0.9228102375853982;0.038846693527462665;0.0015090655980166097;0.10706638115631706;-0.058121749770572;0.00048384046048608023;0.06423982869379011;1;53.72153541;86.83529413
3.6188929297432977;1.1795293483172564;-0.0836137452839808;0.0324351515449851;5.486650721273935;0.8865028622188207;0.7858873247221614;8.46338016061052;2.9767294393365846;-0.9207708779443254;0.04063523236935161;0.0016512221097112012;0.0989089425920261;-0.0622004690527174;0.0003793458933769711;0.0601611094116447;1;53.72143363;86.83510019
5.049030139148156;1.1696467009728828;-0.1468338941572346;0.034648447559239376;6.210102903026567;0.9063072408000118;0.8213928147265305;8.46338016061052;2.9767294393365846;-0.9207708779443254;0.04142586533246017;0.0017161023185431254;0.0989089425920261;-0.0622004690527174;0.0003693296645562307;0.0601611094116447;1;53.721335090000004;86.83489925
5.256812236252299;1.1092574527779155;-0.0632201488732537;0.034229800903534585;6.2361366491912245;0.8985543355383228;0.8073998939147167;8.46338016061052;2.9767294393365846;-0.9207708779443254;0.03683100826344104;0.001356523169701662;0.0989089425920261;-0.0622004690527174;0.0003068870846529988;0.0601611094116447;0;53.72123032;86.83467672
6.557073933915865;1.2422614307888147;-0.0316100744366268;0.03369043661787132;7.285466100522432;0.9603255249421669;0.9222251138554485;8.46338016061052;2.9767294393365846;-0.9207708779443254;0.03500471699377552;0.0012253302118143167;0.0989089425920261;-0.0622004690527174;0.00040394168479491435;0.0632201488732538;0;53.72112833999999;86.83445185999999
6.435992986651788;1.1806635854218936;-0.0479249515652085;0.03338506409841902;7.056527364142326;0.7748218104867829;0.6003488380060161;7.667030793267493;2.180380071993558;-0.9207708779443254;0.02980614019699356;0.0008884059934428353;0.0989089425920261;-0.0622004690527174;0.00039838481505699526;0.0632201488732538;0;53.72102943;86.83422750999999
4.94508043672607;1.1165037728223752;-0.0285510349750178;0.03381639157115796;5.730422100025637;0.7541952526158365;0.5688104790682655;7.667030793267493;2.180380071993558;-0.9207708779443254;0.028913112762492487;0.000835968089616606;0.0989089425920261;-0.0622004690527174;0.0003625366512383589;0.0632201488732538;0;53.72093459;86.83400723
5.297981215429956;0.9872372961845566;-0.0520036708473539;0.035145852005573644;5.987978822404835;0.9087316885951461;0.8257932818569855;7.667030793267493;2.9849278584004315;-0.9207708779443254;0.029810209678251702;0.0008886486010613315;0.0999286224125625;-0.0764759865402263;0.00026225883559357553;0.0489446313857449;0;53.72084553;86.83378249
7.220919937273816;0.9703798842942141;-0.0601611094116447;0.019059498264483346;7.667030793267493;0.9516494763600861;0.9056367258564261;7.667030793267493;2.9849278584004315;-0.9207708779443254;0.02896401283092118;0.0008389140392697666;0.0999286224125625;-0.0764759865402263;0.0002598905231273106;0.0489446313857449;0;53.72076204;86.83355308
7.025492544160287;1.0048497547524984;-0.0571020699500356;0.02075437424416335;7.412062431123869;0.9763599616575461;0.953278774727925;7.667030793267493;2.9849278584004315;-0.9207708779443254;0.02779154971101085;0.0007723702353395873;0.0999286224125625;-0.0764759865402263;0.0002870279181675869;0.0489446313857449;0;53.72068253;86.83332253
6.173088372511979;1.2296918820590816;-0.0458855919241358;0.022457661958022547;6.5472370224261125;1.1322567466628561;1.2820053403635552;8.430855356499734;3.7487524216326724;-0.9207708779443254;0.026104157458822715;0.0006814270366350097;0.0999286224125625;-0.0764759865402263;0.0004408064900624852;0.06831854797593559;0;53.72060553;86.83309449
4.284032600767674;1.7071859683179598;-0.020393596410727;0.022086525401970973;4.6821029348670615;1.5728112657800517;2.473735277764648;10.061310833845726;5.379207898978664;-0.9737942286122158;0.012360157085963722;0.00015277348318969923;0.04690527174467218;-0.0764759865402263;0.0008320401567457343;0.0938105434893444;0;53.72053118;86.83287166
5.268454054119343;2.0442937963249403;-0.0050983991026817;0.022776400172232772;5.568597080417321;1.9422909795880055;3.7724942493889335;10.897334233895785;6.215231299028724;-0.9737942286122158;0.013310630261715565;0.00017717287796409817;0.04690527174467218;-0.0764759865402263;0.0011980310783617192;0.1080860609768533;0;53.72045888;86.832656
6.965648036375404;2.1919524328467306;-0.003059039461609;0.021943789821689944;7.156493933721482;2.1223899887954727;4.504539264539246;10.897334233895785;6.215231299028724;-0.9737942286122158;0.013164009878003403;0.00017329115606817117;0.04690527174467218;-0.0764759865402263;0.0013985289459325975;0.1080860609768533;0;53.72039972;86.83246884
8.27770908756588;2.253690702531632;-0.0081574385642908;0.022096722864209658;8.430855356499734;2.1804612803248062;4.754411394995694;10.897334233895785;6.215231299028724;-0.9737942286122158;0.013148203576671888;0.00017287525729360744;0.04690527174467218;-0.0764759865402263;0.0014793172828915801;0.1080860609768533;0;53.7203397;86.83229106
9.916837477555646;2.3665394816124756;-0.020393596410727;0.02251546019875755;10.061310833845726;2.282013531334451;5.207585757193532;10.897334233895785;6.215231299028724;-0.9737942286122158;0.014532574041516156;0.00021119570827214922;0.04690527174467218;-0.0764759865402263;0.0016197062247942763;0.1080860609768533;0;53.72027519000001;86.83211647
10.686520643093026;2.8952093619101333;-0.0479249515652085;0.022028191724794303;10.897334233895785;2.689491780506485;7.233366037411942;10.897334233895785;7.822829521492973;-0.9737942286122158;0.0153050132972571;0.00023424343202921666;0.04690527174467218;-0.0346691138982359;0.0024797848905918386;0.1498929336188437;0;53.72020125;86.83193757000001
10.525080634758153;3.2544674086251684;-0.040787192821454;0.02246698394492039;10.753322803469871;2.904593249940041;8.436661947597248;10.897334233895785;7.848583218448235;-0.9737942286122158;0.01380653003744925;0.00019062027167498837;0.040787192821454155;-0.0295707147955541;0.0031578847370303436;0.15499133272152552;0;53.720115379999996;86.83177234
5.961100351769016;3.5273706293661964;-0.061180789232181;0.02052635993804926;6.340407958405341;3.0789628824396216;9.480012431440903;10.897334233895785;7.848583218448235;-0.9737942286122158;0.016006050266420675;0.00025619364513118533;0.04384623228306317;-0.0295707147955541;0.0037052421825872783;0.15499133272152552;0;53.72000662000001;86.83162774
5.216467191633356;3.9152701926576463;-0.0601611094116447;0.018712737663982338;5.657668801835425;3.3286637409882527;11.080002300569909;10.897334233895785;8.031285667625063;-0.9737942286122158;0.023098992825097468;0.0005335634695339043;0.07341694707861735;-0.0158050372183134;0.004565554791445532;0.16875701029876622;0;53.71987818;86.83150954
2.027821299779156;4.111871168131479;-0.0229427959620679;0.01860748822410336;3.0745047124028124;3.429423784285147;11.760947492220659;10.897334233895785;8.035758722429996;-0.9737942286122158;0.023051681087665716;0.0005313800009674452;0.07341694707861735;-0.0101967982053635;0.00503676810302611;0.1743652493117161;1;53.71973004;86.83141772
1.6710241891575048;4.284034140725794;-0.0469052717446721;0.01724443423249717;3.0487510154475506;3.160301754695861;9.987507180733738;10.897334233895785;8.035758722429996;-0.9768532680738248;0.02264209699016595;0.000512664556112082;0.07035790761700833;0.040787192821454;0.005562880052849083;0.2253492403385336;1;53.71956198;86.83134950000002
2.2369953844645383;3.5234095319495826;-0.0285510349750178;0.01772739753442954;3.618653887440423;2.4762433826037755;6.131781289888988;10.753322803469871;7.891747292004081;-0.9207708779443254;0.03443187643920678;0.0011855541151248033;0.12644029774650767;0.040787192821454;0.0038129859588726576;0.22432956051799718;1;53.71937256;86.83129832
0.8632956308968874;2.3986822843826046;-0.0591414295911083;0.017458160655654375;2.8660485662707216;1.2318561687055467;1.5174696203779083;6.340407958405341;3.478832446939551;-0.9207708779443254;0.03673191239784643;0.0013492333884030639;0.12644029774650767;0.040787192821454;0.001780419331117827;0.1447945345161618;1;53.71915216;86.8312648
0.5834722788545821;2.0930663302483494;-0.0774956663607627;0.017879242361269834;2.86157551146579;0.8476875118522436;0.7185741177502476;5.657668801835425;2.796093290369635;-0.9207708779443254;0.03939541194012955;0.0015519984819325017;0.12644029774650767;0.040787192821454;0.0013631342273056626;0.133578056490262;1;53.71891017;86.83124553
-2.265216634331144;1.5591480881582274;-0.0683185479759355;0.022435595219322584;3.5975084260918933;0.37803870001923123;0.14291325871223032;3.928335655970624;1.0667601445048343;-0.9207708779443254;0.039328200127905076;0.001546707325300553;0.12644029774650767;0.040787192821454;0.0007336021155411978;0.0876924645661261;1;53.71864832999999;86.83125249
2.908916722710451;1.6925106232454044;-0.0652595085143265;0.02110323952267682;3.928335655970624;0.4098643119080174;0.1679887541758326;3.928335655970624;1.0667601445048343;-0.9207708779443254;0.03858204140285412;0.0014885739188115498;0.12644029774650767;0.040787192821454;0.0008627617905306757;0.0876924645661261;1;53.71837192;86.83128583999999
0.1826582553269254;1.6527011241196536;-0.0448659121035994;0.02193194105113132;2.8945211126124635;0.3965087482156915;0.15721918741157462;3.928335655970624;1.0667601445048343;-0.9207708779443254;0.04089330683918598;0.0016722625442438153;0.12644029774650767;0.040787192821454;0.0008157421235175113;0.0876924645661261;1;53.718083060000005;86.83133746000001
-1.007866183341346;1.497069643351534;-0.037728153359845;0.022521360106969722;3.284003875038995;0.3879630125321497;0.15051529909302094;3.928335655970624;1.0667601445048343;-0.9207708779443254;0.041887795312237866;0.0017545873961199363;0.12644029774650767;0.040787192821454;0.0006561063105475089;0.0876924645661261;1;53.717794409999996;86.83139185
0.8654135419879816;1.4885035815831713;-0.0061180789232181;0.02362906160023962;3.5262320125224553;0.3507824306321746;0.12304831364021641;3.928335655970624;1.0667601445048343;-0.9207708779443254;0.03916187846460829;0.0015336527248767504;0.12185173855409415;0.040787192821454;0.0006423585454994337;0.0876924645661261;1;53.71750282000001;86.83145098
-1.8145020625018948;1.460021136348391;-0.0560823901294993;0.025729943254875515;3.837579764313582;0.3054859911213878;0.09332169077141662;3.928335655970624;1.0338145433581607;-0.9207708779443254;0.04096133502127918;0.0016778309667254722;0.12185173855409415;0.040787192821454;0.0006150247538156137;0.0876924645661261;1;53.71720761;86.83150649000001
-0.486378021586383;1.4496027563861509;-0.0683185479759355;0.029860354346347675;3.339101444835027;0.31473092290782295;0.09905555383441;3.928335655970624;1.0338145433581607;-0.9207708779443254;0.039666032866106635;0.0015733941633350517;0.12185173855409415;0.0316100744366268;0.0006073306264861873;0.0785153461812989;1;53.71690788000001;86.83156004
-0.4514421471358523;1.586122733983646;-0.0836137452839808;0.04038427021418782;3.270605857016886;0.47457039739353385;0.22521706208225664;4.637105881854612;1.7425847692421481;-0.9584990313041704;0.03219890086184007;0.0010367692167106049;0.08412358519424923;0.0316100744366268;0.0007596188944388992;0.0917711838482715;1;53.716604069999995;86.83160439000001
-1.06033347212864;1.5883487388761128;-0.0336494340776996;0.042570055129146085;3.4506891496792353;0.46016884386610796;0.21175536486507043;4.637105881854612;1.6372776618478015;-0.9584990313041704;0.030620639607169074;0.0009376235699521314;0.08412358519424923;0.0316100744366268;0.0007615828608743386;0.0917711838482715;0;53.71630655;86.83163199
-0.1828479035527191;1.5409878471162952;-0.0101967982053635;0.04556345080979629;3.215156955667379;0.48715604846241956;0.23732101555351928;4.637105881854612;1.6558991564850385;-0.9584990313041704;0.02669406738869755;0.0007125732337523261;0.07341694707861746;0.0316100744366268;0.0007132692865625317;0.0917711838482715;0;53.7160116;86.8316468
1.9609593395694185;1.5242867804399862;0.0081574385642908;0.05123049750992983;3.716570841933719;0.5159526467678786;0.26620713370677923;4.637105881854612;1.681312370643786;-0.9584990313041704;0.027327292364231474;0.0007467809079601838;0.07341694707861746;0.0316100744366268;0.000696933706917172;0.0917711838482715;0;53.71572351;86.83164031
3.5126355229407547;1.621159383648898;-0.1274599775670439;0.05375785796780332;4.637105881854612;0.5707959523226751;0.32580801918794955;4.637105881854612;1.681312370643786;-0.9584990313041704;0.028821666949161603;0.0008306884857283942;0.07341694707861746;0.0188640766799225;0.000805229126716044;0.0790251860915672;0;53.71545007000001;86.83161263
-0.1196203807877309;1.7927959394469026;-0.0887121443866625;0.05883011577191833;2.99982822000681;0.640937732600976;0.4108011770716801;4.637105881854612;1.681312370643786;-0.9584990313041704;0.02538436201136231;0.0006443658347238941;0.07341694707861746;0.0188640766799225;0.0009898419716473387;0.0800448659121035;1;53.71519781000001;86.83155749
-0.0576213766783349;1.7893271899829875;-0.1050270215152442;0.06860457564048926;2.981206725369573;0.6348185107648237;0.40299454160966847;4.637105881854612;1.681312370643786;-0.9584990313041704;0.023988134834537926;0.000575430612839972;0.0652595085143266;0.0188640766799225;0.0009784047553468398;0.0800448659121035;1;53.714961300000006;86.83148482
0.0566366914236777;1.7419394766719583;-0.1560110125420618;0.06844643782958579;2.9557935112108256;0.7023035417597083;0.49323026476823034;4.652739780600955;1.6969462693901294;-0.9584990313041704;0.023534756122994546;0.0005538847457688292;0.0652595085143266;0.003059039461609;0.0009324103943404122;0.0734169470786172;1;53.71473354;86.83140298000001
3.1350187604648254;1.6779667571825372;-0.0193739165901906;0.06712707144115392;4.2854978636432675;0.7048364086443081;0.49679436295060597;4.652739780600955;1.6969462693901294;-0.971754868971143;0.019318679728494652;0.00037321138645215015;0.05200367084735391;0.0020393596410727;0.000864849948961301;0.0723972672580809;1;53.714513880000005;86.83132667999999
3.4751457697489907;1.6940284146961029;0.0071377587437544;0.06377687680681914;4.437475322480293;0.7019677765359056;0.4927587592947631;4.652739780600955;1.6969462693901294;-0.971754868971143;0.018874331932579935;0.00035624040590120654;0.05200367084735391;0.0020393596410727;0.000881751613049817;0.0723972672580809;1;53.7142738;86.83125812
2.7953887719258232;1.6973012259702216;0.0560823901294993;0.05938318269287948;3.8587278861488286;0.6732637590453291;0.4532840892438469;4.652739780600955;1.6969462693901294;-0.9727745487916796;0.01617977667028548;0.0002617851731003143;0.05098399102681739;0.0020393596410727;0.0008906703312154585;0.0723972672580809;1;53.71403764;86.83120371999999
3.966485078945425;1.5131559603532765;-0.0479249515652085;0.0580959290416039;4.652739780600955;0.7258442083491834;0.5268498147940528;4.652739780600955;1.9717927251575218;-0.979912307535434;0.012498185791539792;0.00015620464807984712;0.04384623228306295;0.0010196798205363;0.0007084257987504292;0.0713775874375445;0;53.71379631999999;86.83116976
3.793801917705695;1.2252015875683513;-0.0499643112062812;0.054233617184130306;4.48511790216843;0.7126874196485593;0.5079233581253217;4.652739780600955;1.9717927251575218;-0.979912307535434;0.012553064350374956;0.00015757942458465463;0.04384623228306295;-0.0010196798205363;0.00046535607050547114;0.0693382277964719;0;53.71355148;86.83115276000001
3.088003807844405;1.0762817048747737;-0.0703579076170082;0.035476172158089334;3.9619913151248936;0.9156931270206125;0.8384939028727876;4.652739780600955;2.762250335176569;-0.979912307535434;0.011516816003330765;0.00013263705085457563;0.04384623228306295;-0.0122361578464362;0.00036026076072199223;0.05812174977057201;0;53.7133105;86.83115242
3.555423330764658;1.880935060117596;-0.0392576730906494;0.035476172158089334;4.326415978786061;0.944526292575624;0.8921299173666534;4.652739780600955;2.762250335176569;-0.979912307535434;0.009468941025778341;8.966084414966818e-05;0.03364943407769949;0.0367084735393086;0.001082503640982927;0.10706638115631681;0;53.71306373;86.83117956999999
1.328839831552184;2.383622655590034;-0.0326297542571632;0.033458388430800706;2.680947055443433;0.9075612176605975;0.8236673638015864;4.652739780600955;2.762250335176569;-0.979912307535434;0.009555777650415705;9.13128865041843e-05;0.03364943407769949;0.0469052717446721;0.0017437826925390779;0.1172631793616803;0;53.712800779999995;86.83123150000002
2.272688129566573;2.6537121949239246;-0.037728153359845;0.013532811308770277;3.083142928217396;0.9138648371357839;0.8351489405532129;4.652739780600955;2.762250335176569;-0.9931681452024064;0.00810130465881171;6.563113717488432e-05;0.02651167533394516;0.0469052717446721;0.0021768719497846584;0.1172631793616803;0;53.71252181;86.83130581
0.6989871470396261;2.504310212193223;-0.0346691138982359;0.013335018552643888;1.8904894454243857;0.87362541598087;0.7632213674477482;4.48511790216843;2.5946284567440445;-0.9931681452024064;0.007570545666173054;5.7313161683611607e-05;0.02651167533394516;0.0469052717446721;0.0019295392591004218;0.11318446007953491;0;53.71223166;86.8313843
-2.116342666867964;2.2566895788691497;-0.0193739165901906;0.01669504068895867;2.776243053005895;0.7975852502890217;0.6361422314786015;4.326415978786061;2.435926533361675;-0.9931681452024064;0.009876809612554216;9.755136812264336e-05;0.03262975425716341;0.0469052717446721;0.0015690474435036677;0.1091057407973894;0;53.71193257;86.83146153
-2.6612408279699817;2.1618585596327513;-0.0367084735393086;0.013442875649719677;3.13687599076798;0.706417958579816;0.49902633220407466;4.326415978786061;2.435926533361675;-0.9676761496889976;0.0158264031599393;0.00025047503698093665;0.05812174977057216;0.0469052717446721;0.00143024122749306;0.1091057407973894;0;53.71163987;86.83151955000001
-2.346536079688191;1.8844095714815885;-0.0336494340776996;0.013491665217237266;2.908047358920291;0.4887166545600959;0.2388439684444121;3.13687599076798;1.2463865453435943;-0.9676761496889976;0.015875599433897;0.00025203465738555066;0.05812174977057216;0.0469052717446721;0.001086061886054191;0.0866727847455898;0;53.71132816000001;86.831556
-0.579348594448535;1.8522386983193322;-0.0438462322830631;0.014303410042856434;2.1324976847259323;0.5380302399245723;0.2894765390732929;3.13687599076798;1.3047991459522337;-0.9676761496889976;0.016242489218041247;0.0002638184559981861;0.05812174977057216;0.0469052717446721;0.001048527021649825;0.0866727847455898;0;53.71101736000001;86.83156776000001
0.3976827758208797;1.8179248085869875;-0.0723972672580809;0.021072286499312053;2.004126778661897;0.4996777627337852;0.24967786657064098;3.13687599076798;1.3047991459522337;-0.9676761496889976;0.016624916276029755;0.000276387841184999;0.05812174977057216;0.0469052717446721;0.0010141460562858992;0.0856531049250534;0;53.71067891;86.83154162999999
2.2908864478317;1.9851275506656618;-0.0418068726419904;0.021073382957751245;2.988594924354593;0.5131034987743499;0.2632752004544793;3.2092229931352225;1.3771461483194762;-0.9676761496889976;0.017992204764260684;0.00032371943227908485;0.05812174977057216;0.0469052717446721;0.001202883230731617;0.0907515040277352;0;53.710337700000004;86.8315025
1.3296790403469196;2.0205427808507217;-0.0428265524625267;0.0208041339977388;2.0727048735000024;0.6529266779888961;0.4263132468296157;3.8437938856464138;2.0117170408306677;-0.9676761496889976;0.017852973057289962;0.00031872864698432126;0.05812174977057216;0.0469052717446721;0.0012501917163382295;0.10298766187417141;0;53.70999898;86.83145306
0.8042877424349356;1.6874410397341526;-0.023452635872336;0.021177355833303855;1.8320768448157463;0.662515872551139;0.438927281382197;3.8437938856464138;2.0117170408306677;-0.9676761496889976;0.01803068943572677;0.00032510576152762895;0.05812174977057216;0.0418068726419904;0.0008706609790614535;0.09788926277148971;0;53.70966575999999;86.83139888000001
2.008447107228447;1.265906952630192;0.0101967982053635;0.02324140646333975;2.633547823263793;0.813779567416623;0.6622371843447861;4.177088845827048;2.345012001011302;-0.9676761496889976;0.017285837093889297;0.00029880016403647917;0.05812174977057216;0.0101967982053635;0.00048522678973462113;0.0693382277964718;0;53.70934361;86.83134553000001
2.5473552859545925;0.9603462498399666;-0.0326297542571632;0.02271348085487177;3.2092229931352225;0.7857167403123889;0.6173507960071261;4.177088845827048;2.345012001011302;-0.9676761496889976;0.01899270571749872;0.00036072287047150847;0.060161109411644764;-0.0071377587437544;0.00027708100580926885;0.0520036708473539;0;53.70903253;86.83129813
3.224453502504164;0.9596615034889105;-0.023452635872336;0.02204915985164351;3.8437938856464138;0.7260302230668412;0.5271198848064871;4.177088845827048;2.345012001011302;-0.9676761496889976;0.018075484658811522;0.0003267231456509307;0.060161109411644764;-0.0071377587437544;0.00027708100580926885;0.0520036708473539;0;53.70872306;86.8312549
2.3439594966553785;1.0535071734138506;-0.0209034363209952;0.02302566836825034;3.2480151054442725;0.732792333739872;0.5369846043879279;4.177088845827048;2.345012001011302;-0.9850107066381156;0.012800942042602395;0.0001638641171780656;0.04282655246252676;-0.0071377587437544;0.0003366007415468175;0.0520036708473539;0;53.70843363;86.83123171
3.356265485183082;1.403016819785307;-0.0020393596410727;0.024319892199398226;4.177088845827048;0.6732926010690979;0.45332292665439144;4.177088845827048;2.345012001011302;-0.9850107066381156;0.013885378649552658;0.00019280374024145281;0.04282655246252676;0.0193739165901906;0.0006054099828397679;0.07851534618129889;0;53.70816459;86.83123147
1.874597402989302;1.630705430426647;-0.023452635872336;0.030730985629857887;3.2431876636261734;0.563748816062251;0.3178127276115897;4.177088845827048;1.6476425880059082;-0.9850107066381156;0.014470035504631957;0.00020938192750530942;0.04282655246252676;0.0193739165901906;0.0008223358520059074;0.07851534618129889;0;53.70790063;86.83125679
0.4013383055430336;2.598817707187915;-0.0693382277964719;0.026334655774677737;2.646595440581276;0.9406764941754645;0.8848722666942428;5.575498808545786;3.0460525507246468;-0.9850107066381156;0.01578547210831218;0.0002491811296823018;0.04588559192413577;0.0917711838482716;0.002137904545156796;0.1509126134393799;0;53.70765977;86.83131801
0.5802974876543856;2.5173463111274987;-0.0520036708473539;0.027811132329282912;2.675498436421432;0.9989772595489431;0.9979555650959165;5.575498808545786;3.252845711317406;-0.9952075048434792;0.013234468172540224;0.00017515114780998017;0.035688793718772205;0.0917711838482716;0.002013238887481351;0.1509126134393799;0;53.70740651999999;86.83138476
-1.081456895237733;2.330743140947867;-0.0560823901294993;0.026633463043540927;2.694134362500413;1.036864363751712;1.0750877088182427;5.575498808545786;3.4096227671563706;-0.9962271846640156;0.01161818651224793;0.00013498225783337974;0.03466911389823579;0.0917711838482716;0.0017370821011711082;0.1509126134393799;0;53.70714031;86.83144623000001
-1.0800136357723948;2.271261043852323;-0.0897318242071989;0.024871270789828048;2.5294462578211396;1.050062851386706;1.1026319918623795;5.575498808545786;3.4096227671563706;-1.00336494340777;0.009517163395198862;9.057639909091313e-05;0.02753135515448135;0.0917711838482716;0.0016574028276109616;0.1509126134393799;0;53.70686511;86.83149359000001
-5.080678415495571;2.3143542783718423;-0.0520036708473539;0.019926270336596823;5.575498808545786;1.032857832860596;1.0667953029014867;5.575498808545786;3.4096227671563706;-1.00336494340777;0.009718956784904574;9.445812098684266e-05;0.02753135515448135;0.0917711838482716;0.0017379485569514502;0.1570306923625981;1;53.706583699999996;86.83152706
0.5807017938048282;2.2773366918063838;-0.0734169470786173;0.018757674783427193;2.3226530972283803;1.069494551094905;1.1438185948216926;5.575498808545786;3.4575036525876532;-0.9972468644845518;0.011438936303745933;0.00013084926376115668;0.0336494340776996;0.0917711838482716;0.0016794916736377855;0.1570306923625981;0;53.70629469000001;86.83154013000001
0.4026110428155546;2.371186741639372;-0.0489446313857448;0.02271163699851966;2.165876041389416;1.0708045909818062;1.1466224720677134;5.575498808545786;3.4575036525876532;-0.9972468644845518;0.012002733130303722;0.00014406560259729059;0.0336494340776996;0.0917711838482716;0.0018214517886888343;0.1570306923625981;0;53.70600605;86.83153565
1.6624665404165384;2.3951312970096614;-0.0591414295911083;0.03337900775674312;2.57288455907562;1.1759798898611626;1.3829287013578722;5.575498808545786;4.181853513979785;-0.9972468644845518;0.013138644721481976;0.00017262398511732618;0.0336494340776996;0.0917711838482716;0.0018558327540527599;0.1570306923625981;0;53.705712719999994;86.83151624
3.6244845786362743;2.3542669273941548;-0.0275313551544814;0.03986330128490476;4.023140248930339;1.3171689278306704;1.7349339844425977;5.575498808545786;4.6435560889506835;-0.9972468644845518;0.013615366840593836;0.00018537821420394217;0.0336494340776996;0.0917711838482716;0.0017941439906784251;0.1570306923625981;0;53.705422150000004;86.83149958999999
1.3465652898622675;2.3342380997128074;-0.0305903946160905;0.03633775444719353;2.117995155958133;1.4329484249999342;2.0533411887097923;5.575498808545786;4.728664779901847;-0.9972468644845518;0.013412763088647606;0.00017990221367218768;0.0336494340776996;0.0917711838482716;0.0017637140636728539;0.1570306923625981;0;53.70512569;86.83156153
2.2155640495694087;1.4457645871123637;-0.0112164780258998;0.03695938878778605;2.605148990439284;1.0103657294331279;1.0208389072129367;4.023140248930339;3.2151104007103752;-0.9952075048434792;0.013169384085027451;0.00017343267717897433;0.034669113898236015;0.0142755174875089;0.0006677745817227689;0.0795350260018354;0;53.70485509;86.83167492999999
-0.8198166501573226;1.4994053523547637;0.0275313551544814;0.031159149278041715;1.3936452945660007;1.100586422065845;1.211290472435698;4.023140248930339;3.514476408613427;-0.9952075048434792;0.012952676663431941;0.0001677718327474144;0.034669113898236015;0.0142755174875089;0.0007178903840576847;0.0795350260018354;0;53.70461444;86.831849
0.4373892413919737;1.502120396285405;0.0300805547058223;0.029495216806071846;0.9319427195951031;1.1836498033845184;1.4010268570522089;4.023140248930339;3.703665278396114;-0.9941878250229428;0.013973809890060914;0.0001952673628435642;0.03568879371877243;0.0142755174875089;0.0007206861480422513;0.0795350260018354;0;53.70440261;86.83208772999998
-0.7440383212413274;1.6472507932033567;0.0076475986540226;0.02381582470868624;0.846834028643939;1.1396461731878986;1.298793400061822;4.023140248930339;3.703665278396114;-0.9941878250229428;0.014235402274123964;0.00020264667790613375;0.03568879371877243;0.0326297542571632;0.0008672673605884505;0.09788926277148971;0;53.70421758;86.83239422
-0.7630001506552684;1.1736542221972563;0.0173345569491179;0.022395588167761615;0.8080298482199637;0.7878904738695105;0.6207713988143219;2.605148990439284;2.285674019905059;-0.9809319873559702;0.014957235121640024;0.00022371888248402184;0.04690527174467218;0.0326297542571632;0.0004344091582176262;0.0723972672580809;0;53.704055870000005;86.83276499
-0.4610894803084037;1.1192968220095385;-0.0122361578464362;0.0221142306031235;0.5086638403169121;0.7153694901417832;0.5117535074257149;2.605148990439284;2.285674019905059;-0.9809319873559702;0.014814044688900626;0.00021945592004474484;0.04690527174467218;0.0326297542571632;0.00039679342460709465;0.0723972672580809;0;53.70391914;86.83320426
0.2936434506285734;0.812237046866697;-0.0346691138982359;0.023444999345372326;0.3194749705342249;0.4673973652699598;0.21846029706130018;1.8462451848368195;1.5267702143025947;-0.9809319873559702;0.015738563418681437;0.0002477023784838575;0.05200367084735402;0.0326297542571632;0.0002063435559022362;0.0479249515652084;0;53.703808790000004;86.83370319
-1.8309184457980463;0.846902924802621;-0.0101967982053635;0.020953531277909332;1.8462451848368195;0.43616206239533417;0.1902373446729514;1.8462451848368195;1.5267702143025947;-0.9809319873559702;0.015481009942581083;0.00023966166884229433;0.05200367084735402;0.0326297542571632;0.00022474707667667631;0.0479249515652084;1;53.703724;86.83426352000001
-0.2382326571418588;0.8288993017537305;-0.0040787192821454;0.017642474598872176;0.3523971551041059;0.4394689267953088;0.1931329376186205;1.8462451848368195;1.5267702143025947;-0.9809319873559702;0.01552534847747715;0.00024103644534710205;0.05200367084735402;0.0326297542571632;0.0002153460314599778;0.0479249515652084;0;53.703658960000006;86.8348692
0.8756574343915512;0.807436382271832;-0.0285510349750178;0.01744450695203079;0.957490310994685;0.44485167932197506;0.19789301659558134;1.8462451848368195;1.5267702143025947;-0.9809319873559702;0.014824958579011487;0.00021977939686940631;0.05200367084735402;0.0326297542571632;0.00020413987003423608;0.0479249515652084;0;53.703625699999996;86.8354401
0.4805822419833698;0.8117083348898241;-0.0275313551544814;0.014195987523365466;0.7234570437043019;0.47008825382119473;0.22098296638066;1.8462451848368195;1.5267702143025947;-0.9809319873559702;0.014480011950919204;0.00020967074609876295;0.05200367084735402;0.0326297542571632;0.00020663526268161804;0.0479249515652084;0;53.70359877;86.83600453
0.7523240473426325;0.8709636746741797;0.0020393596410727;0.014581381819015339;1.0509708665970723;0.4918899133894963;0.24195568689432617;1.8462451848368195;1.5267702143025947;-0.9809319873559702;0.014480011950919204;0.00020967074609876295;0.05200367084735402;0.0326297542571632;0.0002380125146736957;0.0530233506678902;0;53.7035738;86.83656068
-0.4672179775398708;0.8889831514489354;0.0081574385642908;0.019885644706768624;1.02538758589698;0.42368736317692135;0.17951098171581245;1.8462451848368195;1.4938480297327137;-0.9809319873559702;0.015577720700222628;0.00024266538221414457;0.05200367084735402;0.0326297542571632;0.0002482251401379799;0.0530233506678902;0;53.70355163000001;86.83712987
-0.1751590364604996;1.1667066425127892;-0.0254919955134087;0.020365535910787307;1.061769022621524;0.7129463594277146;0.508292511421232;3.0169452883473;2.664548133243194;-0.9809319873559702;0.015861038668260313;0.0002515725476360489;0.05200367084735402;0.0520036708473539;0.0004317289216704385;0.0723972672580809;0;53.70352934;86.83771686
0.641061411630935;1.5827463544814477;-0.0142755174875089;0.020936156527854844;1.3564897987671587;0.9325433957680638;0.8696371849906317;3.45801610539759;2.734559061693288;-0.9952075048434792;0.013491665217237717;0.00018202503033402204;0.03772815335984503;0.0591414295911083;0.0007767169551709584;0.07953502600183529;0;53.70350771999999;86.83830708
1.152667720830682;1.7352643735526763;-0.0040787192821454;0.02063826806861064;1.6131518389428445;1.0326282240715599;1.0663210491491835;3.45801610539759;2.734559061693288;-0.9737942286122158;0.017708406930635502;0.0003135876760209795;0.05914142959110846;0.0591414295911083;0.0009175911123106453;0.07953502600183529;0;53.703487759999994;86.8388964
-0.4534936240318397;1.7166827825172855;-0.0601611094116447;0.020670429952027843;1.1053623000793;0.9682213473971725;0.9374525775555962;3.45801610539759;2.43262851950061;-0.9737942286122158;0.01566461863540075;0.0002453802769925445;0.05506271030896304;0.0591414295911083;0.0008967239689341026;0.07953502600183529;0;53.70347116000001;86.83948907999999
-2.90647019236347;1.6191954155174029;-0.0326297542571632;0.019888912332525537;3.0169452883473;0.9226432354778309;0.8512705399730002;3.45801610539759;2.43262851950061;-0.9737942286122158;0.017902085466014586;0.0003204846640324907;0.05506271030896304;0.0591414295911083;0.000795348642634221;0.07953502600183529;0;53.70346163000001;86.84007603
-3.4008654152913507;1.7262532078557866;0.0020393596410727;0.017960473235273382;3.45801610539759;0.9704793267205941;0.9418301235920578;3.512508450806779;2.450739428185255;-0.9737942286122158;0.02392351306807252;0.0005723344775182367;0.07749566636076255;0.0632201488732537;0.0009300998455928325;0.08361374528398069;1;53.70346757;86.84070661000001
-3.116010574196115;1.690902932070214;-0.020393596410727;0.018802043680542002;3.144432070322562;0.8928656812699435;0.7972091247896403;3.512508450806779;2.407146150727479;-0.9737942286122158;0.02675221340034937;0.0007156809218178324;0.07749566636076255;0.0632201488732537;0.0009002360030304164;0.08361374528398069;1;53.70348228;86.84133316
-1.993095555311551;1.51773996756087;-0.0040787192821454;0.018969044378826544;2.033128385118094;0.8708915218554235;0.7584520428396556;3.513229808467612;2.407867508388312;-0.9737942286122158;0.027697443838197045;0.0007671483951700795;0.07749566636076255;0.0632201488732537;0.0007207063653437886;0.08361374528398069;1;53.70350886999999;86.84196134999999
-1.9150176113955049;1.0381184810811666;-0.0107066381156316;0.020547736148550117;1.9927237954322727;0.9191478196875533;0.844832714436383;3.513229808467612;2.407867508388312;-0.9737942286122158;0.027844085179895627;0.0007752930795052832;0.07749566636076255;0.0632201488732537;0.0003403553832616228;0.0550627103089629;1;53.70355157;86.84259029
-3.4408595111187115;0.7611882708560526;-0.0183542367696543;0.012631163018741889;3.512508450806779;0.7606901880659999;0.5786495622198863;3.513229808467612;2.2348676577223605;-0.9737942286122158;0.02700301786393389;0.0007291629737599328;0.07749566636076255;0.0632201488732537;0.00018795158787153265;0.0418068726419904;1;53.70361081;86.84319481
-2.792701038751104;0.7944904632584255;0.0010196798205363;0.011375131561884036;2.8461296788802453;0.78039788414962;0.6090208575852036;3.513229808467612;2.2348676577223605;-0.9737942286122158;0.026922679934550116;0.0007248306948582274;0.07749566636076255;0.0632201488732537;0.00020126034865756832;0.0418068726419904;1;53.70368972;86.8437806
-3.4877677827129494;0.7431343897096583;-0.0081574385642908;0.01114531241624033;3.513229808467612;0.7249472659599445;0.5255485384227985;3.513229808467612;2.2348676577223605;-0.9646171102273886;0.029643097703289437;0.0008787132414467636;0.0866727847455897;0.0632201488732537;0.00018063870108545572;0.0418068726419904;1;53.70378674;86.84435634
-1.2287548219285256;0.781996366653038;0.0112164780258998;0.009787657496072305;1.2783621507452514;0.7964531579323966;0.634337632780487;3.7135667522513565;2.435204601506105;-0.9646171102273886;0.029507160686945207;0.0008706725318052047;0.0866727847455897;0.0632201488732537;0.00020943969122398635;0.0418068726419904;1;53.70390209;86.84492737000001
-2.4639476420967665;0.824856243608469;-0.0101967982053635;0.01683973087599364;2.5108246484807037;0.7753345201205385;0.6011436180905457;3.7135667522513565;2.435204601506105;-0.9646171102273886;0.029420703115608945;0.000865577771816802;0.0866727847455897;0.0632201488732537;0.00022925264673444778;0.0418068726419904;1;53.70403205;86.84549253
-1.884267494439029;1.593169935871666;0.0132558376669725;0.01844715749222469;2.0624852332054413;0.744732705013853;0.5546268019172506;3.7135667522513565;2.435204601506105;-0.9646171102273886;0.02893288459947726;0.0008371118112466683;0.0866727847455897;0.0632201488732537;0.0007933153597363533;0.0948302233098805;1;53.70417313;86.84604833
-2.239782528050537;1.6487792897094284;-0.0050983991026817;0.02853099851941113;2.509931625200349;0.698494574423564;0.4878946704991558;3.7135667522513565;2.435204601506105;-0.9646171102273886;0.024940153880662258;0.0006220112755911127;0.0805547058223719;0.0622004690527174;0.0008361991444913581;0.0938105434893442;1;53.704317270000004;86.84654830999999
-3.445986999587612;1.6406082729065237;-0.0050983991026817;0.03213115223790599;3.7135667522513565;0.6939451481816273;0.4815598686848207;3.7135667522513565;2.435204601506105;-0.9646171102273886;0.02218672706658784;0.0004922508579272614;0.06831854797593562;0.0622004690527174;0.0008186736322409975;0.0938105434893442;1;53.70447051;86.84704715000001
-1.548065452251968;1.7986508946527653;-0.0469052717446721;0.03297858165882211;2.4130024379879655;0.6701062912814967;0.4490424416150421;3.7135667522513565;2.435204601506105;-0.9646171102273886;0.021572916556105597;0.0004653907287366949;0.06831854797593562;0.0622004690527174;0.0010002481055692302;0.0968695829509533;0;53.70462568000001;86.84754536
1.846650385144232;1.8350376737827723;-0.0316100744366269;0.03512283486671283;2.9177463806429973;0.4928919560539144;0.24294248034265387;3.7135667522513565;1.6510815190459152;-0.9646171102273886;0.02186546928031414;0.0004780987468483613;0.06831854797593562;0.0622004690527174;0.0010423000927751074;0.0968695829509533;0;53.70477475;86.84804515
0.1156325632497852;1.840973820223934;-0.078515346181299;0.04367450017822005;2.335747989195734;0.5032092677441798;0.2532195671436337;3.7135667522513565;1.6510815190459152;-0.9646171102273886;0.021455047756548273;0.00046031907423576705;0.06831854797593562;0.0622004690527174;0.0010565677312913873;0.0968695829509533;0;53.70491399;86.84854791000001
-0.5109342444708991;1.9973281100290645;-0.0683185479759355;0.050325328545302375;2.6575538669026284;0.5450351052183665;0.29706326592039584;3.921163039490819;1.5854150502950852;-0.9646171102273886;0.025169550167023252;0.0006335062556103002;0.06831854797593562;0.0622004690527174;0.001224174937440526;0.1080860609768532;0;53.70503659;86.84904427000001
1.9610070298405309;2.140569575082874;0.0040787192821454;0.053379586624982725;3.3398472075039822;0.7378835960420994;0.5444722013080201;4.687570854314565;2.351822865118831;-0.9646171102273886;0.021144803981111644;0.00044710273539963485;0.06831854797593562;0.0622004690527174;0.001432413143315783;0.1294993372081166;0;53.70512709;86.84952132999999
0.286086275169289;1.89588275882884;0.0275313551544814;0.05044742179015163;2.8234195569208302;0.9336264023194797;0.8716582591080149;5.03682548200981;2.7010774928140764;-0.9646171102273886;0.019769111459766966;0.00039081776790868966;0.062200469052717366;0.0275313551544814;0.0010961820895685748;0.10400734169470771;0;53.70518036;86.84996372
1.3172882015055205;1.8741637128925308;-0.1040073416947078;0.05182274616693073;3.1541121958380525;1.0802102052530906;1.1668540875329243;5.4272262369436435;3.0914782477479097;-0.9646171102273886;0.020034683137720163;0.00040138852842884856;0.062200469052717366;0.0091771183848271;0.0010909140384241039;0.0978892627714896;0;53.70519770000001;86.85036506
2.70036863526705;2.1020359131107247;-0.1264402977465075;0.05237734942362906;3.921163039490819;1.1880865319057299;1.411549607295785;5.462405886793553;3.126657897597819;-0.9646171102273886;0.018207622972320234;0.0003315175343021636;0.062200469052717366;0.0091771183848271;0.0013750191124260076;0.0999286224125624;1;53.705181859999996;86.8507281
3.82241116956448;2.0120177796283842;-0.1182828591822167;0.053354827130485526;4.687570854314565;1.0712458187066465;1.147567604096473;5.462405886793553;2.8048520198909244;-0.9646171102273886;0.01827981290589155;0.00033415155987439926;0.062200469052717366;0.0091771183848271;0.0012594801223034875;0.0999286224125624;0;53.70513383;86.85104871000001
4.408655303159074;1.6596770966110699;-0.0601611094116447;0.05582142988722106;5.03682548200981;0.9418938338259881;0.887163994199418;5.462405886793553;2.6389863298727225;-0.9646171102273886;0.016843074993223305;0.00028368917522734425;0.05608239012949934;-0.0050983991026817;0.0008561622856704206;0.0856531049250536;0;53.70505092;86.85132675999999
4.966183493179908;1.6108844123057156;-0.0214132762312633;0.05818355859848964;5.4272262369436435;0.8812461650273141;0.7765948033753481;5.462405886793553;2.6389863298727225;-0.9646171102273886;0.016550045355870194;0.0002739040012813606;0.05608239012949934;-0.0050983991026817;0.0008090270912198776;0.0856531049250536;0;53.70492543;86.85156223
5.140866795022268;1.1628244870536004;-0.0229427959620679;0.05321172762079798;5.462405886793553;0.8206456240963022;0.6734592403484092;5.462405886793553;2.312976543759595;-0.9646171102273886;0.015586617595355488;0.0002429426480638453;0.05608239012949934;-0.023452635872336;0.0004264002186213487;0.06729886815539929;0;53.70477383;86.85175367000001
4.367029711276024;0.816550894489247;-0.0142755174875089;0.05290624686614529;4.62394462422966;0.8108144563296821;0.657420082593198;5.462405886793553;2.312976543759595;-0.9646171102273886;0.014904620402266606;0.00022214770933566194;0.05608239012949934;-0.0458855919241358;0.0002190400212701711;0.0448659121035995;0;53.70459645;86.85189885000001
4.20610590072084;0.67899276306289;0.0071377587437544;0.04251143018753554;4.387598290848063;0.8093367216637268;0.6550259290333889;5.462405886793553;2.312976543759595;-0.9901091057407974;0.008202632475578238;6.728317952941077e-05;0.030590394616090588;-0.0540430304884266;0.00014736679912037446;0.0367084735393087;0;53.70439416000001;86.85199608
4.29066872454891;0.7293922619812248;0.0254919955134087;0.02672872164800116;4.413050188882693;0.8319078894863451;0.692070736589625;5.462405886793553;2.312976543759595;-0.9758335882532884;0.012084149984454211;0.0001460266808467847;0.04486591210359958;-0.0540430304884266;0.0001620734418986936;0.0367084735393087;0;53.70418849;86.85206177
3.059645415509752;0.7814757033798791;-0.0336494340776996;0.019962473356134304;3.1494293430339577;0.8416760021894186;0.7084184926615623;5.462405886793553;2.312976543759595;-0.9758335882532884;0.01263973469464955;0.00015976289315112753;0.04486591210359958;-0.0540430304884266;0.00019205281189848793;0.037728153359845;0;53.70398702999999;86.85211119
3.1436695835637725;0.7606161451896049;0.020393596410727;0.019753034374573944;3.2120312370132362;0.7804817052238863;0.6091516921891853;5.462405886793553;2.312976543759595;-0.9758335882532884;0.011405939121012952;0.00013009544723225372;0.04384623228306317;-0.0540430304884266;0.0001786054181875976;0.037728153359845;0;53.70378727;86.85214694999999
3.9070979425430297;0.7274862182059603;-0.0010196798205363;0.01798232981037625;3.942654967573643;0.708391333807979;0.5018182818142476;5.15600341751302;2.006574074479062;-0.9758335882532884;0.011803647295595337;0.0001393260894788151;0.04384623228306317;-0.0540430304884266;0.0001594394163264573;0.037728153359845;0;53.703579790000006;86.85217243000001
5.075250884385457;0.7266984460517155;0.0122361578464362;0.018475395927159043;5.076694468491793;0.7021723171299956;0.49304596294370717;5.15600341751302;2.006574074479062;-0.9758335882532884;0.011821251551903425;0.00013974198825337914;0.04384623228306317;-0.0540430304884266;0.00015906972852684518;0.037728153359845;0;53.70337198;86.85218734
5.142656502961537;0.7611826020986383;0.0066279188334862;0.019842971054262533;5.15600341751302;0.7339997902290453;0.5387556920562824;5.15600341751302;2.006574074479062;-0.9758335882532884;0.011834071479271206;0.00014004524777650018;0.04384623228306317;-0.0540430304884266;0.0001758905234091961;0.037728153359845;0;53.703147799999996;86.85218588000001
4.681266334620524;0.8293619205483257;0.0193739165901906;0.018279259902218386;4.701558699384913;0.8070588533792346;0.6513439928178049;5.15600341751302;2.006574074479062;-0.9758335882532884;0.012270217788530333;0.00015055824457796621;0.04384623228306317;-0.0540430304884266;0.0002116578180216673;0.037728153359845;0;53.70293549;86.85217324999999
4.82211293786414;0.7273589273586772;-0.0050983991026817;0.015554434979920682;4.8320163667188245;0.7151281352546908;0.5114082498328513;5.15600341751302;1.9439721804997836;-0.9758335882532884;0.01257157199876396;0.00015804442252010607;0.04384623228306317;-0.0550627103089629;0.0001667754086000103;0.0367084735393087;0;53.70272281;86.85214489
4.242122049799577;0.5958765236118893;-0.0183542367696543;0.015716986186583175;4.246440142375324;0.5933768573113635;0.3520960947927102;5.15600341751302;1.8512558537452044;-0.9758335882532884;0.013681390361620329;0.00018718044222703763;0.04384623228306317;-0.0571020699500356;0.00011442992672368372;0.034669113898236;0;53.70251364000001;86.8521098
4.981253343663799;0.5723674597514223;-0.020393596410727;0.01622478680899158;4.98464221916917;0.5737830835024605;0.3292270269135916;5.15600341751302;1.8512558537452044;-0.9758335882532884;0.01565585830699692;0.0002451058993287644;0.047924951565208596;-0.0571020699500356;0.00010860734387979316;0.034669113898236;0;53.70230774;86.85207030000001
3.296954672190713;0.554479988327704;-0.0152951973080452;0.0159902536750564;3.3047475637678154;0.561177703270121;0.31492041464752796;5.15600341751302;1.8512558537452044;-0.986030386458652;0.013365306276364243;0.00017863141186102142;0.03772815335984492;-0.0571020699500356;0.00010860734387979316;0.034669113898236;0;53.70210195999999;86.85202836
4.022030683767129;0.5388183285879228;-0.0142755174875089;0.018082833261325645;4.030500672671436;0.5521924442020267;0.3049164954338084;5.077272883722748;1.7725253199549327;-0.986030386458652;0.012852730554552593;0.00016519268270792978;0.03772815335984492;-0.0571020699500356;9.854779227003555e-05;0.030590394616090602;0;53.70189772;86.85198796
4.41972150543427;0.5459400021112191;0.0214132762312633;0.01797293152645981;4.4298501650996815;0.5661971122210405;0.3205791698874455;5.077272883722748;1.7725253199549327;-0.986030386458652;0.013542945011427878;0.00018341135958255928;0.03772815335984492;-0.0571020699500356;9.937958981916283e-05;0.030590394616090602;0;53.701695189999995;86.85195439
4.83890955860704;0.9921520082512582;0.0112164780258998;0.017877223016024138;4.868718973886801;1.0221211802430736;1.0447317071014937;7.244102990580697;3.939355426812882;-0.986030386458652;0.013003305631553563;0.00016908595734759258;0.03772815335984492;-0.0571020699500356;0.0003125277117830176;0.0683185479759356;0;53.701504650000004;86.85192513
4.863106531391837;1.0921051923502403;0.0091771183848271;0.017465355583409593;4.9333298704428055;1.1253207569728756;1.2663468060740055;7.244102990580697;3.939355426812882;-0.986030386458652;0.013299776666194743;0.00017688405937065817;0.03772815335984492;-0.0571020699500356;0.0003720012365456155;0.0683185479759356;0;53.70132020999999;86.85190197
5.002156180872428;1.1984732297505682;0.0265116753339451;0.016547689272557786;5.077272883722748;1.2317507402135044;1.5172098860165162;7.244102990580697;3.939355426812882;-0.986030386458652;0.014023326712734667;0.0001966536920920977;0.03772815335984492;-0.0571020699500356;0.00043900715022530994;0.0683185479759356;0;53.70115940000001;86.85188964
4.831244225360822;1.0676708482343815;0.0183542367696543;0.01619984613925629;4.957211274439689;1.0945520729848168;1.19804424047536;7.244102990580697;3.2136023179092614;-0.986030386458652;0.013834219925518962;0.00019138564094762586;0.03772815335984492;-0.0693382277964719;0.0003410629888155778;0.056082390129499296;0;53.70100523;86.85187883
7.139246108486962;0.9595196505562965;0.0061180789232181;0.011536485428686334;7.244102990580697;0.9775891119092276;0.9556804717234724;7.244102990580697;2.8142528254810157;-0.9870500662791885;0.012876640334806583;0.00016580786631196782;0.036708473539308506;-0.078515346181299;0.0002664322642688845;0.0469052717446722;0;53.700857889999995;86.85187741
6.376971928192386;0.8752294313812775;0.0244723156928724;0.011643019153993673;6.484052401845198;0.8845531966618426;0.7824343577246844;7.244102990580697;2.3753840166938964;-0.9722647088814113;0.015048100544791191;0.00022644533000614497;0.051493830937085705;-0.0836137452839808;0.00022588213374893175;0.0418068726419904;0;53.70071327000001;86.85187615
6.537622279380561;0.8788480646390907;0.0341592739879677;0.01138566368213693;6.621362157011839;0.8851476241456334;0.7834863165306595;7.244102990580697;2.3807991712113887;-0.9722647088814113;0.012550303108778717;0.00015751010812222073;0.046395431834403866;-0.0836137452839808;0.0002318202440302012;0.0418068726419904;0;53.700575879999995;86.85187956
6.430722085349862;0.8563452968443074;0.0438462322830631;0.01032403088554391;6.509718032883553;0.864784083378424;0.7478515108646611;7.244102990580697;2.3807991712113887;-0.9722647088814113;0.010005802178358158;0.00010011607723243686;0.03415927398796781;-0.0836137452839808;0.00022461133193776508;0.0418068726419904;0;53.700441409999996;86.85188588999999
5.04629185420585;1.0160194593295055;0.0224329560517997;0.010666910193414156;5.13356826065478;1.0310087945250923;1.0629791343880841;7.244102990580697;3.3369027665361917;-0.9722647088814113;0.01108190209844718;0.00012280855411956801;0.03721831344957682;-0.0683185479759355;0.0003095673212001874;0.057102069950035694;0;53.70030445;86.85189485
5.510396387041316;1.1197372984866747;0.0168247170388498;0.01658212452327024;5.5752751891764145;1.1424270492534794;1.3051395628660118;7.244102990580697;3.3369027665361917;-0.9722647088814113;0.012872153622241304;0.00016569233887457993;0.046395431834403866;-0.0683185479759355;0.0003667880609338985;0.057102069950035694;0;53.700166939999995;86.85191094
4.804668005686588;1.3160396685333815;0.0305903946160905;0.02103744423294755;4.863303819369309;1.3336984416501305;1.7787515332599868;6.621362157011839;4.139211364321169;-0.9722647088814113;0.01314655599404616;0.000172831934504591;0.046395431834403866;-0.0428265524625267;0.0005043465806208148;0.0703579076170083;0;53.700008530000005;86.85194453
5.123887035354339;1.2916648739367504;0.0285510349750178;0.023762222925785666;5.161075420218908;1.3078794867122048;1.7105487517625804;6.621362157011839;4.139211364321169;-0.9722647088814113;0.01391747784963944;0.00019369618969520446;0.046395431834403866;-0.0428265524625267;0.00048208444343792286;0.0703579076170083;0;53.699844469999995;86.85198783
3.869546778210312;1.1720037984851763;0.0336494340776996;0.02948738212672785;3.9072002240445056;1.187570947125536;1.4103247544566424;6.509718032883553;4.027567240192884;-0.9722647088814113;0.012975734554769771;0.00016836968723584625;0.046395431834403866;-0.0428265524625267;0.000400187043080103;0.0693382277964719;0;53.69967455;86.85203806999999
3.95070448724275;1.1382889308527506;-0.0142755174875089;0.031000055404654767;3.9881750559098545;1.1424415910282442;1.305172788911146;6.264486926512576;3.7823361338219064;-0.9722647088814113;0.013850807287346544;0.00019184486251121213;0.046395431834403866;-0.0428265524625267;0.0003704271752113284;0.06525950851432649;0;53.69950045;86.85209949
2.433686989632963;1.1264004492799502;-0.020393596410727;0.03030658902179975;2.4821507926906694;1.1262429152906304;1.268423104242338;6.264486926512576;3.7823361338219064;-0.9666564698684612;0.01787883851046674;0.0003196528664833485;0.05200367084735391;-0.0428265524625267;0.00035708375619407904;0.06525950851432649;0;53.699308189999996;86.85217347
3.5615784981237586;1.0663899034217046;-0.0158050372183134;0.03226341898274641;3.5825231994601174;1.0615483672566168;1.1268849360251891;6.264486926512576;3.7823361338219064;-0.9666564698684612;0.015239296007518428;0.0002322361428047671;0.05200367084735391;-0.0428265524625267;0.0003279708419746256;0.06525950851432649;0;53.6991136;86.8522528
3.4770556541058624;1.3197119831921518;-0.0448659121035994;0.032834860122927426;3.495225237913632;1.310826926494309;1.718267231222517;6.778921050349254;4.296770257658585;-0.9666564698684612;0.01581882794483762;0.0002502353175483756;0.05200367084735391;-0.0428265524625267;0.0005017241077923157;0.0744366268991537;0;53.69891777;86.85233601
6.2489277938589565;1.323148369642698;-0.0458855919241358;0.03293287825711481;6.264486926512576;1.3127661682139662;1.7233550124071795;6.778921050349254;4.296770257658585;-0.9666564698684612;0.01625537581720831;0.0002642372429586808;0.05200367084735391;-0.0428265524625267;0.0005017241077923157;0.0744366268991537;0;53.69872328;86.85242568
4.823273617897571;1.3144432363092373;0.0122361578464362;0.032026938562672407;4.835018108127951;1.3052372551283702;1.703644292175042;6.778921050349254;4.296770257658585;-0.9666564698684612;0.01605802380168155;0.0002578601284153711;0.05200367084735391;-0.0428265524625267;0.0004956589173299295;0.0744366268991537;0;53.698530170000005;86.85251673
4.765285543660459;1.301042926912947;0.0367084735393086;0.031953628584866764;4.781922710459974;1.292526861124035;1.6706256867271505;6.778921050349254;4.296770257658585;-0.9666564698684612;0.014623411871859709;0.00021384417477404748;0.0489446313857449;-0.0428265524625267;0.00048799944823171637;0.0744366268991537;0;53.698339870000005;86.85260291
6.770695079211812;1.1189436725168214;0.0356887937187723;0.031496985545366334;6.778921050349254;1.1153780067385164;1.2440680979159857;6.778921050349254;3.283695812435622;-0.9666564698684612;0.014165946735494228;0.0002006740469128596;0.0489446313857449;-0.061180789232181;0.00035762673514976034;0.0560823901294994;0;53.69816949;86.85267829
5.186787947773651;1.1046070088103095;0.0295707147955541;0.030711195865744438;5.196337923901062;1.1009593260766393;1.2121114376751276;6.778921050349254;3.283695812435622;-0.9666564698684612;0.012452462191699815;0.00015506381463571334;0.03976751300091785;-0.061180789232181;0.00036483564724219635;0.0560823901294994;1;53.69800058;86.85275002
4.055543073404903;1.1332679050075927;0.0244723156928724;0.024950111093376547;4.067990185042028;1.1295579591362044;1.275901183047947;7.6481890578738145;3.5801988728317866;-0.9666564698684612;0.01431148467940431;0.0002048185937288243;0.05098399102681772;-0.0713775874375446;0.00042125924765799454;0.06525950851432649;0;53.697833849999995;86.85281881
4.836458360575524;1.2145623243476402;0.0152951973080452;0.015015436949633898;4.845471662949649;1.2098269580320062;1.4636812683809777;7.6481890578738145;3.5801988728317866;-0.9666564698684612;0.014199344065814105;0.00020162137189937024;0.05098399102681772;-0.0713775874375446;0.00048508815680977236;0.06525950851432649;0;53.69767249;86.85287761
6.071849681985452;1.3858431594974152;0.0244723156928724;0.015015436949633898;6.074381439960743;1.381090670595975;1.9074114404072395;8.269088487160692;4.201098302118664;-0.9870500662791885;0.010394428681873999;0.00010804414762256483;0.030590394616090477;-0.0713775874375446;0.0006197353850747443;0.07443662689915359;0;53.697531000000005;86.85292555999999
6.608433897146656;1.3293719539290427;-0.003059039461609;0.013520747646050659;6.6096319280005655;1.3254080507435018;1.7567065009756888;8.269088487160692;4.201098302118664;-0.9870500662791885;0.010310734021488549;0.00010631123606188143;0.030590394616090477;-0.0713775874375446;0.0005728427982426968;0.07443662689915359;0;53.69739419;86.85297307
7.647250038470998;1.4089569211676294;-0.003059039461609;0.020350781563841625;7.6481890578738145;1.4052016239079064;1.9745916038334173;8.269088487160692;4.201098302118664;-0.9870500662791885;0.009643779097213308;9.300247527584833e-05;0.030590394616090477;-0.0713775874375446;0.0006441347798491434;0.07443662689915359;0;53.69724938;86.85302282
7.1501539583419085;1.3653280454376497;0.003059039461609;0.01908978125772086;7.1510010723409465;1.3619205313129443;1.8548275336117324;8.269088487160692;4.201098302118664;-0.9870500662791885;0.009643779097213648;9.30024752758549e-05;0.030590394616090477;-0.0713775874375446;0.0006016206828937514;0.07443662689915359;0;53.69710463;86.85306750999999
8.26802918067523;1.1214737030410151;0.0122361578464362;0.023749761267393126;8.269088487160692;1.1194741129608752;1.2532222895895382;8.269088487160692;3.472287909268105;-0.9870500662791885;0.010219573942995332;0.00010443969157634915;0.030590394616090477;-0.0836137452839808;0.0004173890785058071;0.062200469052717394;0;53.69696125;86.85311357
7.175163429257374;1.154286250753522;0.0101967982053635;0.022802000612297375;7.175292146618201;1.153782010733285;1.331212928291742;8.269088487160692;3.6238107625719955;-0.9788926277148976;0.011637188246365;0.0001354241502813357;0.03874783318038133;-0.0795350260018354;0.00044668683662506644;0.06627918833486279;0;53.69681622;86.85316054
4.793616277953207;1.2487930922248176;-0.040787192821454;0.020449036953759957;4.796800577892587;1.2476452444400457;1.5566186559738613;8.269088487160692;3.6238107625719955;-0.9758335882532884;0.01326030346094807;0.00017583564787643138;0.04180687264199057;-0.0795350260018354;0.0005275560427902146;0.06627918833486279;0;53.69667064;86.85320696
6.2132625053792845;1.4224484739570817;-0.0061180789232181;0.02084768025854955;6.2207523437162635;1.4192274214599483;2.0142064738238536;8.269088487160692;4.072084182243386;-0.9758335882532884;0.02046774246488555;0.0004189284816088793;0.07035790761700833;-0.0764759865402263;0.0006451514212980776;0.06933822779647189;0;53.69652363;86.85325451
6.293595581713521;1.320858838502353;-0.0489446313857448;0.020936984223857345;6.294129333973356;1.3181115474972427;1.7374180516455757;8.269088487160692;4.072084182243386;-0.9758335882532884;0.019810923715191452;0.00039247269844913505;0.07035790761700833;-0.0764759865402263;0.0005437760949981951;0.06933822779647189;0;53.69637602;86.85330402
4.645038280999717;1.255932858140611;-0.0040787192821454;0.02552053057768635;4.645277724588697;1.2538174417697872;1.5720581772861337;8.269088487160692;4.072084182243386;-0.9758335882532884;0.020461744446758464;0.0004186829858044508;0.07035790761700833;-0.0764759865402263;0.0004924819128020153;0.06933822779647189;0;53.696226810000006;86.85335705
4.956820197487237;1.035257705452539;0.0010196798205363;0.02819864888136349;4.964197612742563;1.0402764345279425;1.0821750602341684;7.175292146618201;2.9782878417008947;-0.9758335882532884;0.02050658118894455;0.00042051987205877453;0.07035790761700833;-0.0764759865402263;0.00033405913792449083;0.0489446313857449;0;53.69607727;86.85341231
4.179894329736952;0.9140829803433788;-0.0224329560517997;0.033321504286327484;4.197004304917306;0.9232208821638257;0.8523367972633524;7.088530798610365;2.8915264936930587;-0.9758335882532884;0.02108982299376444;0.00044478063390831525;0.07035790761700833;-0.0764759865402263;0.0002624898904683347;0.047924951565208596;0;53.695926869999994;86.85346926999999
6.179763296797283;0.8666768842090686;-0.020393596410727;0.031032832903064633;6.20178387032606;0.8745605312352951;0.7648561227945616;7.088530798610365;2.8915264936930587;-0.9758335882532884;0.021042935031243656;0.0004428051147291415;0.07035790761700833;-0.0764759865402263;0.00023476330549742695;0.047924951565208596;0;53.695786080000005;86.85352816
5.8946927362905335;0.9272834984518806;0.0356887937187723;0.030853810732953322;5.9408908534714175;0.9359246344881582;0.8759549214417925;7.088530798610365;2.8915264936930587;-0.9758335882532884;0.02081301706133655;0.0004331816791954863;0.07035790761700833;-0.0764759865402263;0.0002652047852467362;0.047924951565208596;0;53.695643659999995;86.85359566000001
7.042515881600101;0.9501430962049302;0.0336494340776996;0.030441992242257115;7.088530798610365;0.9627631207983198;0.9269128267693202;7.088530798610365;2.8915264936930587;-0.968695829509534;0.0229927185471628;0.0005286651061890442;0.07749566636076266;-0.0744366268991536;0.00029270031534288626;0.049964311206281295;0;53.69549971;86.85366675
6.013368731364097;1.0612376007918618;0.0509839910268175;0.029803039266877326;6.042614113238051;1.073296316752361;1.1519649835541843;7.088530798610365;3.3434992850712666;-0.968695829509534;0.02353892823414848;0.0005540811424123924;0.07749566636076266;-0.0672988681553992;0.0003459353584870292;0.057102069950035694;0;53.695358420000005;86.85374818
5.674792150573552;1.0694621940330822;0.0214132762312633;0.029140224062410056;5.696961976459874;1.0789748179439511;1.1641866577571827;7.088530798610365;3.3434992850712666;-0.968695829509534;0.02125787204898145;0.0004518971240508668;0.07749566636076266;-0.0672988681553992;0.0003477953502288275;0.057102069950035694;0;53.69522561;86.85384065
4.469866855314689;1.104640309234598;0.0010196798205363;0.03881072947289162;4.487471534270208;1.097563940028073;1.2046466024499476;7.088530798610365;3.3434992850712666;-0.968695829509534;0.016996023194321704;0.00028886480442192133;0.061180789232181176;-0.0672988681553992;0.0003779595641284274;0.057102069950035694;0;53.69510648000001;86.85394936
4.383248338236202;1.982338834833071;0.0683185479759355;0.03849600815546991;4.386466837149179;1.555166845900558;2.41854391858829;7.088530798610365;5.593298843941093;-0.968695829509534;0.023162672971552566;0.0005365094191870918;0.08565310492505351;0.0040787192821454;0.001217901797590867;0.1284796573875803;1;53.69500547;86.85407875
3.7371214364717726;2.3984253990935573;0.0305903946160905;0.04546728448158463;3.7450315135390984;1.791453509459665;3.2093056765553505;7.088530798610365;5.593298843941093;-0.968695829509534;0.046918693145792424;0.002201363766509029;0.16926685020903443;0.0040787192821454;0.0017746862820379099;0.1284796573875803;1;53.694923519999996;86.85422464000001
4.75351184271689;2.183728840965875;0.014785357397777;0.04607531961319904;4.818165360596738;1.553773865907391;2.414213226376799;6.042614113238051;4.547382158568779;-0.968695829509534;0.04684969829161995;0.0021948942300158178;0.16926685020903443;0.0040787192821454;0.0014592155087876661;0.1080860609768532;1;53.69486204;86.854391
3.88916878485914;2.008526541618645;-0.0683185479759355;0.04567111527059367;4.036679950537339;1.383316993943565;1.913565905733061;5.696961976459874;4.201730021790602;-0.968695829509534;0.045635529589166016;0.0020826015608836467;0.16926685020903443;0.0040787192821454;0.0012486783069085722;0.1040073416947078;1;53.69481805;86.85457229
-0.2216160606321258;1.9138455445213944;-0.0173345569491179;0.05278601083004703;1.495231954669272;1.2409527312937418;1.5399636813053976;4.818165360596738;3.3229334059274658;-0.93912511471398;0.0528273318301888;0.0027907269882968782;0.1988375650045885;0.0040787192821454;0.0011400709630287787;0.0876924645661262;1;53.69479156999999;86.85475828999999
-0.1025172785615183;1.828234731376731;-0.0642398286937901;0.05499135467519372;1.5474831241636342;1.1848603055729918;1.4038939437225235;4.818165360596738;3.3229334059274658;-0.93912511471398;0.05308312511864964;0.0028178181723622128;0.1988375650045885;0.0040787192821454;0.0010385916620352558;0.0876924645661262;1;53.69478342;86.85495238
2.256963878435178;1.728946066336761;-0.0336494340776996;0.04266984065209933;2.8397041172818804;1.1498357377723074;1.3221222238583867;4.818165360596738;3.3229334059274658;-0.93912511471398;0.05010400397414383;0.002510411214241021;0.1988375650045885;0.0040787192821454;0.000948584235573446;0.0876924645661262;1;53.69479278;86.85515118
3.942603883365196;1.6825312082012391;-0.058121749770572;0.035491148803811316;4.453986957994945;1.1384309836521973;1.2960251045393096;4.818165360596738;3.3229334059274658;-0.93912511471398;0.05128898272645835;0.0026305597491149426;0.1988375650045885;0.0040787192821454;0.0008934429897125527;0.0876924645661262;1;53.69481934;86.85536206
1.174510045229576;1.4969162573315247;-0.1050270215152442;0.028169135656533176;2.5647508011378632;0.9913483594347745;0.9827715697540188;4.453986957994945;2.958755003325673;-0.93912511471398;0.05100947665251721;0.0026019667083636987;0.1988375650045885;0.0040787192821454;0.0007106785837793175;0.0734169470786173;1;53.69485459;86.85557139
2.29478669747224;1.3996487716736419;-0.0815743856429081;0.02886112222774369;3.3394655268237234;1.022100482936767;1.0446893972195725;4.453986957994945;2.958755003325673;-0.93912511471398;0.05177724887281226;0.0026808835008371385;0.1988375650045885;0.0040787192821454;0.0006125986776306645;0.0734169470786173;1;53.69489449;86.85576489
3.0026524394197733;1.2408889231985847;-0.0265116753339451;0.03614218009055564;3.965636302058219;0.8763590013467184;0.7680050992414176;4.453986957994945;2.906503833831311;-0.93912511471398;0.05100539980814883;0.002601550809589109;0.1988375650045885;0.0020393596410727;0.00048293068191671923;0.0713775874375446;0;53.69493448000001;86.85594056
1.7074978875242397;1.226920366980331;-0.07545630671969;0.044880844323179826;3.15617343792047;0.802651335911882;0.6442491670411289;4.797795667957271;2.2330448668194074;-0.9177118384827164;0.03686251851397222;0.001358845271192945;0.12236157846436246;-0.0122361578464362;0.0004255135455394654;0.05710206995003571;0;53.69497023;86.85610431
0.6843669198697355;1.2272921034118491;-0.0866727847455898;0.04698943066433394;2.9264454300833176;0.7692337597841613;0.5917205771916767;4.797795667957271;2.2330448668194074;-0.9177118384827164;0.03680606313431658;0.0013546862834472979;0.12236157846436246;-0.0122361578464362;0.0004264146595510199;0.05710206995003571;0;53.69499833;86.85625529000001
3.138268000239384;1.0942647954689395;-0.0397675130009177;0.047585058291696375;4.286252079733249;0.7031996852488591;0.4944897973340946;4.797795667957271;2.2330448668194074;-0.9177118384827164;0.03823701134360345;0.0014620690364908592;0.12236157846436246;-0.0122361578464362;0.00032475051465769033;0.05710206995003571;1;53.69502136;86.85639864000001
1.1207751133602524;1.0510104298240521;0.0193739165901906;0.04578552902064625;2.734718817070383;0.6293655087956072;0.3961009436615534;4.797795667957271;2.0630768508868877;-0.9177118384827164;0.04043001556676215;0.0016345861587286298;0.13255837666972548;-0.0122361578464362;0.0002907854480683282;0.05710206995003571;1;53.695039210000004;86.85654449
4.318415581781014;1.3559182728318244;0.0305903946160905;0.04397331049478891;4.797795667957271;0.6497544686969233;0.42218086959162104;4.797795667957271;2.0630768508868877;-0.9177118384827164;0.036940003781039045;0.001364563879343179;0.13255837666972548;0.0081574385642908;0.0005047653675813087;0.0774956663607627;1;53.69505077;86.85669429000001
2.223377192546615;1.3060930844680902;-0.0010196798205363;0.04396661058053578;3.4269185856146605;0.6309594385254388;0.39810981306433696;4.797795667957271;2.0630768508868877;-0.9177118384827164;0.04984277293041911;0.0024843020133933197;0.17640460895278876;0.0081574385642908;0.0004592244517665925;0.0774956663607627;1;53.69505561;86.85684761
2.2166394462872128;1.3563524535033795;-0.0112164780258998;0.04804941747360258;3.520295303138018;0.6778787054214925;0.4595195392639187;4.797795667957271;2.0630768508868877;-0.9177118384827164;0.05297801218104636;0.0028066697746550965;0.17640460895278876;0.0081574385642908;0.0005165953771688963;0.0774956663607627;1;53.69505057;86.85699617
1.717230697144132;1.323316351842698;-0.092790863668808;0.04804941747360258;3.3939188293013056;0.6359742623012585;0.4044632623096299;4.797795667957271;2.0630768508868877;-0.9177118384827164;0.06579204797277559;0.0043285935764520046;0.20801468338941576;0.0081574385642908;0.0004830462093540979;0.0774956663607627;1;53.69504102;86.85715558
-0.4730879488979249;1.7990342572947318;-0.061180789232181;0.04910734446687632;3.0147470807888754;0.6694648707578142;0.44818321317877696;4.797795667957271;2.0630768508868877;-0.9177118384827164;0.06836241563564165;0.004673419871540222;0.20801468338941576;0.040787192821454;0.0009826301713689702;0.1101254206179259;1;53.69502755;86.85733923
1.813461413341364;1.8532996517701403;-0.0438462322830631;0.044391675073512646;3.5171987529622224;0.7409478809256129;0.5490037622481563;5.2961667397817305;2.281419658992855;-0.9177118384827164;0.06750531989897109;0.004556968214662421;0.20801468338941576;0.040787192821454;0.0010541185496189612;0.1101254206179259;1;53.69501065000001;86.85753224999999
3.029229227478349;1.632898844148939;-0.1070663811563169;0.03471922859675826;4.374261743424164;0.7291690792466972;0.5316875461294761;5.2961667397817305;2.281419658992855;-0.948302233098807;0.05584613014544041;0.003118790252221468;0.17742428877332517;0.040787192821454;0.0008856910986644329;0.0968695829509533;1;53.694991890000004;86.85773877
1.034791631618733;1.732172195870085;-0.0866727847455898;0.029071507028157684;3.765076781661158;0.7724010336140683;0.5966033567280811;5.2961667397817305;2.281419658992855;-0.948302233098807;0.05079056473099512;0.0025796814656934056;0.17742428877332517;0.040787192821454;0.0010079653383861353;0.0968695829509533;1;53.694976780000005;86.85795406
-2.1624749081923857;1.7109684383623798;-0.0713775874375446;0.03430060381779775;4.557537847866454;0.8424695297959295;0.7097549086345746;5.433503415290659;2.4187563345017833;-0.92790863668808;0.055411569366680694;0.003070442019678466;0.1978178851840522;0.040787192821454;0.0009887300200625677;0.0968695829509533;1;53.69496293000001;86.85818085
2.988650303890432;1.7335519992099542;-0.0672988681553992;0.05661860900031192;5.2961667397817305;0.8134800731964638;0.661749829487724;5.433503415290659;2.4187563345017833;-0.92790863668808;0.05631827438332878;0.003171748029515907;0.1978178851840522;0.040787192821454;0.0010124362502126937;0.0968695829509533;1;53.69494704;86.85840816
0.3906735721734398;2.1198509439547513;-0.0356887937187723;0.07963845189943805;4.69876275221426;0.7605452248685669;0.578429039070379;5.995391857001529;2.4781931040393066;-0.92790863668808;0.05319997529962305;0.002830237371880503;0.1978178851840522;0.058121749770572;0.0014975706179974158;0.1142041399000713;1;53.694931610000005;86.85863081
-0.9353726709764092;2.0647676447833416;-0.0836137452839808;0.0787350864766733;5.01301964572115;0.6181494451514348;0.38210873654102673;5.995391857001529;2.230315075340371;-0.92790863668808;0.05135662516269397;0.0026375029481014514;0.1978178851840522;0.058121749770572;0.0014102318753390559;0.1142041399000713;1;53.694917970000006;86.85887061000001
1.924094532174936;1.940599776150988;-0.1560110125420618;0.08113530813242069;5.433503415290659;0.5888051884576037;0.34669154995459417;5.995391857001529;2.230315075340371;-0.92790863668808;0.051219108231181566;0.002623397047997491;0.1978178851840522;0.058121749770572;0.0012220492325927556;0.11216478025899859;1;53.694904310000005;86.85910271
-0.3944965700904602;1.905456810974633;-0.2222902008769246;0.08118130441415347;5.148025221314605;0.5551732121639262;0.3082172955044119;5.995391857001529;2.0774439616880533;-0.92790863668808;0.03984210336515233;0.0015873932005594825;0.1498929336188437;0.058121749770572;0.0011675318348937079;0.11216478025899859;1;53.694889739999994;86.85931342
-3.225859486674033;1.9122354907279926;0.0836137452839808;0.08117404638504964;5.995391857001529;0.6524161873021658;0.4256468814538946;5.995391857001529;2.1482574374583194;-0.92790863668808;0.03493947449573185;0.0012207668780378964;0.13051901702865298;0.058121749770572;0.0011596182054332614;0.11216478025899859;1;53.69487743;86.85949311
0.3457852118900517;1.5574311467969217;-0.092790863668808;0.08126237945226952;4.848134030657335;1.0617126115610103;1.1272336695477005;5.995391857001529;3.8107183626999452;-0.92790863668808;0.034821398187792216;0.001212529771752779;0.13051901702865298;0.058121749770572;0.0007537010014591698;0.0897318242071988;1;53.694868650000004;86.85964305
-2.059498523214015;2.3003935487460163;-0.0142755174875089;0.08258932710339457;4.908567263962813;1.0655695795187785;1.1354385287958264;5.995391857001529;3.8107183626999452;-0.92790863668808;0.03299591747258533;0.0010887305698576621;0.13051901702865298;0.058121749770572;0.0016527817301158095;0.1427551748750891;1;53.69486503;86.85976231000001
0.4003319415641632;2.3003935487460163;-0.0892219842969307;0.08258932710339457;3.9179478953134756;1.0655695795187785;1.1354385287958264;5.995391857001529;3.8107183626999452;-0.92790863668808;0.03299591747258533;0.0010887305698576621;0.13051901702865298;0.058121749770572;0.0016527817301158095;0.1427551748750891;1;53.69486503;86.85976231000001
-2.223223683647498;2.3003935487460163;-0.0734169470786173;0.08258932710339457;3.8471344195432096;1.0655695795187785;1.1354385287958264;5.995391857001529;3.8107183626999452;-0.92790863668808;0.03299591747258533;0.0010887305698576621;0.13051901702865298;0.058121749770572;0.0016527817301158095;0.1427551748750891;1;53.69486503;86.85976231000001
0.2911845101297978;2.3003935487460163;-0.061180789232181;0.08258932710339457;2.1846734943015838;1.0655695795187785;1.1354385287958264;5.995391857001529;3.8107183626999452;-0.92790863668808;0.03299591747258533;0.0010887305698576621;0.13051901702865298;0.058121749770572;0.0016527817301158095;0.1427551748750891;1;53.69486503;86.85976231000001
4.801483283715182;2.3003935487460163;-0.0152951973080452;0.08258932710339457;4.89542340459408;1.0655695795187785;1.1354385287958264;5.995391857001529;3.8107183626999452;-0.92790863668808;0.03299591747258533;0.0010887305698576621;0.13051901702865298;0.058121749770572;0.0016527817301158095;0.1427551748750891;1;53.69486503;86.85976231000001
0.4057479659959996;2.195972999158038;-0.0305903946160905;0.057296368746461095;0.47149726618392435;1.3499600326681165;1.8223920898013024;4.955954994355116;4.484457728171192;-0.9737942286122158;0.024154911917409358;0.0005834597697378046;0.07749566636076255;0.0520036708473539;0.0014368869433282819;0.136637095951871;0;53.72312908;86.83714124000001
3.0564666157553595;2.195972999158038;-0.0346691138982359;0.057296368746461095;3.056808562708252;1.3499600326681165;1.8223920898013024;4.955954994355116;4.484457728171192;-0.9737942286122158;0.024154911917409358;0.0005834597697378046;0.07749566636076255;0.0520036708473539;0.0014368869433282819;0.136637095951871;0;53.72312908;86.83714124000001
0.8587846946694303;2.195972999158038;0.037728153359845;0.057296368746461095;0.873576355621568;1.3499600326681165;1.8223920898013024;4.955954994355116;4.484457728171192;-0.9737942286122158;0.024154911917409358;0.0005834597697378046;0.07749566636076255;0.0520036708473539;0.0014368869433282819;0.136637095951871;0;53.72312908;86.83714124000001
2.3651091393036703;2.195972999158038;0.0520036708473539;0.057296368746461095;2.3706982966489063;1.3499600326681165;1.8223920898013024;4.955954994355116;4.484457728171192;-0.9737942286122158;0.024154911917409358;0.0005834597697378046;0.07749566636076255;0.0520036708473539;0.0014368869433282819;0.136637095951871;1;53.72312908;86.83714124000001
4.955746179873547;2.195972999158038;-0.020393596410727;0.057296368746461095;4.955954994355116;1.3499600326681165;1.8223920898013024;4.955954994355116;4.484457728171192;-0.9737942286122158;0.024154911917409358;0.0005834597697378046;0.07749566636076255;0.0520036708473539;0.0014368869433282819;0.136637095951871;1;53.72312908;86.83714124000001
0.7471180875951071;2.195972999158038;0.0774956663607627;0.057296368746461095;0.7700845595610467;1.3499600326681165;1.8223920898013024;4.955954994355116;4.484457728171192;-0.9737942286122158;0.024154911917409358;0.0005834597697378046;0.07749566636076255;0.0520036708473539;0.0014368869433282819;0.136637095951871;1;53.72312908;86.83714124000001
-3.0341964046265417;2.3068037705679423;0.0173345569491179;0.059511808334639905;3.069250067574237;1.3532538316518588;1.8312959328804372;4.955954994355116;4.185870434794069;-0.9737942286122158;0.03315728132811026;0.0010994053050714494;0.10502702151524435;0.0520036708473539;0.0016331218484598828;0.136637095951871;1;53.723034940000005;86.83703942
1.4772374691041088;2.49082950685397;-0.0938105434893443;0.05915949587066758;1.6928681893725757;1.6380152658844502;2.683094011270506;5.3690505408472475;4.5989659812862005;-0.9737942286122158;0.03460841313565635;0.001197742259768271;0.10502702151524435;0.0520036708473539;0.001880928201637372;0.136637095951871;1;53.72292804;86.83692228000001
-1.162354352972779;2.823981227879982;-0.092790863668808;0.056958243446150775;1.6966171292382377;1.920672867739084;3.6889842648690774;6.618373520317801;5.848288960756754;-0.9737942286122158;0.03486201649314818;0.0012153601939685356;0.10502702151524435;0.0520036708473539;0.002415127072076863;0.153971652900989;1;53.72282045000001;86.83680701
0.7500286181495108;3.021721056845861;-0.0081574385642908;0.05188746635165224;1.839863980471085;2.135191410949738;4.559042361393534;6.618373520317801;5.848288960756754;-0.9758335882532884;0.0328487110532753;0.0010790378178615707;0.10298766187417174;0.0520036708473539;0.0027988716726320326;0.153971652900989;1;53.72269283000001;86.83666147000001
3.455774782576408;2.9091131977009344;-0.0632201488732537;0.05467106967916274;4.0700725644231;2.158209796660291;4.657869526400454;6.618373520317801;5.848288960756754;-0.9809319873559702;0.03031897535338614;0.0009192402664792362;0.0978892627714899;0.0520036708473539;0.0026208669971188045;0.153971652900989;1;53.72255815000001;86.83651143
4.683605044248086;2.902844851053749;-0.023452635872336;0.03723359774839293;5.3690505408472475;1.9747956007725707;3.8998176648306986;6.618373520317801;4.925505330945226;-0.9809319873559702;0.031389838493689336;0.0009853219606599007;0.0978892627714899;0.0520036708473539;0.0026002453495466912;0.153971652900989;0;53.72242013;86.83635036999999
5.851601841138812;2.175241181642505;-0.0387478331803813;0.030735261552532304;6.618373520317801;1.9833322941981193;3.933606989209175;6.618373520317801;4.925505330945226;-0.9829713469970428;0.030141462598001868;0.0009085077675467456;0.0958499031304173;0.0214132762312633;0.001485266945916583;0.12338125828489839;0;53.72227802;86.83617498
5.392241124822827;2.1034754807170457;-0.0550627103089629;0.03656977581668674;6.448083566658464;1.7601353069235028;3.098076298678693;6.618373520317801;4.921756391079564;-0.9829713469970428;0.030626675590924773;0.0009379932577517474;0.0958499031304173;0.0214132762312633;0.0013900521202149245;0.12338125828489839;0;53.722130019999994;86.83598602
3.415172229954716;1.3790955167763894;-0.0866727847455898;0.03523252420550201;5.264416953489821;1.3758832941044783;1.8930548389957902;6.618373520317801;4.778509539846716;-0.9758335882532884;0.030973631263815807;0.000959365833666828;0.10298766187417174;-0.0132558376669725;0.0005826770713495648;0.0887121443866626;0;53.72198078;86.83578302
3.7606817871549114;0.8548232974236943;-0.058121749770572;0.03000104517969934;5.710891922595122;0.6982098737485136;0.48749702779991533;6.618373520317801;2.5483009558947014;-0.9758335882532884;0.03268286361673602;0.0010681695741901673;0.10298766187417174;-0.0601611094116447;0.00021330986037618527;0.04180687264199039;0;53.72183314;86.83556882
3.621346022618571;0.8288272114600044;-0.092790863668808;0.030900205779119075;5.663283009839283;0.4374987769755001;0.19140517985505837;6.618373520317801;1.3539565668279803;-0.9758335882532884;0.021930953364623484;0.00048096671548129014;0.06729886815539932;-0.0601611094116447;0.00020915087263054922;0.04180687264199039;1;53.72168756;86.83534644
3.83619928641601;0.9590281668350104;-0.1300091771183848;0.028247155591321096;5.713734832873087;0.5189731841865444;0.2693331659047209;6.909142731182975;1.6447257776931536;-0.9666564698684612;0.02368552562425651;0.0005610041240973117;0.07647598654022647;-0.0601611094116447;0.00026468491177853007;0.04180687264199039;1;53.72154687;86.83511870999999
3.6994075295398;0.9390857295011201;-0.0616906291424492;0.027000878621306904;5.568137698909222;0.5204205223213445;0.27083752005322104;6.909142731182975;1.6447257776931536;-0.9666564698684612;0.023892405943353293;0.0005708470617619837;0.07647598654022647;-0.0601611094116447;0.0002594284133777957;0.04078719282145409;1;53.72141161;86.83488617
4.545912278215832;0.9585280704417275;-0.0795350260018354;0.02882592551042952;5.926646302714361;0.5136213128894332;0.26380685305426504;6.909142731182975;1.6447257776931536;-0.9666564698684612;0.022093651047275467;0.0004881294165987764;0.07647598654022647;-0.0601611094116447;0.000255304083863373;0.04078719282145409;0;53.721284149999995;86.83464862999999
4.85501793319165;1.1350448315774961;-0.0938105434893443;0.02936434951688795;6.061321750070766;0.628251229826301;0.3946996077782597;7.456282483309536;1.888144784400314;-0.9666564698684612;0.021853908444711485;0.00047759331430983197;0.07647598654022647;-0.0632201488732537;0.000369214137118853;0.05608239012949941;0;53.72116268999999;86.83441196999999
5.896807228465441;1.0701883867034023;-0.040787192821454;0.03606510290297865;6.909142731182975;0.6445172871111238;0.4154025333850827;7.456282483309536;1.910404242796191;-0.9666564698684612;0.021865006964252788;0.0004780785295468229;0.07647598654022647;-0.0632201488732537;0.00032577582066443077;0.05608239012949941;0;53.72104621999999;86.83417262
5.721118761984907;0.9676355065769593;-0.0489446313857448;0.03830662788004215;6.6290381708770525;0.632616324008011;0.40020341340140886;7.456282483309536;1.910404242796191;-0.9666564698684612;0.018257126020028706;0.0003333226505112092;0.06220046905271759;-0.0632201488732537;0.00028673909957413994;0.05608239012949941;0;53.72093729000001;86.83393057
5.559420980124828;0.9180503678523092;-0.0382379932701131;0.03547405538307966;6.373663034362208;0.6183954120142322;0.38241288560025194;7.456282483309536;1.910404242796191;-0.9666564698684612;0.017658183419346423;0.000311811441671281;0.06220046905271759;-0.0632201488732537;0.0002644451923459691;0.05608239012949941;0;53.720837460000006;86.83368482
6.874434815407028;0.7482283770303276;-0.0948302233098807;0.03515719062319398;7.456282483309536;0.5676936349963297;0.322276063215346;7.456282483309536;1.910404242796191;-0.9666564698684612;0.018986089599894507;0.0003604715982952224;0.06220046905271759;-0.0780055062710309;0.00018184307462013876;0.04129703273172221;0;53.72074187;86.83343307
4.949220727171606;1.208769166252409;-0.0071377587437544;0.03353852850138956;5.545878240513345;1.0049758118775158;1.009976382458872;9.109757669710671;3.5638794291973257;-0.9666564698684612;0.019265158538382773;0.0003711463335090227;0.06220046905271759;-0.0836137452839808;0.0004230152647061518;0.0713775874375446;0;53.720649279999996;86.83317664
5.434205902448077;1.5150378400744595;-0.0173345569491179;0.02785616676479385;5.814077077260118;1.305584547357414;1.7045510102984633;9.507524673399004;3.961646432885659;-0.9666564698684612;0.019301030401811047;0.0003725297745716343;0.06220046905271759;-0.0856531049250535;0.0006555026796872146;0.0774956663607627;0;53.72056062;86.83291901999999
6.356218592183736;1.8937739672919545;0.0076475986540226;0.028935130544265945;6.591087218163645;1.673273174576831;2.799843116758426;10.378599498721162;4.832721258207816;-0.974813908432752;0.01721249874823231;0.0002962701131578988;0.054043030488426846;-0.0856531049250535;0.0010488620512182328;0.09483022330988071;0;53.72047378;86.83266834000001
6.41082159306088;1.8468562308978684;-0.040787192821454;0.02879585161046898;6.561231145879353;1.653727284199789;2.7348139305068093;10.378599498721162;4.832721258207816;-0.9727745487916796;0.017832577607537477;0.0003180008241288471;0.05608239012949923;-0.0856531049250535;0.0009975678690220533;0.09483022330988071;0;53.72038827;86.83242411
9.031598442403872;1.958040095238799;-0.023452635872336;0.03574862951616601;9.109757669710671;1.849252095945371;3.419733314358348;10.378599498721162;5.6482031936941635;-0.9727745487916796;0.01949725705567054;0.00038014303269489475;0.05608239012949923;-0.0825940654634444;0.001101946908693784;0.09788926277148981;0;53.720312160000006;86.83221744
9.454938522993656;1.9868236876357348;-0.0229427959620679;0.02628300423860314;9.507524673399004;1.8860416364242019;3.5571530543256813;10.378599498721162;5.6482031936941635;-0.9534006322014889;0.023335102814025982;0.0005445270233411633;0.07545630671968995;-0.0825940654634444;0.0011547660530633634;0.09788926277148981;0;53.72023201;86.83201441000001
10.313434794234013;2.4909991985231033;-0.058121749770572;0.03277530051308261;10.378599498721162;2.428924871660518;5.899676032171063;10.378599498721162;8.16104370389404;-0.9534006322014889;0.023500615191719552;0.0005522789143892798;0.07545630671968995;-0.0346691138982359;0.001828291012981668;0.1458142143366983;0;53.72014433;86.83182177
7.699325433962767;2.9411396259348894;-0.0193739165901906;0.03456632708788022;7.759988153260253;2.868578232511662;8.228741076039732;10.378599498721162;8.347316685834574;-0.9534006322014889;0.021234490530488297;0.0004509035880893971;0.06423982869379008;-0.0305903946160905;0.0025678976670806355;0.1498929336188437;0;53.720046780000004;86.83164486
4.63708516718406;3.492821568522668;0.0367084735393086;0.03336849306820196;4.730396305026998;3.31115471217422;10.963745527953542;10.378599498721162;9.114684560573329;-0.9534006322014889;0.021432218252061142;0.00045933997920398283;0.06423982869379008;-0.0071377587437544;0.0036332108253816064;0.1733455694911798;1;53.71993772;86.83148972000001
6.044078437325135;3.6472619867145624;0.0020393596410727;0.03261846678600286;6.154462574252179;3.4565961884560807;11.948057210049106;10.378599498721162;9.114684560573329;-0.9503415927398796;0.02323643517236284;0.0005399319195194209;0.06729886815539932;-0.0071377587437544;0.003971027493206842;0.1733455694911798;1;53.71981705;86.83137160999999
1.9790664380198424;3.7697033073740105;-0.0774956663607627;0.033427643769805206;2.2175557948271223;3.4288832764083566;11.757240523232907;10.378599498721162;9.114684560573329;-0.9503415927398796;0.02323643517236284;0.0005399319195194209;0.06729886815539932;0.0020393596410727;0.004253907976372529;0.18252268787600692;1;53.71968176;86.83128239999999
1.7285763716374254;3.7069503177601235;0.0132558376669725;0.03342103343035674;2.031282812886588;3.1011642099317562;9.617219456961655;10.378599498721162;9.114684560573329;-0.9421841541755888;0.026961914749554776;0.0007269448469622594;0.07545630671969017;0.020393596410727;0.004097945935911172;0.2008769246456612;1;53.71952914;86.83122194
0.4087700764984253;2.9593519829823096;-0.0173345569491179;0.03468660399320367;1.2639149381478332;2.239459748866514;5.01517996679327;7.759988153260253;6.49607321511242;-0.9421841541755888;0.02878958226043483;0.0008288400467303439;0.07545630671969017;0.020393596410727;0.0025377478941107086;0.1519322932599163;1;53.71935607;86.83118455000002
2.3036349352631658;2.4865855578882994;-0.0193739165901906;0.03485257074557734;2.7008652624277336;1.564280447464877;2.446973318320916;6.154462574252179;4.890547636104346;-0.9421841541755888;0.02914453517529087;0.0008494039305837668;0.07545630671969017;0.0254919955134087;0.0017922955516803734;0.1264402977465075;0;53.71915918;86.83116942000001
-0.1197553906804718;2.3303528114637904;-0.0418068726419904;0.029262619817700466;1.5296629065705352;1.3846966753045238;1.9173848825994015;6.154462574252179;4.890547636104346;-0.9421841541755888;0.031067249243874894;0.0009651739755810453;0.08667278474559004;0.0254919955134087;0.0015399836284451125;0.1264402977465075;0;53.71893901999999;86.83117198
-1.2397396272630004;1.598784829102077;-0.0183542367696543;0.029755904167319956;1.9323484068366583;0.5218230107241982;0.2722992545212667;2.8860356514559617;1.6221207133081286;-0.9421841541755888;0.037252054678822005;0.0013877155777939443;0.10808606097685314;0.0397675130009177;0.0007731356046122278;0.07800550627103081;1;53.71869964;86.83119884
-0.4921448904623604;1.5310511973914733;-0.0672988681553992;0.026910447570881495;1.60403265477784;0.5902782217055724;0.3484283790198929;2.961519766072579;1.697604827924746;-0.9421841541755888;0.038983254382561075;0.0015196941222554673;0.10808606097685314;0.0397675130009177;0.0007109587378149677;0.07800550627103081;1;53.71844341999999;86.83124214
-1.5169273854188423;1.41221810030807;-0.0101967982053635;0.024067708054927403;2.412958360836385;0.6055566329768968;0.3666988357423161;2.961519766072579;1.697604827924746;-0.9421841541755888;0.04161437595720937;0.001731756286307965;0.10808606097685314;0.0397675130009177;0.0006031716387405633;0.07800550627103081;1;53.71817376;86.83130272000001
-1.3612237005110002;1.6456274892523184;-0.0458855919241358;0.025585859843024094;2.3399318958293374;0.6068876966830147;0.3683126763852148;3.410623269918771;1.880960363348236;-0.9421841541755888;0.044319398044849544;0.0019642090430578136;0.10808606097685314;0.0397675130009177;0.0008001690249588634;0.07800550627103081;1;53.71789424;86.83137392
-2.168379209076647;1.3872087204506987;0.0061180789232181;0.03185509062866211;2.8860356514559617;0.6078888893513247;0.3695289017967871;3.410623269918771;1.880960363348236;-0.9421841541755888;0.04393191233708927;0.0019300129215936964;0.10808606097685314;0.0397675130009177;0.0005799592883852316;0.0764759865402263;1;53.7176067;86.83144222000001
-1.991143830987116;1.4315693987697133;-0.0601611094116447;0.03186832517176172;2.961519766072579;0.5428333574937192;0.2946680540079039;3.410623269918771;1.806590615140931;-0.9421841541755888;0.046070273273804335;0.0021224700795230097;0.10808606097685314;0.0397675130009177;0.0006162811146971208;0.0764759865402263;1;53.71731339;86.83150987
0.8414732272188951;1.534894658329242;-0.0520036708473539;0.03149198765048279;2.634237177732071;0.5481368746218747;0.30045403332023674;3.44939346189784;1.84536080712;-0.9421841541755888;0.044612982907505996;0.001990318243905422;0.10808606097685314;0.0397675130009177;0.0007246602918880909;0.0764759865402263;1;53.717013640000005;86.83157108
2.231169386727634;1.5595853382453024;-0.0020393596410727;0.03346680374107395;3.410623269918771;0.41126427395505444;0.16913830303177807;3.44939346189784;1.1094615660685028;-0.9421841541755888;0.05234400553884072;0.002739894915850188;0.16926685020903454;0.0397675130009177;0.0007549977969437591;0.0764759865402263;0;53.71670549;86.83162132999999
0.2835845627500209;1.9839005937673644;-0.0938105434893443;0.03186016754169597;2.7212257291961395;0.7968383608322359;0.6349513732938047;5.223998209663547;2.8840663138342095;-0.9330070357907616;0.05643712618703894;0.003185149212251756;0.1784439685938617;0.0397675130009177;0.001168331862397569;0.1050270215152442;0;53.716392989999996;86.83164931
0.6160937423693941;1.9017709311051132;-0.0428265524625267;0.03758257577836751;3.0756448090262576;0.7363463394988806;0.5422059316934008;5.223998209663547;2.589761031931476;-0.9330070357907616;0.05664798385932846;0.0032089940753267376;0.1784439685938617;0.0397675130009177;0.0010724440893731795;0.1050270215152442;0;53.71608159;86.83165534999999
1.548487558069697;1.8058822084507895;-0.0244723156928724;0.03215613122742003;3.44939346189784;0.8198219185596628;0.6721079781508463;5.223998209663547;2.589761031931476;-0.9330070357907616;0.057397095878348584;0.0032944266152683402;0.1784439685938617;0.0356887937187723;0.000947813089928948;0.10094830223309881;0;53.71577339;86.83163386999999
-1.10061780789429;1.785008647323746;-0.0836137452839808;0.03636127341468863;3.430812331609854;1.0641776116582218;1.132473989154597;5.779835279364973;3.145598101632902;-0.9003772815335984;0.06570902703297075;0.004317676233619682;0.21107372285102488;0.0214132762312633;0.0008597580771588399;0.0907515040277352;1;53.71545954;86.83158626
3.99846611034048;1.9627033381107828;-0.0336494340776996;0.0387545410196388;5.223998209663547;1.1428709967401518;1.3061541151898282;5.779835279364973;3.0586095501688337;-0.9003772815335984;0.06461405994804385;0.004174976742969404;0.21107372285102488;0.0214132762312633;0.0011111688863825464;0.0999286224125623;1;53.715156619999995;86.83153422
0.0561550187221744;2.0139784777450402;-0.1060467013357805;0.03872113938206857;3.430097014264494;1.1645867528919798;1.356262305011485;5.779835279364973;3.0586095501688337;-0.9003772815335984;0.0622270233506882;0.0038722024350870948;0.21107372285102488;0.0214132762312633;0.0011841129103435095;0.0999286224125623;1;53.71485937999999;86.83148274
2.9089841931592386;1.9567112483003466;-0.0560823901294993;0.03806440474550657;4.6094087582233385;1.0493360681454804;1.1011061839110163;5.779835279364973;2.7041904703387156;-0.9003772815335984;0.06145407619235805;0.0037766034806561485;0.21107372285102488;0.0214132762312633;0.0011332808378968443;0.0999286224125623;1;53.71456773;86.83142661
4.403664504476662;1.8904422635107894;-0.0010196798205363;0.03766567302843351;5.779835279364973;0.9348897380155657;0.8740188222468132;5.779835279364973;2.3497382651004792;-0.9003772815335984;0.05919768545018453;0.0035043659626589887;0.21107372285102488;0.0214132762312633;0.0010693104076342776;0.0999286224125623;0;53.71428089999999;86.83137018
4.368166091914294;1.8562713722018123;-0.0917711838482716;0.03567426437013951;5.733120675089672;0.8245298514634771;0.6798494759543836;5.779835279364973;2.3497382651004792;-0.9003772815335984;0.057982669383474995;0.0033619899488333683;0.21107372285102488;0.0214132762312633;0.001041159259331002;0.0999286224125623;0;53.71399454;86.83131422
3.3643897111896464;1.3568938929827499;-0.116243499541144;0.03576643960867781;5.193445798423753;0.8287693103804931;0.6868585698285581;5.779835279364973;2.3712743915843664;-0.9003772815335984;0.04239822889932759;0.001797609813799777;0.1345977363107984;-0.0010196798205363;0.0005275011672574594;0.0774956663607627;0;53.713712550000004;86.83127031000001
3.48753965245772;1.6712526394297;-0.0846334251045171;0.03424165372967844;5.060341684736227;1.0272342784437385;1.0552102628098279;5.779835279364973;2.9539482261023893;-0.9003772815335984;0.0382883775778986;0.0014659998575477285;0.1345977363107984;0.0040787192821454;0.0008220961325733552;0.0825940654634444;0;53.71343376;86.83124752
3.667280956503862;1.8029637286437017;-0.0504741511165494;0.03151678592065996;5.135168412410785;1.193507580766668;1.4244603453475042;5.779835279364973;3.3716466700337886;-0.9003772815335984;0.035435768801359256;0.001255693710543386;0.12338125828489854;0.0112164780258998;0.0009600358928036207;0.0897318242071988;0;53.71313497999999;86.83125594
3.317614448472857;2.2812166568475223;-0.0458855919241358;0.03294164700625702;4.786539312706406;1.3336116390273518;1.7785200037492197;5.779835279364973;3.3716466700337886;-0.9003772815335984;0.0345198811378765;0.0011916221937731215;0.12338125828489854;0.0326297542571632;0.0015543090306800792;0.11114510043846221;0;53.7128322;86.83129364
1.498379363662916;2.350853787227358;-0.0448659121035994;0.02798010222152511;3.408560887780607;1.4063907998306957;1.9779350818484243;5.733120675089672;3.7793807574831986;-0.9839910268175792;0.011232045664240213;0.00012615884980357735;0.03976751300091774;0.0326297542571632;0.0017229328782781498;0.11114510043846221;0;53.71253007;86.83135759000001
-0.2323862514411842;2.1577124360292377;-0.0672988681553992;0.025921681455268502;2.825887053262584;1.4743624081398017;2.173744510535795;5.193445798423753;3.94798490717247;-0.9839910268175792;0.011232045664240213;0.00012615884980357735;0.03976751300091774;0.0326297542571632;0.0014325864344718591;0.0973794228612215;0;53.71221471;86.83142111
-0.6435966701588707;2.0312425157225076;-0.0499643112062812;0.02333219403747178;2.4081886093311846;1.3899696228578873;1.9320155524676974;5.135168412410785;3.8897075211595014;-0.9839910268175792;0.01132423700195286;0.0001282383436763983;0.03976751300091774;0.0326297542571632;0.0012689071611936002;0.0973794228612215;0;53.71185618;86.83146962
-1.850491374344268;1.8593186205488406;-0.0305903946160905;0.019629314744321818;2.595224048325758;1.2523345306800107;1.5683417767335226;5.135168412410785;3.8897075211595014;-0.9839910268175792;0.011079816927397538;0.00012276234314464502;0.03976751300091774;0.0326297542571632;0.0010629795040659204;0.0973794228612215;0;53.71149011;86.83150035
-1.2060325724746048;1.6474175334969985;-0.0326297542571632;0.020416879970653144;1.953739917606473;0.9660367135921721;0.9332269320079644;4.786539312706406;3.5410784214551225;-0.9839910268175792;0.011305731144684975;0.00012781955671589985;0.03976751300091774;0.0326297542571632;0.0008283577196792846;0.0897318242071988;0;53.71111463;86.83151143
0.3132714232103251;1.613288712812368;-0.0632201488732537;0.0382693638807436;1.2454608912512835;0.6482375474596835;0.42021191793654544;3.408560887780607;2.1630999965293234;-0.9972468644845518;0.007986407088099381;6.378269817684405e-05;0.02651167533394516;0.0326297542571632;0.0008081866291129491;0.08769246456612609;0;53.71073844;86.83150387999999
1.7269868788224618;1.645152091785452;0.0010196798205363;0.037891049984851224;2.134325454037777;0.5477111344686323;0.29998748682091625;3.2927284582242584;2.047267566972975;-0.9911287855613338;0.009675920382670566;9.362343525177972e-05;0.03262975425716319;0.0326297542571632;0.0008371378049200722;0.08769246456612609;0;53.71036259;86.83147619
1.6822528560653494;1.626420482916537;-0.0295707147955541;0.035977385905285195;2.025237802185885;0.5213809019977298;0.2718380449679664;3.2927284582242584;2.047267566972975;-0.9911287855613338;0.012527730188629429;0.00015694402367909713;0.041806872641990456;0.0326297542571632;0.0008201552716253909;0.08769246456612609;0;53.70998431;86.83143326999999
2.101239617858614;1.592460514174987;-0.0198837565004588;0.03483205471312176;2.3058642887361676;0.548795244786699;0.3011762207004929;3.2927284582242584;2.047267566972975;-0.9911287855613338;0.012063099109364081;0.0001455183601223405;0.041806872641990456;0.0326297542571632;0.0007895173952325379;0.08769246456612609;0;53.70962555999999;86.8313766
3.121907940492523;1.1890108503399408;0.0652595085143265;0.034393479396460654;3.2927284582242584;0.5416900668474087;0.2934281285211502;3.2927284582242584;2.047267566972975;-0.9911287855613338;0.012026651720169755;0.00014464035159826214;0.041806872641990456;0.0214132762312633;0.00044053211239871104;0.07647598654022619;0;53.70926914;86.83132226000001
1.9442488940119735;0.7407569276159409;-0.0152951973080452;0.03430940181824545;2.383168125541549;0.5711219623991235;0.32618029593462583;3.2927284582242584;2.047267566972975;-0.9911287855613338;0.011950040390891535;0.0001428034653439391;0.041806872641990456;-0.0056082390129499;0.00016959716625799046;0.049454471296013;0;53.70891984;86.83127248
1.4701784284915231;0.687248486765606;0.0101967982053635;0.03797176086429978;2.064890158802996;0.5826127337204616;0.3394375974932295;3.2927284582242584;2.108726767272608;-0.9911287855613338;0.011244766792206087;0.00012644478021110077;0.041806872641990456;-0.0101967982053635;0.0001460728918217357;0.0448659121035994;0;53.708577479999995;86.83123476
2.3453276995781778;1.0303363337826217;0.0112164780258998;0.04304721807203815;2.7949526888438068;0.6658443796482426;0.4433487379091531;3.2927284582242584;2.125807522959832;-0.9911287855613338;0.011762591006695312;0.00013835854719078944;0.041806872641990456;0.011726317936168;0.00033089657432624657;0.0667890282451309;0;53.708274859999996;86.83122142
1.5590483229342849;1.4654675405147386;0.0061180789232181;0.046798286550503033;2.031091914209811;0.666140525720441;0.4437432000071055;3.2927284582242584;2.125807522959832;-0.9911287855613338;0.015147289487569385;0.00022944037882023004;0.05200367084735391;0.0326297542571632;0.0006818458235955128;0.08769246456612609;0;53.70796574;86.8312323
1.1521170429304737;1.4677244026480765;-0.0316100744366268;0.04889090347994915;1.6072269394192176;0.7689861175850656;0.5913396490385524;3.2927284582242584;2.474194366966893;-0.9911287855613338;0.015385662396370906;0.00023671860737510176;0.05200367084735391;0.0326297542571632;0.0006845116192130288;0.08769246456612609;0;53.70765104000001;86.83126576
0.5756899788526395;1.5436846145432124;-0.0815743856429081;0.03750071922601196;1.1840016909516506;0.8498413967640712;0.7222303996539075;3.677346172272679;2.8588120810153135;-0.9911287855613338;0.016258928943694476;0.000264352770396106;0.05200367084735391;0.0326297542571632;0.0007497730685883035;0.0948302233098806;0;53.707295710000004;86.83129955000001
-0.6554940769710412;1.525025788734419;-0.0744366268991536;0.03700078237898847;1.1669209352644268;0.837631458506857;0.7016264602803246;3.677346172272679;2.8588120810153135;-0.9411644743550523;0.028540967908320156;0.0008145868491437609;0.10196798205363533;0.0326297542571632;0.0007297983746655119;0.0948302233098806;0;53.70693602;86.83132898
-1.7871178069268858;1.5169198671659663;-0.0744366268991536;0.03658489686326345;2.0004242213438426;0.8635774672471092;0.745766041936932;3.677346172272679;2.8588120810153135;-0.9411644743550523;0.0277241777976277;0.0007686300345544726;0.10196798205363533;0.0326297542571632;0.0007200507471366771;0.0948302233098806;0;53.706569009999996;86.83135365000001
0.0281409631121962;1.4869736633464177;-0.0652595085143265;0.03783670181183706;0.8185340912573652;0.811013051986224;0.6577421704920096;3.677346172272679;2.8588120810153135;-0.9411644743550523;0.029360218237122614;0.0008620224149314674;0.10196798205363533;0.0326297542571632;0.0006838213427746907;0.0948302233098806;0;53.70620580999999;86.83137445
3.561035158945661;1.537034513405992;-0.020393596410727;0.04963652224436027;3.677346172272679;0.8577687831403675;0.7357672853301069;3.677346172272679;2.8588120810153135;-0.9411644743550523;0.029302319162013927;0.0008586259082725286;0.10196798205363533;0.0326297542571632;0.00072640475619251;0.0948302233098806;0;53.705844809999995;86.83140001
1.611950231258188;1.5965882378847758;-0.0418068726419904;0.05211618044091616;1.8847462525643286;0.8862515383254664;0.7854417891842557;3.677346172272679;2.8588120810153135;-0.9411644743550523;0.029272734698211;0.0008568929967118462;0.10196798205363533;0.0326297542571632;0.000780587124323159;0.0948302233098806;1;53.705492760000006;86.83145243999999
0.7255734022566123;1.613111095939067;0.0071377587437544;0.05421494825723553;1.224427045191067;0.9666103026038962;0.9343354770999959;3.677346172272679;3.3375578284894893;-0.9411644743550523;0.02945960120678526;0.0008678681032628237;0.10196798205363533;0.0326297542571632;0.0007951435814328856;0.0948302233098806;0;53.70515376000001;86.83154096000001
2.0322094690689902;1.8593340253497042;0.0193739165901906;0.04947391497547501;2.230785833363468;1.0202065050859224;1.040821313019632;3.677346172272679;3.3375578284894893;-0.9411644743550523;0.028926694871532946;0.0008367536761907703;0.10196798205363533;0.0458855919241358;0.0010468980847827948;0.1080860609768532;0;53.704834229999996;86.83167711
-0.6382152975420139;1.7996695939833385;0.0713775874375446;0.04330619132909526;0.8294544355321587;1.0214438711879055;1.0433475819873346;3.677346172272679;3.3375578284894893;-0.9411644743550523;0.025414608980682936;0.0006459023496410098;0.09483022330988089;0.0458855919241358;0.0009715395373806146;0.1080860609768532;0;53.704545200000005;86.83186936000001
-0.8652359045203055;1.799646676587053;0.0214132762312633;0.03795574655908055;0.9610544359949645;1.0498306617575912;1.1021444183663818;3.677346172272679;3.3375578284894893;-0.9411644743550523;0.021673360615790158;0.0004697345603820839;0.07341694707861757;0.0458855919241358;0.0009718427969037338;0.1080860609768532;0;53.70429392999999;86.83211985
-0.2938489826649967;1.563368940779106;0.0622004690527174;0.03811732960471205;0.3397883437831896;0.7930589750453054;0.6289425378999104;2.6532124711294918;2.3134241273463023;-0.9411644743550523;0.02344253541891519;0.0005495524668670933;0.0795350260018356;0.0458855919241358;0.0007347111789400446;0.0856531049250535;0;53.70411139;86.83244675
-2.6529085338771963;1.4758442112446133;-0.0193739165901906;0.0350541871241608;2.6532124711294918;0.8554716855951056;0.731831804854931;2.6532124711294918;2.4401387326532498;-0.9768532680738248;0.014217130668243162;0.00020212680443790025;0.04384623228306317;0.0458855919241358;0.0006625758470407331;0.0856531049250535;0;53.70396082;86.83285169999999
-1.2089219095182993;1.4582205664912085;-0.0163148771285816;0.03697954466335287;1.2161101055872168;0.8783467678295146;0.7714930445565552;2.6532124711294918;2.4401387326532498;-0.9768532680738248;0.023515112720754877;0.0005529605262698079;0.08259406546344461;0.0458855919241358;0.0006473695480957514;0.0856531049250535;0;53.70384742;86.83333222
0.474820731107013;1.3591787267655646;-0.0254919955134087;0.03709403131851534;0.5237805733574151;0.8059079730274834;0.6494876609892669;2.6532124711294918;2.4401387326532498;-0.9814418272662384;0.022924598160535343;0.0005255372008220204;0.07800550627103098;0.0458855919241358;0.0005664194727244383;0.0856531049250535;0;53.70375884;86.83387852
2.2306364813945216;1.3901106536259271;-0.0224329560517997;0.030678086489426513;2.231268131948754;0.8026628995829572;0.6442677303669205;2.6532124711294918;2.4401387326532498;-0.9814418272662384;0.023190649293877996;0.0005378062146716439;0.07800550627103098;0.0458855919241358;0.0005921965321895788;0.0856531049250535;1;53.703694989999995;86.83449051
-0.1164460174071229;1.3727163657145636;-0.0122361578464362;0.029555388767246213;0.21307373847624206;0.8084399752123783;0.6535751935213909;2.6532124711294918;2.4401387326532498;-0.9814418272662384;0.02307528650016594;0.0005324688470647404;0.07800550627103098;0.0458855919241358;0.0005770162269180068;0.0856531049250535;0;53.70364506999999;86.83520603
-0.5512340540513634;1.3866328708133184;-0.0285510349750178;0.018393710848605707;0.6141963209573321;0.7694980588966817;0.5921272626457609;2.6532124711294918;2.4401387326532498;-0.9814418272662384;0.022715006691767795;0.0005159715290070557;0.07800550627103098;0.0458855919241358;0.0005891206141693686;0.0856531049250535;0;53.7036054;86.83593436
1.368724735386337;1.0092108310503511;-0.0150402773529112;0.019696679564841398;1.4385528692132525;0.5683143529947187;0.3229812038198057;2.231268131948754;2.018194393472512;-0.979912307535434;0.023712824196960244;0.0005622980313959432;0.07953502600183537;0.0214132762312633;0.0003187084296827859;0.061180789232180996;0;53.703570389999996;86.83668014999999
0.8506395028882846;1.4690135715438204;0.0346691138982359;0.019748958216504787;0.9334937605028778;0.9349660333620362;0.8741614835407403;3.2858523202995236;3.0727785818232816;-0.979912307535434;0.02544714679844269;0.000647557280181492;0.07953502600183537;0.0591414295911083;0.0006914461536416903;0.098908942592026;0;53.70353955;86.83750947
-0.5250982780005478;1.6323396280082354;-0.0020393596410727;0.021462198023298896;0.7808890975120701;0.9588859144939482;0.9194621970148954;3.2858523202995236;3.0727785818232816;-0.979912307535434;0.02461405848875303;0.000605851875287755;0.07953502600183537;0.0591414295911083;0.0008422094594210022;0.098908942592026;0;53.703515249999995;86.83834021
0.6653475842137907;1.8695389636809159;-0.023452635872336;0.02280910850503266;0.8806295209161912;1.321809196199923;1.7471795511586867;4.271440979941881;4.058367241465638;-0.979912307535434;0.028112482038491985;0.0007903116463645345;0.07953502600183537;0.078515346181299;0.001135695361338062;0.101967982053635;0;53.703501349999996;86.83917111000001
0.3276946535263986;2.0626871157681506;-0.0356887937187723;0.02382723667480207;0.6592745355525006;1.4002475984655998;1.9606933370086794;4.271440979941881;3.6572446589845486;-0.979912307535434;0.027980669941448787;0.0007829178903722956;0.07953502600183537;0.078515346181299;0.001365618067209316;0.101967982053635;0;53.70349801;86.84000233
-3.2699163128890456;2.065392658899956;-0.0193739165901906;0.023434541274412246;3.2858523202995236;1.4052270380347138;1.974663028423815;4.271440979941881;3.706047647452009;-0.979912307535434;0.022694335605572356;0.0005150328685783492;0.07188742734781262;0.078515346181299;0.0013706781689665068;0.101967982053635;1;53.70350626;86.84083233999999
-2.1712468939715004;1.89856490330387;-0.0428265524625267;0.026396438557215348;2.1993046911705685;1.405200134721482;1.9745874186212713;4.271440979941881;3.706047647452009;-0.979912307535434;0.021299744946182492;0.0004536791347724266;0.07188742734781262;0.078515346181299;0.0011664256596808197;0.09330070357907601;1;53.70352934;86.84165926
-4.268968088949044;1.7519935523514454;0.0091771183848271;0.028958876983034308;4.271440979941881;1.3875291226882018;1.925237066307891;4.271440979941881;3.706047647452009;-0.979912307535434;0.022272801895819854;0.0004960777042904365;0.07188742734781262;0.078515346181299;0.0009901972185172912;0.09024166411746701;1;53.70357014;86.8424655
-3.691266286901192;1.6872274147607917;0.0081574385642908;0.02897323512602004;3.7398144141048886;1.3001128410909686;1.6902933995696303;4.271440979941881;3.706047647452009;-0.979912307535434;0.02216777832396235;0.0004914103958203349;0.07188742734781262;0.078515346181299;0.000918720393011038;0.09024166411746701;1;53.70363614;86.84318942
-0.4691433482190603;1.4033214525544786;0.0035688793718772;0.028092595437372306;0.5653933324898712;1.2081384361380323;1.45959848087405;4.271440979941881;3.706047647452009;-0.979912307535434;0.023834311470333772;0.0005680744032648841;0.07188742734781262;0.078515346181299;0.0006407411613761462;0.08412358519424891;0;53.703725;86.84390804
-2.406256963149655;1.0774392264771202;0.0316100744366268;0.029864271374840753;2.4086883465816933;1.0179398857614403;1.0362016110240144;4.271440979941881;3.706047647452009;-0.9809319873559702;0.022671734882263275;0.0005140075625716334;0.07086774752727643;0.078515346181299;0.0003879526874616978;0.0703579076170082;0;53.70383717;86.84460133
-2.959331328105548;1.126772204271205;0.0489446313857448;0.029498790687253564;3.0039984627199585;1.0002232321259286;1.0004465140844392;4.271440979941881;3.706047647452009;-0.9809319873559702;0.02782608271004103;0.0007742908789860445;0.08463342510451721;0.078515346181299;0.00041317232704148635;0.0703579076170082;0;53.70397095;86.84520359
-1.8588215838896935;1.3200051143924418;-0.0050983991026817;0.028862973497620313;2.0787774433574584;0.9945417978561252;0.9891133876828937;4.271440979941881;3.706047647452009;-0.9809319873559702;0.027015047947305658;0.0007298128155952237;0.08463342510451721;0.078515346181299;0.000561648189560698;0.07545630671969;0;53.7041191;86.84579973999999
-2.55928467456337;1.232603263550571;0.0061180789232181;0.030537523847022456;2.929566662837414;0.8123442662387235;0.65990320689093;3.7398144141048886;3.1744210816150176;-0.9809319873559702;0.023964042615264556;0.0005742753384662157;0.08463342510451721;0.0652595085143265;0.0004633112348638778;0.0642398286937902;0;53.70427833;86.84638905
-1.8200150461699949;1.1898915306609492;-0.0469052717446721;0.03424502744951382;2.602332748974783;0.7019996915793105;0.49280356697744715;3.0039984627199585;2.438605130230087;-0.9809319873559702;0.024892628690535507;0.0006196429631248714;0.08463342510451721;0.0509839910268175;0.00043003933289878705;0.0591414295911083;1;53.70444543999999;86.84696576
-1.151154437154143;1.3220379681678094;-0.0132558376669725;0.033920641997221335;2.4120962259984267;0.32786164728970324;0.10749325976351776;3.048389995640656;0.9696125522831975;-0.9809319873559702;0.025598781582057684;0.0006552976184858956;0.08463342510451721;0.0509839910268175;0.0005307908110368228;0.0622004690527173;0;53.704613949999995;86.84753619
-0.17176285557814;1.4646476138949334;-0.0387478331803813;0.047936069124797864;2.3418904016889397;0.4192032743964396;0.17573138526469664;3.5155483030311956;1.4367708596737372;-0.9809319873559702;0.025821209010935132;0.0006667348347863978;0.08463342510451721;0.0509839910268175;0.0006558377092556166;0.07545630671968989;0;53.70477897000001;86.84810313
-0.0579593387726861;1.2560022611190904;-0.0336494340776996;0.08072162914129057;2.564883811137908;0.4606581302060644;0.2122059129249474;3.5155483030311956;1.4367708596737372;-0.9809319873559702;0.023795503026136432;0.0005662259642668681;0.08463342510451721;0.0438462322830631;0.0004889236677307513;0.0683185479759355;0;53.70493092;86.84866468
0.4518091215870822;1.6697028105457965;-0.0560823901294993;0.07848813896998805;2.902870666327863;0.6836624870989082;0.4673943962662649;4.631811497529081;2.2899210958401413;-0.9809319873559702;0.023655265457691487;0.000559571583873852;0.08463342510451721;0.0438462322830631;0.0008673915525836423;0.1029876618741714;1;53.70504096;86.84921504
0.6500337044702238;1.842794045440299;-0.0076475986540226;0.07528072055893502;3.048389995640656;0.9340871321713211;0.8725187704880432;5.0607158216301205;2.7188254199411808;-0.9885795860099929;0.021240542286806358;0.000451160636637609;0.07698582645049457;0.0326297542571632;0.0010635917994840287;0.10196798205363511;1;53.70510922;86.84972361999999
1.3565261508186488;1.9115746355637693;-0.133578056490262;0.07558946719367446;3.5155483030311956;1.0451610307674915;1.092361580234965;5.0607158216301205;2.7188254199411808;-0.9885795860099929;0.021976735264631873;0.0004829768928917142;0.07698582645049457;0.0214132762312633;0.0011347682536530961;0.0917711838482715;1;53.70513457;86.85018161
-0.4463464645083345;1.936357468486175;-0.2589986744162333;0.07476369582673538;3.3820970448433814;1.062591721855364;1.129101167355547;5.0607158216301205;2.7188254199411808;-0.9885795860099929;0.013575428401806793;0.00018429225629258255;0.04435607219333115;0.0081574385642908;0.001152143580234865;0.0825940654634444;1;53.705121559999995;86.85058844
3.3497116471477684;1.9840927059033413;-0.0632201488732537;0.07683550388768402;4.631811497529081;1.0042420285035358;1.0085020518128966;5.0607158216301205;2.4958320104922125;-0.9885795860099929;0.013195675117372475;0.00017412584180324307;0.04435607219333115;0.0081574385642908;0.001209445189174741;0.0866727847455898;0;53.705071399999994;86.85094788
3.9705551031535857;1.9124016819711291;-0.0372183134495768;0.07876684696322263;5.0607158216301205;0.8830632676003398;0.7798007345849894;5.0607158216301205;2.1578451553022573;-0.9885795860099929;0.013219292339799809;0.00017474968996508992;0.04435607219333115;0.0081574385642908;0.0011269123879113386;0.0866727847455898;0;53.704981409999995;86.85125981
4.028520983715291;1.7605423660365584;-0.0387478331803813;0.08291368803373479;4.964121944966262;0.7783391125894458;0.6058117741865259;5.0607158216301205;2.0123258259894645;-0.9885795860099929;0.010694627211404847;0.000114375051190921;0.03619863362904052;0.0081574385642908;0.0009554581180974869;0.0866727847455898;0;53.70485439;86.85152703
4.24586891946958;1.6030514829235345;-0.0244723156928724;0.08322113452487048;4.936198712933366;0.6439230408071178;0.4146368824822851;5.0607158216301205;1.678618776786739;-0.9931681452024064;0.009173341015502766;8.415018538670531e-05;0.031610074436627;0.0081574385642908;0.0007916979756130616;0.0866727847455898;0;53.70469107;86.85174259
4.474280510189551;1.467747821609977;-0.0071377587437544;0.07956626753282989;4.980266432803378;0.5622228223704465;0.3160945019941907;5.0607158216301205;1.678618776786739;-0.9931681452024064;0.0064811863289766;4.200577623091318e-05;0.021413276231263545;0.0081574385642908;0.0006688576514482015;0.0866727847455898;0;53.70449781;86.85190261
4.327923821994255;0.46331271736295787;-0.0040787192821454;0.025482986749831144;4.659014492303318;0.4101252264968214;0.16820270140906907;5.0607158216301205;1.3103805190467606;-0.9931681452024064;0.005288590794284062;2.7969192589386133e-05;0.01733455694911812;-0.0591414295911083;6.826516274712307e-05;0.027531355154481504;0;53.70427761;86.85200753000001
3.465862844121206;0.3772710322149843;0.0183542367696542;0.01937100939012261;3.75033530258336;0.4182474869661927;0.17493096035353553;5.0607158216301205;1.3103805190467606;-0.9931681452024064;0.004995390522651714;2.4953926473798565e-05;0.01733455694911812;-0.0601611094116447;4.74702240189419e-05;0.0265116753339451;0;53.704060590000005;86.85206443
4.28769045058166;0.40042359085276114;-0.003059039461609;0.017668239542784275;4.416895541107952;0.39806680713482495;0.15845718294251393;4.980266432803378;1.2299311302200184;-0.9931681452024064;0.005369883459604288;2.883564836973172e-05;0.01733455694911812;-0.0601611094116447;5.388199679346422e-05;0.0265116753339451;0;53.70384252;86.85209979999999
