acc_X_std;acc_X_kurt;acc_X_var;acc_X_iqr;acc_Y_std;acc_Y_kurt;acc_Y_var;acc_Y_iqr;acc_Z_std;acc_Z_kurt;acc_Z_var;acc_Z_iqr;acc_Z_range;acc_std;acc_var;acc_iqr;acc_kurt;acc_cv;acc_skew;hole
0.03260034175014723;-0.5308215484284282;0.0010627822822263924;0.037983073314979104;0.05100862733681053;3.219966259685053;0.0026018800627856144;0.030080554705822382;0.03885374535547606;2.9056333469264146;0.0015096135281481777;0.024982155603140502;0.1254206179259711;0.050075198365225324;0.002507525491316665;0.040963063689029536;2.8452053210320543;0.7051816387133363;1.590889684054429;1
0.03260034175014723;-0.5308215484284282;0.0010627822822263924;0.037983073314979104;0.05100862733681053;3.219966259685053;0.0026018800627856144;0.030080554705822382;0.03885374535547606;2.9056333469264146;0.0015096135281481777;0.024982155603140502;0.1254206179259711;0.050075198365225324;0.002507525491316665;0.040963063689029536;2.8452053210320543;0.7051816387133363;1.590889684054429;1
0.03260034175014723;-0.5308215484284282;0.0010627822822263924;0.037983073314979104;0.05100862733681053;3.219966259685053;0.0026018800627856144;0.030080554705822382;0.03885374535547606;2.9056333469264146;0.0015096135281481777;0.024982155603140502;0.1254206179259711;0.050075198365225324;0.002507525491316665;0.040963063689029536;2.8452053210320543;0.7051816387133363;1.590889684054429;1
0.03260034175014723;-0.5308215484284282;0.0010627822822263924;0.037983073314979104;0.05100862733681053;3.219966259685053;0.0026018800627856144;0.030080554705822382;0.03885374535547606;2.9056333469264146;0.0015096135281481777;0.024982155603140502;0.1254206179259711;0.050075198365225324;0.002507525491316665;0.040963063689029536;2.8452053210320543;0.7051816387133363;1.590889684054429;1
0.032286538547642143;-0.3756807577242348;0.0010424205713883822;0.036198633629040494;0.028128900452516106;-1.8868637953495089;0.0007912350406675607;0.044356072193331375;0.021513621777344998;0.8920192439205842;0.00046283592197865286;0.024982155603140502;0.0622004690527173;0.02304988954689109;0.000531297408123879;0.023517752589821098;-0.194319155407738;0.422601314940622;0.31639526542649105;0
0.024611518809219895;0.6150735498389188;0.0006057268580965847;0.0219231161415316;0.02834981488307233;-2.0168289389965226;0.0008037120039044695;0.045375752013867676;0.025821025251383387;-1.5244200878519976;0.0006667253450325785;0.0397675130009176;0.0622004690527173;0.020955530497721416;0.00043913425844093243;0.012979357744414256;1.2314430076070835;0.36173673333021245;-0.001090464415703316;0
0.024731928132714995;0.8936653330915071;0.0006116682691617795;0.024472315692872497;0.02895462372606669;-0.7801689057190089;0.0008383702351181041;0.037473233404710815;0.021125789796214992;0.24512615511340527;0.00044629899451386154;0.02651167533394505;0.0601611094116446;0.020416735124763184;0.0004168430731547388;0.010266753592099012;2.4263358897983522;0.3819419756031016;0.7258970204004053;0
0.020829583362031823;2.35670002757776;0.0004338715430358329;0.015295197308045301;0.028547783259806718;-0.7247118274090958;0.0008149759290489008;0.035688793718772205;0.019480955617969566;0.9061947832614059;0.0003795076317893;0.01886407667992245;0.0601611094116446;0.017231006754077786;0.0002969075937590743;0.010266753592099012;3.913658234295197;0.3096340448983192;1.7581870394586947;1
0.025755747813429368;1.4482522773950706;0.0006633585454289717;0.01886407667992255;0.030282741288943035;-2.1540471110328396;0.0009170444199730552;0.051493830937085705;0.019524114105154818;1.7862848844819752;0.00038119103159110524;0.016314877128581602;0.0601611094116446;0.01941818421453856;0.0003770658781897544;0.016015115551155104;2.5723837692082925;0.3660989058403753;1.3824975174109415;0
0.02467581023319575;2.117690059357284;0.0006088956106646881;0.013255837666972602;0.02422499742053386;-1.0709281904167398;0.0005868505000248722;0.032119914346894984;0.018681766199192772;2.248990137557459;0.00034900838832130154;0.01121647802589985;0.0601611094116446;0.021412737341145408;0.0004585053204408829;0.021074091746965007;2.124744661830442;0.43256702346777415;1.403301082368782;0
0.015186367993937903;3.0631026165689605;0.00023062577284730152;0.009686958295095353;0.018341756285234007;2.5319544268292136;0.0003364200236269212;0.016314877128581484;0.018557118874615697;1.9847799950698515;0.0003443666609266182;0.01300091771183845;0.0601611094116446;0.01078958572568176;0.0001164151601318356;0.01474265049483825;-1.2450008546745004;0.25263504823001487;0.2631922817225663;0
0.01353672854135647;4.577790239184973;0.00018324301960237485;0.007647598654022654;0.01836603482754783;0.1340714221004376;0.00033731123528669976;0.017844396859385936;0.015212021004771453;3.835590172073611;0.00023140558304960787;0.0107066381156317;0.0448659121035994;0.00891764354761611;7.952436644233925e-05;0.007645945855125957;0.9362967527925654;0.2193191354654213;0.5734568560746501;0
0.019967929142337994;2.1440280475144533;0.000398718194233431;0.010706638115631703;0.019588989489852014;-0.25857986512980985;0.00038372850923353263;0.02396247578260413;0.007941385450228178;0.1606704335004892;6.306560286909581e-05;0.0079025186091567;0.0244723156928724;0.013952154976479099;0.00019466262848769045;0.007645945855125957;3.9323856659868297;0.3254909746112819;1.752548335195501;0
0.019967929142337994;2.199501551322224;0.00039871819423343093;0.009686958295095298;0.017531942251389716;0.2530008876142965;0.0003073689991060639;0.018864076679922348;0.009384510701245389;1.2148907502435833;8.806904110178922e-05;0.0079025186091567;0.0295707147955541;0.0140145202211505;0.00019640677702903624;0.009811561543087377;3.180648193253508;0.32221410551210317;1.5448003769150025;0
0.020066866595050675;2.011024201441147;0.0004026791349435607;0.011726317936168053;0.01633459116678811;0.17794853753382042;0.0002668188685861122;0.017844396859386213;0.010300064142173049;0.8286159950279725;0.00010609132133287903;0.010706638115631599;0.0295707147955541;0.014474329460455463;0.00020950621332980893;0.012591990154604799;2.886680894520782;0.33897706387086823;1.5581639174396655;0
0.01490168576241115;-0.3783045827223944;0.00022206023856164716;0.01631487712858165;0.01151918025683013;-0.26950311873478866;0.00013269151378934507;0.013255837666972747;0.015542055643296178;-0.05468129110167084;0.00024155549361931455;0.01809931681452015;0.042826552462526694;0.016847517099127095;0.0002838388324053799;0.020767234347769614;-1.0770119934609235;0.3496296661272545;0.6659205179641918;0
0.013195940889875106;-0.5115225135415933;0.00017413285596907778;0.01580503721831345;0.026910202253596388;3.344827122095006;0.0007241589853294641;0.02141327623126349;0.023631139423008984;0.6806792523236325;0.0005584307504296894;0.0231977159172019;0.0734169470786172;0.020490395406758125;0.0004198563039252945;0.028083794456659067;-1.120058683091436;0.36059095502076505;0.5787632496079647;0
0.0150603242798355;-1.007026202444525;0.0002268133674138027;0.02039359641072705;0.030208257975515393;-0.8086873045966101;0.0009125388499152893;0.04053227286631994;0.02883338900020363;-1.0022797525960818;0.0008313643212370637;0.0354338737636381;0.07851534618129899;0.020077794999701224;0.0004031178520500274;0.026753368997470467;-1.2676199882970558;0.3320052718533238;-0.03788795508449126;0
0.025819107682389552;1.3618281350783605;0.0006666263215148273;0.025491995513408805;0.031957263218372604;-1.991610532502635;0.0010212666724083504;0.05276843071275633;0.030086109349372284;-1.2597415245606782;0.0009051739757823863;0.0423167125522585;0.07851534618129899;0.01884990843143993;0.00035531904787367024;0.021547756702534587;-0.4648258562422406;0.3042189863960104;-0.18342341863496797;0
0.0234705736883717;2.1973406313232204;0.0005508678292612861;0.0229427959620679;0.032520509644597344;-1.9563641894057262;0.001057583547544349;0.05276843071275633;0.03186047834682469;-1.2389415144320082;0.0010150900804884852;0.04588559192413575;0.07851534618129899;0.018719029294068743;0.00035040205771220376;0.02074741999753006;-0.36101935955089176;0.30322577163968534;-0.15017449948843536;0
0.031193029436772563;0.9775672376120553;0.0009730050854433597;0.027531355154481504;0.0320412031335663;-1.7614792921872855;0.001026638698246459;0.047160191699806175;0.03634656449165457;-1.3123182773458217;0.0013210727503460047;0.05251351075762205;0.0856531049250535;0.024386620705529993;0.0005947072694353841;0.01891535765528138;0.41087960207434476;0.3450013723656743;0.09035582455191149;1
0.0320927345072288;0.2835952712163731;0.0010299436081514742;0.03262975425716325;0.03222686817138341;-1.854023611177901;0.0010385710321357254;0.04817987152034259;0.043983217740717194;-2.5551018220378623;0.0019345234428273397;0.07698582645049445;0.0968695829509533;0.019402328594137833;0.0003764503548748985;0.016521152907484307;0.7410321550747149;0.2616945221616953;1.0239040730329487;1
0.037064177608450086;-0.8038585550361056;0.0013737532617907327;0.04792495156520855;0.03261097126506147;-1.8795747971895473;0.0010634754468506647;0.04919955134087889;0.041498409574905824;-0.7142568522635905;0.0017221179972466353;0.0438462322830631;0.0968695829509533;0.02139851505986997;0.0004578964467674819;0.03080342488615899;-1.4989395548191304;0.2735620979748355;0.3187934303604826;1
0.03923417621760592;-1.4017771036080489;0.001539320583474154;0.05608239012949935;0.027906237249594495;-2.081864268340792;0.0007787580774306553;0.04690527174467213;0.04738103176360508;-2.6028112961404237;0.0022449621709837533;0.08259406546344436;0.1029876618741714;0.02160853070963369;0.00046692859942918226;0.025428613643463008;-0.6467112747318744;0.2914163387160035;0.9604268670731185;1
0.04189973682789947;-1.7576254510165767;0.0017555879462472352;0.06576934842459464;0.0274078894786902;-1.479603028432423;0.0007511924056760969;0.041806872641990345;0.045637283539929734;-2.691806703246712;0.0020827616489039412;0.0825940654634443;0.0978892627714896;0.02300531689660311;0.0005292446055131325;0.02925018781690028;-0.7187296706504824;0.3201963018978862;1.0471850013413946;0
0.03645673676131781;-1.6699570598035394;0.0013290936552840212;0.05608239012949935;0.02618281523071375;-1.3525038313255648;0.0006855398134056958;0.03874783318038122;0.04141719930221518;-0.8516355825059925;0.0017153843980394134;0.046905271744672045;0.0978892627714896;0.021399112209227304;0.0004579220033431011;0.027053592698788112;-0.7571198370654777;0.28597796550621263;0.8803483421929214;1
0.039425526732976536;-1.6532980867381504;0.0015543721581726478;0.0627103089629856;0.03592317473943883;0.1928391842095536;0.0012904744833602563;0.039257673090649425;0.030572585498659606;5.522848012510184;0.0009346829840728516;0.013255837666972498;0.0907515040277351;0.02135847526890748;0.00045618446581253253;0.027053592698788112;-0.7828471700565238;0.28472793121736245;0.8502921746641644;0
0.033617784104812094;1.9299834651717447;0.0011301554081177565;0.03161007443662685;0.03310427874120103;0.5871147773549161;0.0010958932709751346;0.03619863362904041;0.030436244981626417;5.123355741991249;0.0009263650085815792;0.015805037218313403;0.0907515040277351;0.017610403827844227;0.0003101263229797506;0.017147851861134766;1.4676885594711564;0.2672573581886486;1.0961478906899829;0
0.036092989455055964;-0.9504232183848579;0.0013027038878027808;0.05251351075762205;0.03390430839729364;-0.4482757505569964;0.0011495021278987957;0.04206179259712445;0.03141603732883196;4.638486227989712;0.0009869674014465633;0.018864076679922452;0.0927908636688078;0.019517516078093614;0.0003809334338586427;0.025419864484500718;-1.0822974107132346;0.27574624280375903;0.28315228635982675;0
0.029779273215428878;-0.477704635661226;0.0008868051132391599;0.0285510349750178;0.03554369729552043;-1.2398225996038754;0.0012633544174355863;0.049199551340878944;0.02047355735209383;1.8058775812802452;0.0004191665506494753;0.022432956051799652;0.0581217497705721;0.020151807000443;0.0004060953253831035;0.025419864484500718;-0.909898063198245;0.2832368152264895;0.372577594805852;1
0.0326350646574355;-0.7978383258700354;0.0010650474451949958;0.0361986336290404;0.034966140704395236;-0.6792845946443009;0.0012226309957595652;0.03517895380850411;0.024130028686039008;-1.34566071428576;0.0005822582843890654;0.0361986336290404;0.0581217497705721;0.021029685327805376;0.0004422476649865127;0.029716076887657768;-1.3679782469458637;0.2778882119010224;-0.31597421306908463;1
0.032482996989497005;-1.1816110434219724;0.0010551450934196717;0.04384623228306305;0.03487433473179156;-0.7469515032567763;0.001216219222985043;0.03874783318038133;0.02452082379932795;-2.058584486166093;0.000601270799797688;0.04231671255225855;0.0581217497705721;0.018587897467452975;0.0003455099322605447;0.019630347983509266;0.9298787215109634;0.23468511596318847;-0.8602960352803639;1
0.028641068783616608;1.1438438015631136;0.0008203108210678577;0.028041195064749603;0.029105138043992024;0.4310157669738864;0.000847109060559832;0.02651167533394505;0.027290215774561706;-1.5214849717164909;0.0007447558770221365;0.04129703273172225;0.06933822779647189;0.02082848491963853;0.0004338257840476097;0.02234138287352759;0.9278447320109564;0.24846533485316438;-1.0665773284045885;0
0.03562978385559707;-1.3043234208931516;0.0012694814975965656;0.049454471296013006;0.022107531517807383;1.06998449548513;0.0004887429498108469;0.02166819618639737;0.03033929974925701;0.20498004195470826;0.0009204731092752666;0.03110023452635874;0.0938105434893444;0.030492546235120085;0.000929795375900936;0.018898433997155156;1.7365263356833367;0.3225533963519559;0.15644343853096287;0
0.04078233691420169;-1.863161682679872;0.0016631990041834578;0.06525950851432645;0.012634804650565235;1.524981131030104;0.0001596382885579449;0.010961558070765653;0.028591758442108706;-0.9407349523724051;0.0008174886508118944;0.036198633629040494;0.07953502600183548;0.030925064374484404;0.0009563596065660045;0.03402925587202579;-0.5295215700373717;0.278244516349041;0.9630925520502103;0
0.04182285759717134;-1.9597084146366186;0.0017491514175932725;0.06882838788620371;0.01252460099407778;0.9502919938403828;0.0001568656300608541;0.009941878250229352;0.03129049427198595;-1.3119907024820556;0.0009790950317851855;0.04486591210359951;0.0856531049250535;0.03735463559637441;0.0013953688005379223;0.05694398712216618;-1.8733705803558025;0.3038155253676829;0.3285987607992835;0
0.03485569593788842;-0.45517854007591296;0.0012149195393145313;0.04843479147547671;0.00971757696740472;1.6710759444050454;9.44313021174347e-05;0.0073926786988885995;0.035501011565931384;-1.6422915519740244;0.001260321822204394;0.05455287039869486;0.09177118384827158;0.03993146861067065;0.0015945221854049756;0.06724308557049309;-2.081618178156872;0.30040639538011066;-0.3528990382333455;0
0.02444524076014924;-2.286960862810799;0.0005975697958216618;0.04308147241766086;0.00861714920232975;2.2625557390642244;7.425526037521224e-05;0.0073926786988885995;0.034240165572606604;-0.050535345826533275;0.0011723889384395146;0.04435607219333132;0.09177118384827158;0.03717275258512952;0.001381813534755253;0.04269083908327742;0.029350478576753148;0.2591302480819665;-1.1979466335195856;0
0.023786198658526148;-2.2480757882309232;0.0005657832466228711;0.04104211277658816;0.008825778982766555;0.6718039200644291;7.789437465264385e-05;0.00968695829509536;0.021907018938940336;0.6601308834915336;0.0004799174787910906;0.026001835423676956;0.06118078923218109;0.02346950884803053;0.0005508178455677833;0.019949588180431466;3.249534954703326;0.152469379020643;-1.7168771439273844;0
0.020727419272841524;-2.1373470190158157;0.0004296259097121623;0.03441419394310186;0.0057585154777613405;-1.460466311952164;3.316050050761692e-05;0.00866727847455906;0.014667262604825745;-1.8860773689118304;0.0002151285923189197;0.02396247578260427;0.03670847353930859;0.013390407675554935;0.0001793030177175605;0.019949588180431466;-1.4326974709084097;0.08442141470004878;-0.35207303886775637;0
0.019285226333685075;-0.9198461171217523;0.0003719199547414603;0.023707555827470153;0.011525088768693086;2.38653727582235;0.0001328276711262555;0.011216478025899868;0.013811908157514735;-2.0924531826399972;0.0001907688069516221;0.02396247578260427;0.03262975425716319;0.0134610914135589;0.00018120098204418917;0.020180957326232873;-1.4799508831688464;0.08490243348568866;-0.34614736983100913;0
0.015633375187550574;-0.5954729162997985;0.00024440241975472193;0.018609156724788405;0.011595756084412255;1.901420867151606;0.00013446155916918386;0.012236157846436169;0.01335259689029492;-1.4739763345727361;0.0001782918437147136;0.01988375650045887;0.03262975425716319;0.013509993826939102;0.00018251993320393263;0.020180957326232873;-1.499390381530602;0.08512611150640491;-0.3872499481082109;0
0.022405626552046767;2.3001814537652066;0.0005020121011897831;0.018609156724788405;0.011361212760588168;1.4539413449582752;0.0001290771553913514;0.012236157846436169;0.013175288483423605;-1.546062897952416;0.00017358822662143466;0.019883756500458816;0.03262975425716319;0.012575658026700865;0.0001581471748045259;0.01887282444357974;-1.45623301207711;0.0796348470005852;-0.5417809549072503;0
0.023084788037337378;0.4348270433245943;0.0005329074387287949;0.027531355154481497;0.011816224440660881;1.0943132639203696;0.00013962316003207157;0.01325583766697247;0.010837061043260135;-0.13217825150994428;0.00011744189205534644;0.014275517487508882;0.029570714795554204;0.011156518086704913;0.00012446789581897386;0.01585970087498051;-1.3438363536659594;0.07189477873106805;-0.16393378657232893;0
0.026574397355292347;0.06684113275449519;0.0007061985947969688;0.0293157948404201;0.013291273666273813;1.4638549060910648;0.00017665795567178375;0.01325583766697247;0.009445643942880335;-0.6415882710718293;8.922018949567196e-05;0.011726317936168018;0.026511675333945092;0.014931579807680992;0.00022295207555314675;0.015135881473406304;0.1895805090715335;0.10012920231639721;-0.48155815151297204;0
0.03480469897320094;-0.062016873846775414;0.0012113670706151343;0.03645355358417455;0.013054480995172866;0.7021693602054035;0.00017041947405332955;0.01325583766697247;0.012976497676160121;1.0254708626624676;0.000168389491939389;0.010706638115631661;0.04078719282145399;0.020420503633088;0.00041699696862896023;0.026164766334103418;-0.8222066329712533;0.14233256502989106;-0.41591676764387914;0
0.03979629391194865;-1.563782588126952;0.0015837450091262014;0.0599061894565106;0.013268904045371043;0.5062093124186753;0.00017606381456526405;0.014275517487508771;0.013214687796457519;0.27242759071193917;0.0001746279735578433;0.01427551748750891;0.04078719282145399;0.021475877523292143;0.00046121331539544466;0.032599690569982465;-1.6539258816726417;0.15163174323723808;-0.12415768324282668;0
0.047106585391770095;-1.7066682680879892;0.002219030387272128;0.0721423473029468;0.00831374857641016;-1.5939782924606498;6.911841539176197e-05;0.01325583766697247;0.013714779326415875;-0.10139115456451009;0.0001880951719722843;0.015805037218313445;0.04078719282145399;0.0214421125444148;0.0004597641903673506;0.032599690569982465;-1.6373441953982386;0.15156202389451492;-0.0950448176537792;0
0.052329570818118176;-0.6332619625439392;0.0027383839820084455;0.06092586927704695;0.008016624166184504;-1.4283755261739792;6.42662630218534e-05;0.012236157846436169;0.011396023145526601;-0.10172172646847528;0.00012986934353337803;0.01427551748750891;0.03161007443662689;0.01927981793053437;0.00037171137943455457;0.023690406049420187;-0.4015936203466495;0.13986540045551107;0.35436050106037426;0
0.038971282062573144;1.576717735384409;0.0015187608256006355;0.03670847353930865;0.00942727994617398;-1.206885793871841;8.887360718353408e-05;0.01325583766697247;0.011238527345442617;-0.006730867502777471;0.00012630449689426148;0.01376567757724076;0.03161007443662689;0.014466582200331517;0.00020928200055894867;0.02035924853291962;-1.0315030320070093;0.1075347232717792;-0.4259976021225985;0
0.021626097066936592;-0.31404451992939786;0.0004676880743485635;0.024472315692872455;0.011291270039605745;-1.3822214647940179;0.00012749277910729834;0.016314877128581484;0.01212028830461289;-1.147501587203444;0.000146901388586936;0.014785357397777088;0.03161007443662689;0.014246974788853563;0.00020297629063422903;0.023147464668395346;-1.8225964305083777;0.11062679903177942;-0.013495202748537365;0
0.022144174401274384;-0.18255044061113496;0.0004903644599140558;0.024472315692872455;0.010074676456198112;0.696649327781109;0.00010149910569707253;0.0101967982053634;0.023302262971649477;1.9748511796975918;0.0005429954595999063;0.02192311614153153;0.06831854797593559;0.024889499700267735;0.0006194871953296276;0.029240765287864914;1.1283177611216118;0.20429931066978804;-1.1069970221473653;0
0.022054557787539657;0.09173131976200395;0.00048640351920392616;0.023962475782604305;0.011617618288516365;-1.005227022304696;0.0001349690546976699;0.015295197308045183;0.0299252265288243;-1.1825863553668703;0.0008955191828014497;0.04027735291118589;0.07239726725808099;0.030766242486987772;0.0009465616767681315;0.04749176720001663;-1.429143748795871;0.26417169944627045;-0.7003082508547648;0
0.022712617985065384;-0.42626593583722183;0.0005158630157355155;0.026511675333945155;0.015121021873280809;-1.4010884405290227;0.00022864530249223667;0.021413276231263434;0.03741319199428138;-1.9425126672063229;0.0013997469352009602;0.061690629142449285;0.092790863668808;0.03902858971003795;0.0015232308147544798;0.06638036447813153;-1.9684249932944546;0.3692523512901101;-0.2828088779161501;0
0.02279856233815564;-0.47113138533931787;0.0005197744446867687;0.027021515244213354;0.019326580374324616;-1.3735535687979472;0.0003735167089652294;0.027021515244213368;0.035956926447420545;-1.913667121565269;0.0012929005595452112;0.05608239012949935;0.09075150402773531;0.03659957411679753;0.0013395288255309559;0.05222452155138002;-1.6442184913822615;0.38489991109136096;0.4222326069975042;0
0.022191078247504638;-1.9052836008190481;0.0004924439537868736;0.0372183134495768;0.019326580374324616;-1.3735535687979472;0.0003735167089652294;0.027021515244213368;0.03420544363129117;0.19316699407640597;0.0011700123740134374;0.038237993270113194;0.09075150402773531;0.033639187238919455;0.0011315949180950816;0.029917625675045703;0.8629867007534038;0.40248236214560495;1.23900575288733;0
0.031896200736087836;0.60966381000948;0.00101736762139681;0.03670847353930855;0.01581560640142164;-0.566799724668676;0.0002501334058446891;0.016824717038849857;0.042845623859018356;3.1331164584166844;0.0018357474838684828;0.020903436320995207;0.1417354950545528;0.019762520978033177;0.00039055723540720147;0.013059863553977577;3.092156589664228;0.27333657513690907;1.4609722436323453;0
0.0372121602740467;-1.3755280747055116;0.0013847448722613398;0.0530233506678902;0.02248586404050456;-0.4876355459326639;0.000505614081648056;0.027531355154481407;0.04961427330989513;-0.6070295831240486;0.002461576116068972;0.05353319057815841;0.1223615784643621;0.012699638148783369;0.00016128080911003388;0.013059863553977577;0.020185609800934402;0.1840316408241123;0.012779910853397653;0
0.03901270905573379;-1.9184312653950315;0.0015219914678673335;0.0657693484245946;0.021940611969989962;-0.6512144428099489;0.0004813904536176668;0.028296115019883494;0.06648504566613539;-1.1005575467140118;0.0044202612972281076;0.09381054348934426;0.171306209850107;0.02251113732659757;0.0005067513037369343;0.019894035099751656;1.5428350976198615;0.29989870550165354;1.1942726608744574;0
0.033664880226815866;-0.21772578065819204;0.0011333241606858579;0.04282655246252675;0.02184562807227185;0.10256886381577246;0.0004772314658720319;0.024727235648006496;0.06438648593252692;-1.9468198854356138;0.0041456195707394875;0.10604670133578045;0.1590700520036708;0.02251810667380315;0.0005070651281727781;0.01949060129333044;1.583553872746282;0.3004529318178826;1.2145866628409052;0
0.03233863588638198;0.8765811858712638;0.0010457873709919922;0.036198633629040494;0.02621423428956764;-1.864801009323238;0.0006871860793883439;0.04155195268685624;0.06113788289294646;-1.0460292130362632;0.0037378407246316347;0.07698582645049444;0.1590700520036708;0.019866363702597548;0.00039467240676388537;0.012575230133206772;2.5894833201109067;0.2539130616675662;1.5028599701800096;0
0.01971464702147813;-1.85606514503625;0.0003886673071814765;0.030590394616090547;0.026661356759398624;-1.950656565661967;0.0007108279442519308;0.04257163250739254;0.05052256146639165;2.8637452146799474;0.002552529217125322;0.03823799327011315;0.153971652900989;0.0204746830377255;0.0004192126454953243;0.022099879791118576;0.31427433891830886;0.25043658991028966;0.7900317748539064;0
0.025536870483747517;-0.787580706116654;0.0006521317541036951;0.0336494340776996;0.02376276987323122;-1.5002060380131126;0.0005646692320481452;0.034414193943101745;0.02501458791750793;-0.5881829645811237;0.0006257296086827337;0.0316100744366269;0.07239726725808099;0.017346771313975252;0.0003009104750193547;0.019373444267869494;0.5841603101885049;0.2004141709073404;0.8266336919201271;0
0.02518251348915516;-0.8573167170455285;0.0006341589856314816;0.031610074436626855;0.023357176480083574;-1.1860682655029322;0.0005455576931217693;0.03237483430202903;0.02193186580039121;-1.1321745167006696;0.0004810067374863695;0.02957071479555426;0.06118078923218111;0.017067018173051948;0.00029128310931928543;0.022229467550464788;-1.0908938632843934;0.1835485591376078;0.30996893893114;0
0.019787031390701315;-1.0896970406976174;0.0003915266112565992;0.02549199551340875;0.020782882535873657;-0.9138649569571307;0.00043192820649992224;0.028551034975017875;0.019874727980973197;-1.5595432689321782;0.0003950048123176789;0.02957071479555426;0.05200367084735401;0.01888069278381874;0.00035648055999694503;0.029995499433541795;-1.5982616629262858;0.2085602380790132;0.45049400743500373;0
0.019225442984589294;-2.1670059362069622;0.00036961765795369373;0.03237483430202905;0.019082950152886455;-1.4351475510446576;0.00036415898653754914;0.02906087488528608;0.02323736737043218;-0.2049966960045758;0.0005399752423084262;0.027021515244213354;0.0703579076170083;0.021479359331810912;0.00046136287730505244;0.02023084117010926;0.5156042584164915;0.268329141625339;-0.24968695426393708;0
0.01805198102664079;-1.4546674715613783;0.000325874018986199;0.026766595289079098;0.02027794756552886;-1.1761742768277899;0.00041119515747033787;0.026511675333945106;0.023613585675803312;-0.42621147281277133;0.0005576014284685034;0.029060874885286053;0.0703579076170083;0.022374104148243926;0.000500600536436466;0.025513325747281046;-0.3130858014180212;0.28487791980343946;-0.03668318935473092;0
0.02756572765988994;-0.21695428826860308;0.0007598693414192213;0.03645355358417445;0.018436328937399743;-0.4870419838642427;0.00033989822468800317;0.023452635872336036;0.023591559540057844;-0.4713393132440878;0.0005565616815320943;0.029060874885286053;0.0703579076170083;0.02349653843535882;0.0005520873184442943;0.029948186922788916;-0.6823005884856223;0.28578005450655564;-0.5334850214831486;0
0.0489169313498705;1.163565820518788;0.002392866172687943;0.0542979504435606;0.015976016931919544;0.27883633736327196;0.0002552331170089799;0.018354236769654197;0.024590386559795483;-1.0404907222515092;0.0006046871111601703;0.03364943407769966;0.0703579076170083;0.03558168905862913;0.001266056596264968;0.03811602394742408;0.47135957462469946;0.39372651068327363;0.6403351426494884;1
0.04668943906088268;0.6028157247142503;0.0021799037198198773;0.055062710308962946;0.020712783267004993;0.5969517259244803;0.000429019390665922;0.01937391659019061;0.024077649068926;-0.4269203433057349;0.0005797331846863532;0.027531355154481504;0.0703579076170083;0.03558300610863967;0.001266150323727488;0.03811602394742408;0.45432187717815536;0.3932471543125132;0.6268687673416651;0
0.054790934249802435;-1.120322653792794;0.0030020464759661736;0.0713775874375446;0.03287013237280349;0.4890939054046058;0.001080445602205624;0.03313959416743134;0.033580944301402835;2.470927302989884;0.0011276798201739194;0.0214132762312634;0.1060467013357805;0.039873277232034446;0.0015898782372226765;0.05258971260484062;-1.1043803876513565;0.4214023894737874;0.4359197488099121;0
0.053927471488436206;-0.9840297760164696;0.0029081721811360997;0.06372998878352196;0.0355658040226833;-1.2512411527848635;0.0012649264157799155;0.04996431120628103;0.044444584958593936;-1.029734040005915;0.0019753211321416743;0.056082390129499296;0.1182828591822167;0.039696860140619405;0.001575840705023898;0.051633421009007544;-1.0666944547639887;0.4183299476471763;0.42310332659123134;1
0.04530572797945188;-0.7329270566311508;0.0020526089877480887;0.04945447129601305;0.03723078298276689;-1.655929296004367;0.001386131201509885;0.057611909860303734;0.059921141861397194;-1.5422363266535548;0.0035905432419736875;0.08769246456612614;0.1580503721831344;0.03413390334846028;0.001165123357802028;0.043719647317807545;-0.9574693142703851;0.34200655188134893;0.790385411886293;1
0.038625611066094856;-0.7775851176202778;0.0014919378302292294;0.04435607219333125;0.04001265093735258;-1.9398214490979158;0.0016010122350344222;0.06423982869379002;0.06078498997423503;-1.9369184282013072;0.003694815006167853;0.0927908636688079;0.1580503721831344;0.03324556494019025;0.0011052675881924074;0.043719647317807545;-0.9498810342155473;0.3306578922669597;0.8785609295507962;0
0.03900953612993822;-0.724394013816255;0.001521743909072955;0.04231671255225855;0.04230310878453968;-2.2662841275447057;0.0017895530128365985;0.07137758743754458;0.05773199348972377;-0.42770907755538373;0.0033329830722975077;0.05914142959110835;0.1580503721831344;0.034762617367481506;0.001208439566237927;0.04210933004697964;-0.7767968497244375;0.3586977336471369;1.1032306438394313;0
0.03292506584053588;3.3989149375501966;0.0010840599606036228;0.0219231161415315;0.042671934057475075;-2.358131767341127;0.0018208939562055014;0.0729071071683492;0.04057847415760962;3.7174757789528727;0.0016466125649597923;0.02396247578260425;0.12745997756704391;0.02471071507585461;0.0006106194395600682;0.01557978833632942;4.707280874693696;0.28192515441034655;2.0829333191610924;0
0.03251194457821598;3.440462648760449;0.0010570265402569878;0.018864076679922452;0.034706225233384895;-1.1168830096431706;0.0012045220699504423;0.04843479147547669;0.016948959407649716;0.7061167439676354;0.00028726722500215776;0.01784439685938615;0.0520036708473539;0.026294589542902667;0.0006914054392297263;0.012239087867325846;5.133065230698088;0.3144762709064896;2.184824595990459;0
0.01370394473934512;1.9679254435757514;0.00018779810141902482;0.007137758743754448;0.03226659674737319;-0.9347507362575584;0.0010411332656575943;0.0418068726419904;0.014441036264352032;1.745767079812542;0.0002085435283883305;0.015295197308045301;0.0418068726419904;0.008355708708613371;6.981786802319733e-05;0.00923011739341112;0.24500454234201285;0.11451581895516762;0.7229250978801557;0
0.035177370419111724;3.911004534636598;0.0012374473896033964;0.017844396859386158;0.03874527750757704;-1.826403275353148;0.0015011965291391552;0.061180789232181176;0.014739660713551577;1.5477036070031531;0.00021725759795061578;0.01631487712858165;0.0418068726419904;0.029250082670989917;0.0008555673362597446;0.01606747258958896;5.226396257420094;0.3505542669677605;2.2233557635026675;0
0.032408223355342505;3.713144750116224;0.0010502929410497676;0.02396247578260425;0.037323757149470026;-1.60671838029657;0.001393062847752615;0.05506271030896309;0.008065881921022752;-1.5870811701178482;6.505845116388167e-05;0.012236157846436245;0.020393596410727;0.029176004633279098;0.0008512392463611234;0.01911443647571401;4.814345411371635;0.3460559091513953;2.115995307384147;0
0.0303041928393345;3.011972105643949;0.0009183441036435723;0.028041195064749655;0.03383359078234952;-2.1689394628297185;0.0011447118652274865;0.056592230039767766;0.017537589519132063;3.8370930907049186;0.0003075670461415708;0.012236157846436245;0.0520036708473538;0.02838280462074297;0.0008055835981392685;0.020516778469316224;3.836460433283301;0.3227804234892692;1.8106091927328154;0
0.03100676271180584;2.731357663004199;0.0009614193338662331;0.028551034975017854;0.03383359078234952;-2.1689394628297203;0.0011447118652274865;0.056592230039767766;0.020252293957325668;2.428793254715893;0.00041015541053392976;0.012236157846436245;0.0662791883348627;0.027993810773355676;0.0007836534416144443;0.01769905826875505;3.9089470616165087;0.31546836420635543;1.7896400860949866;0
0.031504955645098566;3.26375088228892;0.000992562230199628;0.027531355154481497;0.04399897467073404;-1.529730026883665;0.0019359097720758958;0.06525950851432677;0.020894848402753383;1.9642627111568274;0.0004365946897740456;0.015295197308045301;0.0662791883348627;0.02827391538584163;0.0007994142912457321;0.023710503148263062;2.76711420219153;0.31257487808846196;1.4945065249862912;0
0.037123574832318526;1.7983765829385703;0.0013781598083307536;0.030080554705822396;0.04430176206280368;-1.2951008822082997;0.0019626461218692714;0.06525950851432677;0.026116546293189966;0.548997992266495;0.0006820739902843346;0.026511675333945148;0.0805547058223717;0.026673239860217995;0.0007114617246407221;0.01940271425921611;3.5069111781168205;0.2895174330396002;1.7238242436046702;0
0.036802094560907474;1.887666889851468;0.0013543941640699754;0.02753135515448149;0.04275655122903962;-0.6459289877716223;0.0018281226730014891;0.05863158968084037;0.032179783046262664;0.04914809845000647;0.001035538436904534;0.0356887937187723;0.0968695829509533;0.0242465501207276;0.0005878951927569556;0.019801629540717514;3.208457568073284;0.24842621028814596;1.6490659958056262;0
0.025415160953737855;0.27277875625825915;0.0006459304063044013;0.02753135515448149;0.06339182033751052;1.2783675523343192;0.004018522885703213;0.05863158968084037;0.030763895574627994;1.459287901900798;0.000946417270926616;0.025491995513408798;0.0968695829509533;0.0313715473642494;0.0009841739840273434;0.019801629540717514;4.608846191794001;0.31209200468063;2.0328549100973463;0
0.02623736109979094;-0.5170144523335942;0.0006883991174808228;0.0293157948404201;0.06137793340773506;1.7263353815089473;0.0037672507094043592;0.04588559192413594;0.03574078033586882;-0.9739345700378621;0.0012774033790168273;0.0433363923727949;0.0968695829509533;0.03942214831554813;0.0015541057778130744;0.024870447478818947;2.290187575831692;0.4205236919900256;0.8100931673916063;0
0.0318373539362477;0.5029559153424721;0.001013617105661907;0.02982563475068825;0.06395557001602212;0.5084300160013016;0.004090314936074308;0.060670949321912804;0.03090519924687271;-0.6621108515096807;0.0009551313404889015;0.0356887937187723;0.0887121443866625;0.04036157779560777;0.001629056962150898;0.02916226176992978;2.207712694639875;0.44583276098326263;1.0478263758653552;1
0.03181051634256608;0.5280296321674222;0.0010119089499806635;0.02982563475068825;0.07397992853620304;-1.3067457616243678;0.00547302982622171;0.10502702151524407;0.033592000484595666;-1.3774501026251478;0.0011284224965570756;0.048434791475476704;0.0887121443866625;0.042436702452414224;0.0018008737150347397;0.044078534583755005;0.17511860597317225;0.4345414961824178;0.37136215985003806;1
0.03465393676933008;-0.6414601301937765;0.0012008953336127273;0.04104211277658815;0.07350523926340329;-1.345515871646122;0.005403020199170164;0.10502702151524407;0.04274844451412488;-0.9392124546760066;0.0018274295083772131;0.054552870398694754;0.1213418986438258;0.04270647160967387;0.00182384271734788;0.04701925142063906;-0.04526634979765447;0.43058109095425245;0.22024876775052576;1
0.033360720825072264;-0.055655621082592435;0.0011129376939684101;0.03543387376363825;0.07562540771034736;-1.626482353052139;0.005719202291356265;0.1111451004384621;0.03811981914004782;1.493167150868004;0.001453120611269956;0.0260018354236769;0.1213418986438258;0.04920560940664197;0.0024211919970790123;0.06566230727293361;-0.9659209611525824;0.5281289891626916;0.109953564845914;1
0.03344891019562114;-0.09905755847740423;0.0011188295932747282;0.036453553584174604;0.07849264130687739;-1.80401446121964;0.006161094739330114;0.12185173855409392;0.02514882120279117;0.8213532904988554;0.0006324632078899588;0.0224329560517997;0.0764759865402263;0.04918123011143862;0.002418793395274277;0.06566230727293361;-0.8034528991539254;0.5492449916397595;0.4120855431454175;1
0.026952256831257487;0.9889027560986605;0.0007264241482980658;0.022178036096665705;0.06841414401922774;-0.13358930616932482;0.004680495101883634;0.08106454573263994;0.03522308410588678;1.777415975748775;0.0012406656539303738;0.0224329560517997;0.1142041399000713;0.036035607869289686;0.0012985650345092128;0.04949634039153118;-1.1983676523868525;0.45336393337887043;-0.10022506584411006;1
0.04053437233239158;0.24241589154124482;0.001643035340380952;0.039512593045783605;0.0688041055118773;0.0422741261496931;0.004734004935289543;0.07494646680942191;0.03464911440773503;1.6405720468934206;0.001200561129240311;0.0244723156928724;0.1142041399000713;0.033582171000853145;0.0011277622091305417;0.042383720796815516;-0.7983097586912244;0.41196462359314484;-0.05174625167868078;1
0.052049469626421714;-0.7140540238213937;0.0027091472883917964;0.057356989905169756;0.06198128153673204;4.946207114714843;0.0038416792609356405;0.03237483430202931;0.037672338080340456;0.42891040828441973;0.0014192050564394694;0.0387478331803813;0.1142041399000713;0.03376148027299017;0.0011398375502235044;0.04390267734030531;-0.8906612806190196;0.4163810389274866;-0.005122545028496703;1
0.07350060824568468;-0.025416066666030447;0.00540233941248561;0.07622106658509226;0.019591516856825798;-0.955876101466633;0.0003838275327512893;0.027276435199347526;0.038558897900563195;0.18478214252248293;0.001486788607306057;0.04537575201386755;0.1142041399000713;0.04210353919507366;0.0017727080127511042;0.04390267734030531;0.6696673840511288;0.4924840980566134;0.7539539280883986;1
0.08208151118756785;-1.165806887999097;0.006737374478834826;0.1047721015601101;0.014513283577497853;-1.4217426728424378;0.0002106354002008689;0.020648516365861236;0.03608407176216929;0.4298702873176573;0.001302060234937383;0.04537575201386755;0.1009483022330987;0.04666252991498206;0.0021773916980665953;0.0597499253576806;-0.9805649823562781;0.5183575643418668;0.5224892068229577;1
0.08924764601701178;-1.8296290951730882;0.00796514231957784;0.14606913429183233;0.012536454866273694;-1.117012834800046;0.0001571627006141174;0.017844396859386324;0.037621046493247524;0.2836693486419932;0.0014153431392470918;0.04792495156520846;0.1009483022330987;0.04263162771753368;0.001817455681846386;0.06956918111009334;-2.0326289947148153;0.4023931407761112;0.07704779401548384;1
0.08951077304163242;-1.7745265342362786;0.00801217849051063;0.14606913429183233;0.01266904670203282;0.945120796490167;0.00016050474433828868;0.013510757622106628;0.04447256567846323;1.4390032987823786;0.0019778090980252256;0.0305903946160905;0.1402059753237482;0.041096892470002255;0.0016889545706909282;0.0605226506041171;-1.5823413818403402;0.3767922334303022;-0.16840521603644604;1
0.09170884891117523;-2.151294494318761;0.008410512968612767;0.1590700520036708;0.010072833358986786;0.47004122543022075;0.00010146197187791702;0.009432038339961146;0.026956389803032003;1.8291499116499552;0.0007266469512130077;0.017334556949117952;0.0892219842969306;0.05732561493020488;0.003286226127126129;0.08324678588826709;-1.017208255773611;0.5981561360148483;-0.4902969454574958;1
0.08222396951524384;-1.1274747422724467;0.006760781162843749;0.12338125828489854;0.016174675697029205;0.764079382662063;0.00026162013390406715;0.015295197308045239;0.026565080033912888;-0.869634110766286;0.0007057034772081971;0.030335474660956447;0.06933822779647181;0.05487071952612692;0.003010795861314886;0.07100652140621483;-0.07140815248689947;0.552383706884416;-0.7157775327750022;1
0.07183015300536275;-2.1259102317235374;0.005159570880773822;0.12338125828489854;0.016928498467905635;-0.7622647290177603;0.00028657406037788346;0.021923116141531418;0.03760245247399198;-0.01239161482007205;0.0014139444320588257;0.03798307331497905;0.1101254206179259;0.05756812251317884;0.0033140887296923684;0.082105057878085;-0.9797239819380948;0.5986488833156359;-0.5391605383059856;1
0.09271025741104684;-0.1743850850293839;0.008595191829222566;0.1167533394514122;0.017005827930399113;-1.3273329782640082;0.00028919818359834253;0.02396247578260413;0.03974556328419252;-0.8941059461235461;0.0015797098007777528;0.0502192311614152;0.1101254206179259;0.05199407755344909;0.0027033841006340784;0.07094670948271817;-0.5824117216145546;0.5735011070666839;-0.6943375623625105;1
0.09271025741104684;-0.1743850850293839;0.008595191829222566;0.1167533394514122;0.017005827930399113;-1.3273329782640082;0.00028919818359834253;0.02396247578260413;0.03974556328419252;-0.8941059461235461;0.0015797098007777528;0.0502192311614152;0.1101254206179259;0.05199407755344909;0.0027033841006340784;0.07094670948271817;-0.5824117216145546;0.5735011070666839;-0.6943375623625105;1
0.09271025741104684;-0.1743850850293839;0.008595191829222566;0.1167533394514122;0.017005827930399113;-1.3273329782640082;0.00028919818359834253;0.02396247578260413;0.03974556328419252;-0.8941059461235461;0.0015797098007777528;0.0502192311614152;0.1101254206179259;0.05199407755344909;0.0027033841006340784;0.07094670948271817;-0.5824117216145546;0.5735011070666839;-0.6943375623625105;1
0.09271025741104684;-0.1743850850293839;0.008595191829222566;0.1167533394514122;0.017005827930399113;-1.3273329782640082;0.00028919818359834253;0.02396247578260413;0.03974556328419252;-0.8941059461235461;0.0015797098007777528;0.0502192311614152;0.1101254206179259;0.05199407755344909;0.0027033841006340784;0.07094670948271817;-0.5824117216145546;0.5735011070666839;-0.6943375623625105;0
0.032782651481781326;1.5424151482691186;0.0010747022381759393;0.023962475782604253;0.02251007197552559;1.696262264648773;0.0005067033403433425;0.01937391659019072;0.015231943477306038;-0.7754154773829847;0.00023201210209584594;0.019883756500458802;0.043846232283063;0.024017775728754142;0.0005768535509567315;0.02680056028546446;0.3415407562091545;0.4215319195855293;0.6526364273604787;0
0.032782651481781326;1.5424151482691186;0.0010747022381759393;0.023962475782604253;0.02251007197552559;1.696262264648773;0.0005067033403433425;0.01937391659019072;0.015231943477306038;-0.7754154773829847;0.00023201210209584594;0.019883756500458802;0.043846232283063;0.024017775728754142;0.0005768535509567315;0.02680056028546446;0.3415407562091545;0.4215319195855293;0.6526364273604787;0
0.032782651481781326;1.5424151482691186;0.0010747022381759393;0.023962475782604253;0.02251007197552559;1.696262264648773;0.0005067033403433425;0.01937391659019072;0.015231943477306038;-0.7754154773829847;0.00023201210209584594;0.019883756500458802;0.043846232283063;0.024017775728754142;0.0005768535509567315;0.02680056028546446;0.3415407562091545;0.4215319195855293;0.6526364273604787;1
0.032782651481781326;1.5424151482691186;0.0010747022381759393;0.023962475782604253;0.02251007197552559;1.696262264648773;0.0005067033403433425;0.01937391659019072;0.015231943477306038;-0.7754154773829847;0.00023201210209584594;0.019883756500458802;0.043846232283063;0.024017775728754142;0.0005768535509567315;0.02680056028546446;0.3415407562091545;0.4215319195855293;0.6526364273604787;0
0.03252793087783781;1.7591437377279235;0.0010580662871933946;0.019883756500458857;0.02310060036389152;2.077872545811495;0.0005336377371722251;0.01835423676965453;0.01630918595837717;-1.4182067287824758;0.000265989546624927;0.0237075558274701;0.043846232283063;0.023491724509149;0.0005518611204137517;0.02430306217432139;0.6060359297842076;0.40719961257658494;0.628321231251627;0
0.02230457695613817;3.6756165073253557;0.0004974941531922899;0.013255837666972553;0.02302331189323353;1.6204851512717853;0.0005300728905331084;0.022432956051799846;0.015677651259141653;-1.1308183547110366;0.00024578874900326586;0.02192311614153155;0.043336392372794796;0.019206165344940563;0.00036887678725719587;0.020544260404615836;1.6763618032618197;0.31170115428079315;1.3289771476934078;0
0.02288499524704299;3.419775941136605;0.0005237230074571802;0.016059957173447555;0.03406256827537732;1.9612778876978765;0.0011602585575147416;0.022432956051799846;0.015804254034684266;-1.3368554445787972;0.00024977444559283387;0.02192311614153155;0.043336392372794796;0.017667365029897398;0.00031213578709964144;0.016243463352702103;2.142708445254873;0.2748454153898435;1.2809605024509494;0
0.027751450978032204;2.203446408955526;0.0007701430313861245;0.017589476904252097;0.03527294981725535;0.8728460064448548;0.0012441809888106142;0.030080554705822438;0.01603054604526565;-1.5238653938974587;0.00025697840650938214;0.02345263587233605;0.043336392372794796;0.024914790323534317;0.0006207467768656791;0.01984016503374919;1.2113645452855806;0.41959576868432125;-0.2019508315081035;0
0.029636830076042057;3.1045930658096594;0.0008783416969561911;0.02205057611909865;0.03507023812656744;0.937381739976081;0.0012299216022541447;0.03161007443662678;0.01728629060151793;-1.6140568746658617;0.0002988158427601271;0.0260018354236769;0.0448659121035994;0.025831846876878426;0.0006672843130704937;0.025353713600099026;0.6444922663916557;0.4721249146337335;0.41107778781360566;0
0.031244028396417035;2.5736285074916907;0.000976189310436114;0.03071785459365765;0.026188487622597692;0.5079165300867899;0.0006858368839589525;0.03161007443662678;0.016917161234870016;-0.8836305200210184;0.00028619034424658883;0.018864076679922452;0.0448659121035994;0.027066087492188893;0.000732573092134824;0.02737293281612779;1.1854291276804658;0.5579927493842124;1.010095560093039;1
0.015013918699342554;-2.5087777257174495;0.00022541775471046798;0.02791373508718265;0.02628755634594052;-0.5321758239743126;0.0006910356186409977;0.033139594167431285;0.017430333628667753;-1.0370691058005335;0.00030381653040666596;0.02090343632099515;0.0448659121035994;0.01561795201067865;0.0002439204250078613;0.018211536326424176;-0.5894129477801414;0.38793037116800044;-0.02966976252806994;0
0.013373553958727859;-1.9092143820609855;0.00017885194548700558;0.0223054960742327;0.027798912434595317;-1.0476626444507446;0.0007727795325462982;0.03976751300091752;0.015175360571494963;-0.858589608821881;0.00023029156847488393;0.015295197308045249;0.0392576730906495;0.01636109578577651;0.00026768545531135387;0.02170813928410959;-0.8896235051782149;0.43622379564649827;0.5140768121065473;1
0.013495403311599164;-1.845860028058889;0.0001821259105427217;0.0223054960742327;0.025280383374850574;-0.09434808795365016;0.0006390977835794212;0.024472315692872337;0.015608811213290188;2.370794853340874;0.0002436349874921335;0.0076475986540226;0.051493830937085705;0.01576333296626145;0.00024848266620522506;0.019676067064836114;-0.3508560195992615;0.42689436845989154;0.5885635012647048;0
0.014337918863651778;-2.006754969486104;0.00020557591734066152;0.024599775670439503;0.021069466772744436;-0.8670174171252711;0.00044392243008778187;0.024472315692872337;0.015588973362802815;2.4722263586213797;0.0002430160905061757;0.0071377587437544;0.051493830937085705;0.013143187142959934;0.00017274336827486733;0.019676067064836114;-1.5520277376831466;0.37093654965114514;0.04549839368684312;0
0.017207793828569764;-1.3353860950989727;0.0002961081684465636;0.026256755378811055;0.022720518831826172;-1.0725754575734137;0.0005162219759873677;0.030845314571224636;0.015880043006816783;1.4754834658750553;0.00025217576589835064;0.009177118384827149;0.051493830937085705;0.014582774968908155;0.00021265732579381423;0.02002902568048948;-0.8298111187402505;0.3456508361557037;0.28804053234434807;0
0.01572977213856341;-0.8072063097323451;0.00024742573153112567;0.01924645661262365;0.023089077196031378;-1.9109704761838322;0.0005331054857642963;0.03849291322524717;0.01870196360396871;2.4420440390600917;0.00034976344264417035;0.009177118384827149;0.060670949321912804;0.015713561259157845;0.0002469160074453063;0.023124759536358806;-1.4510769667361167;0.3449200195859974;-0.33369154101418524;1
0.01768212300180817;0.6532967848315451;0.0003126574738510735;0.015422657285612353;0.028664180794465616;-0.18917844553388505;0.0008216352606178115;0.03849291322524717;0.02230596428964423;0.979194344114665;0.0004975560428908837;0.02090343632099515;0.0678087080656672;0.020644885148886204;0.00042621128281070206;0.01736875632217394;1.203667309850573;0.3753781345560936;0.5586732551113143;0
0.01743468268045698;0.8536695786696015;0.0003039681601682265;0.014402977465076003;0.02987451401395941;-1.4782010975473896;0.0008924865875702573;0.04512083205873346;0.024757189684481772;0.055008915456676986;0.0006129184410734107;0.03059039461609045;0.0688283878862036;0.019734745890003482;0.0003894601953430093;0.011480654948710131;1.9944721644035739;0.347220194598679;0.33164472079769336;0
0.027014242290080374;2.8978828588212395;0.0007297692865071669;0.014402977465076003;0.02934401773041727;-1.1628846135353748;0.0008610713765630429;0.04053227286632016;0.03085369037864148;-0.036881337244949464;0.0009519502099810737;0.03466911389823585;0.093300703579076;0.014232404330646172;0.0002025613330309959;0.009266256342089246;4.291456920298202;0.23199733804176453;1.9803741071679737;0
0.03547044668831516;-0.893680490825173;0.0012581525882686079;0.04142449270928926;0.035048171989267275;-1.5605502902125814;0.0012283743597892593;0.051238910981951935;0.03203849882704226;-0.41041945804431634;0.0010264654070903884;0.0382379932701131;0.093300703579076;0.013236099553433554;0.00017519433138840393;0.00972090430618569;4.105104695170627;0.20800599046171706;1.9081769710902783;0
0.03526930884723202;-0.9043732232164992;0.0012439241465614388;0.04142449270928926;0.032757910923511824;-0.49735897699124154;0.001073080728072735;0.03339451412256561;0.032312023108605065;-0.6114806748180832;0.0010440668373710275;0.03976751300091765;0.093300703579076;0.016505520295101613;0.0002724322002120113;0.00972090430618569;2.2365657329978204;0.2692249019516208;0.6016783128541742;0
0.03382631877877998;-0.5601162109896081;0.0011442198421236429;0.0337768940552666;0.039825986436152046;1.1046723442629216;0.0015861091956125666;0.03161007443662689;0.03243323066166816;-0.6808377413578406;0.0010519144511529717;0.0402773529111858;0.093300703579076;0.019648472075329156;0.0003860624548949897;0.021836207320197393;-0.6093030568719101;0.3033619634088736;0.27537181907199115;0
0.040729985385036374;-1.015665918873418;0.0016589317094652764;0.04792495156520846;0.04114749669766877;1.0676373894653621;0.0016931164844846622;0.04002243295605168;0.024739934584246375;-1.713380078467182;0.0006120643632327898;0.0372183134495768;0.06423982869379;0.024024478605437175;0.0005771755722631085;0.03488517582822602;-1.4324046427300416;0.339111872522265;-0.028502322549898693;0
0.03713461790347575;0.3103119358761276;0.0013789798468371417;0.0395125930457835;0.040379866533516585;1.0059038392038802;0.0016305336212646129;0.03288467421229724;0.03286485995548268;-0.7509234057210904;0.0010800990198934891;0.0402773529111858;0.0958499031304169;0.023991472170768833;0.0005755907369207753;0.0286012483598755;-0.6409639661830588;0.3748237511049473;0.7162720375165222;0
0.04713525084918749;-0.13623380576731278;0.00222173187261583;0.055317630264096904;0.04015392944504254;1.0434155453501888;0.0016123380498774544;0.02523707555827459;0.04214833221484767;-0.4070320186575067;0.001776481908493166;0.0418068726419903;0.1233812582848984;0.025066260672129057;0.0006283174240831239;0.03841399504380341;-1.689520530208148;0.36359116052699425;0.017718164824098315;0
0.04622654512053373;0.19445855115957045;0.0021368934737807407;0.0435913123279289;0.040011877553244514;1.1521963048754045;0.0016009503453358323;0.02319771591720199;0.0337925910035083;0.2573666570657302;0.0011419392067303902;0.034669113898235904;0.10502702151524411;0.025716538425681952;0.0006613403485995765;0.04178249865982536;-1.9361622397747609;0.37830479427751784;0.1086783915340109;1
0.05268133301858765;-0.7241285324237339;0.002775322848615333;0.05990618945651055;0.052540610371657304;2.777064933045851;0.002760515738226303;0.02319771591720199;0.028468543711461812;-1.8730949968340567;0.000810457981051412;0.047924951565208505;0.06525950851432641;0.03378449405792041;0.0011413920387496597;0.04889856260822048;-1.4822619997540278;0.44043341725323365;0.14520108780999724;1
0.05535302914887727;-1.2962943305416608;0.0030639578359564564;0.0846334251045171;0.060588674454954826;-0.698703745529307;0.003670987472208495;0.06092586927704702;0.02586221859516842;-1.2648669535038088;0.0006688543506642753;0.03619863362904045;0.06525950851432641;0.02893631204321789;0.0008373101546624767;0.02814872336870075;-0.4799910931466364;0.34158051168998327;-0.2977854407492585;0
0.054022327159876864;-0.8678498512723607;0.0029184118317687694;0.07775058631589675;0.052258324334956675;-1.5591515217843857;0.002730932462297525;0.071887427347813;0.026683864120563366;-1.3249551763294314;0.0007120286044046889;0.03823799327011315;0.06525950851432641;0.03053189801587745;0.0009321967964519414;0.043480572507407465;-1.2642185253467653;0.38067891229089884;0.20894834893147415;0
0.040368523056032064;-2.373810697734816;0.0016296176537253925;0.0706128275721423;0.04335124230768525;-2.0601540209253826;0.0018793302096196398;0.0703579076170085;0.0233934493152099;0.6893843796086309;0.0005472534708632945;0.030080554705822354;0.0632201488732538;0.030060907085379757;0.0009036581347958349;0.04139904637045317;-1.0447120523547782;0.3776064878372135;0.2578048472574139;1
0.03839499299039187;-1.0021932816935455;0.0014741754867322405;0.05072907107168349;0.040079878228510925;-1.5027181066243571;0.001606396638812264;0.05761190986030407;0.024660756968948434;1.3736847814176756;0.0006081529342815388;0.026001835423676956;0.0662791883348629;0.025663767006798763;0.0006586289369792528;0.027335353456283448;-0.009892167970728139;0.30336238669606613;0.2308185735088972;0
0.043255771243699205;-2.450790643296234;0.001871061745887235;0.07571122667482405;0.04302681203732702;-1.279612113601015;0.0018513065540954694;0.05761190986030407;0.02766322008004596;0.688724302930094;0.0007652537451970582;0.027531355154481504;0.0825940654634445;0.026493722753798275;0.0007019173453551284;0.032068972461561984;-0.6394834101839969;0.3061437364490309;-0.034221105353309106;0
0.04167298070137541;-2.2825873496365388;0.0017366373205372073;0.07061282757214225;0.04110957605808449;-0.8598359330471602;0.0016899972436754335;0.051493830937085816;0.030857902500253977;2.0613191932088624;0.0009522101467151807;0.02090343632099525;0.0958499031304171;0.021570132497322644;0.0004652706159520544;0.01729660009617906;0.9279050514757948;0.22910934397857372;-0.40139868322865624;0
0.037150405874304175;-2.062660041114694;0.0013801526566255343;0.0604160293667787;0.0339057687041092;-1.2010779796489026;0.0011496011514165506;0.047160191699806175;0.034030575077776334;1.3268713680932536;0.0011580800401241717;0.03568879371877234;0.0968695829509534;0.01701023355126632;0.00028934804546862646;0.016749455697158133;1.7630744626231958;0.18748024772037347;-1.533390228094625;0
0.044713501332122076;-0.18473383194893742;0.001999297201377683;0.045630671969001696;0.027820054579738407;-0.28565089837528107;0.000773955436819624;0.028805954930151756;0.03784934915340235;2.4988582243237745;0.0014325732313361591;0.03161007443662689;0.1172631793616804;0.02780778674024996;0.0007732730033912215;0.01464016647054342;1.8056041835551853;0.2815591119692519;0.5080609967566099;0
0.04854595977801132;-1.0892297935293733;0.0023567102107682927;0.0647496686040583;0.02320938514131553;2.0810780622507266;0.0005386755586379182;0.012745997756704264;0.027340062614418993;-0.35086404861636356;0.0007474790237603511;0.03262975425716319;0.07647598654022639;0.029408122173081894;0.0008648376497469109;0.026005438563174665;-0.5401766060230152;0.259418813161977;0.8727459766106881;0
0.038504286875639504;0.0060902972216481995;0.0014825801078015447;0.045885591924135855;0.01613329837368657;3.7849517997308992;0.0002602833164143977;0.012745997756704264;0.027021286204648616;-1.2409857336107997;0.0007301499081535335;0.03670847353930862;0.07341694707861729;0.031873268467906446;0.0010159052428272393;0.0484932789801423;-2.0213392251845868;0.26313284489127603;0.10338402443191769;0
0.025252949418451756;-0.4880593100188989;0.0006377114543308828;0.028551034975017854;0.01654540766584005;3.508162014974219;0.0002737505148288387;0.014785357397776977;0.028791072698188837;-1.068824501355902;0.0008289258671123947;0.04078719282145406;0.08055470582237181;0.031185864040026406;0.0009725581159230121;0.05321438382859392;-2.2950762587940363;0.2312028048979307;-0.09748457794875218;0
0.025603431167061697;-0.7530680579768614;0.0006555356875264664;0.032629754257163246;0.006774762023763478;-0.5213288507661176;4.589740047862782e-05;0.009177118384827099;0.029149970940647196;-1.574430784356484;0.000849720805840576;0.04435607219333135;0.07239726725808092;0.03093279742504501;0.0009568379565388713;0.0411623084106128;-1.1425311988540856;0.21235433331862968;-0.7452792358514002;0
0.02751066604406431;-1.1530134023278855;0.000756836746188033;0.03823799327011315;0.007363109123862061;1.2140829423907746;5.421537596990072e-05;0.006118078923218029;0.024739934584246472;-0.24977497438408705;0.0006120643632327947;0.025491995513408833;0.07137758743754462;0.024925603373681736;0.0006212857035420943;0.020361169152700004;2.497082686702066;0.16440699582440035;-1.329554092563006;0
0.02431195955633986;-0.6477032097568725;0.000591071377469105;0.030590394616090553;0.006708665203961911;1.582134649108525;4.5006188818849305e-05;0.006118078923218029;0.01768938427702472;-0.6136969035490694;0.0003129143161002494;0.02141327623126346;0.05098399102681761;0.012384630213439133;0.00015337906552362942;0.016597282614002284;-1.1984230997727607;0.07758482002485487;0.5502882306259398;0
0.01835423676965434;-0.45321597317489404;0.0003368780073965314;0.0224329560517997;0.007148156067173814;0.9501960519200565;5.109613516067382e-05;0.0076475986540225915;0.013044995793749806;-1.3152434244051938;0.00017017191525895014;0.018864076679922542;0.0336494340776996;0.011406075162400548;0.00013009855061033067;0.012584436850388986;-0.6940322285834611;0.0706248981715073;0.21453079444689024;0
0.015329148953169077;0.47443026078775147;0.0002349828076284446;0.014785357397777102;0.008437885355027189;0.6879257816353672;7.119790926458232e-05;0.009177118384827154;0.014304967648935048;-1.5235712229108578;0.0002046320994370783;0.02141327623126346;0.03670847353930862;0.01330548037519806;0.0001770358080147807;0.019298576917468113;-1.4010340715890095;0.08359056747437889;0.3059550065278516;0
0.013919034179289148;0.7329104809572208;0.00019373951248421954;0.014785357397777102;0.009970938362273467;-1.4068568356058044;9.941961182425667e-05;0.014275517487508937;0.013754433127816374;-1.3170809178322813;0.0001891844306675725;0.01937391659019075;0.03670847353930862;0.013126344607593092;0.00017230092275728826;0.017944279515388295;-1.2674553183262085;0.08226518098152748;0.21670099612603325;0
0.013660520458825355;0.6476117150416364;0.00018660981920598608;0.014785357397777102;0.011605359196687115;-1.0151965062448425;0.00013468436208413022;0.013765677577240842;0.015462609211100372;0.41173641117175774;0.00023909228361520605;0.0158050372183135;0.04792495156520851;0.01496865288764429;0.00022406056927078177;0.015843015906786717;0.21586601509036143;0.09764255451034691;0.15090924571786601;0
0.015740293562021432;-1.6703503384344132;0.00024775684141861335;0.02447231569287245;0.012114670084241915;-1.0158987172552194;0.000146765231250026;0.014785357397777199;0.014714446016329204;-0.5500539686912681;0.00021651492156746642;0.017844396859386158;0.040787192821454085;0.0162933631205349;0.00026547368177760677;0.01981174903075944;-0.07453195109516812;0.11268388526765703;-0.8456527841668667;0
0.012921054559592556;-1.0460195539574542;0.00016695365093196757;0.01835423676965435;0.015793285385906897;0.6602435444462017;0.0002494278632807003;0.014785357397777199;0.017101636169799758;-1.8824837804614731;0.00029246595968420336;0.028551034975017847;0.040787192821454085;0.017711955908063397;0.0003137133820891818;0.028539437142242358;-1.766578453913003;0.12485677493773863;-0.2695305578051394;0
0.02423649123351467;1.986455082756271;0.0005874075073122334;0.02396247578260425;0.01571550289415861;-0.0008239706115084289;0.00024697703121630765;0.019373916590190776;0.014466727507334872;-1.0114051361323768;0.00020928620477147946;0.019883756500458843;0.0387478331803814;0.016106488527497378;0.0002594189726864046;0.020979215966859255;-0.9703827980309712;0.1160837829928445;0.19200264808931924;0
0.029899570536652736;-1.2130653999402092;0.0008939843182762724;0.0412970327317222;0.015864446044838325;-0.03399312768814937;0.00025168064830958636;0.019373916590190776;0.010853039867589316;-1.2743081407458654;0.00011778847436748314;0.015295197308045322;0.028551034975017806;0.012763665402626665;0.00016291115451020892;0.013195646823228657;0.2852943115897773;0.09531189575448319;0.5489421834963661;0
0.03351896228149507;-1.9772707061560504;0.001123520832428289;0.05404303048842655;0.015126341782089516;0.020568352396477963;0.00022880621570858705;0.017844396859386158;0.011860139416064305;-1.6956424389772813;0.00014066290696848217;0.018354236769654364;0.028551034975017806;0.013341506345832485;0.0001779957915758885;0.015190215224894388;-0.44542411482526345;0.09920472025901002;0.46171558795920675;0
0.03909258177053278;-0.6793424025055537;0.0015282299494857917;0.051493830937085705;0.014258599506512796;2.071529591126115;0.00020330765988712694;0.012745997756704375;0.011452364352576757;-1.7268364694664853;0.00013115664926417083;0.017844396859386158;0.027531355154481504;0.014629337366534257;0.00021401751178387545;0.015190215224894388;0.18248984131992926;0.10824069012542854;0.7315061989041545;0
0.03426491961439629;-0.30139088857198215;0.0011740847161810393;0.036453553584174556;0.013986456281758134;2.249571718240928;0.00019562095932153158;0.012745997756704375;0.011651662664173588;-1.9031913008868835;0.00013576124283969673;0.019373916590190693;0.027531355154481504;0.014753969871048947;0.0002176796269558201;0.015190215224894388;0.1331006162457804;0.10941178949616408;0.7875364056834088;0
0.030186123176479947;2.2728378014505934;0.0009112020324256199;0.016059957173447555;0.013109359826503849;2.890592978443192;0.00017185531506075304;0.0076475986540225915;0.020040942792372663;2.1453836744157813;0.0004016393880071538;0.019373916590190693;0.058121749770572106;0.02206412444016671;0.00048682558731116197;0.015190215224894388;2.025355564281493;0.16843051311325966;-0.9150330171657901;0
0.0211524321776081;2.2557443913437085;0.0004474253870283106;0.016059957173447555;0.007061043916359543;0.3537562780497943;4.9858341188758116e-05;0.0076475986540225915;0.028317705534978643;-0.6426203403227667;0.00080189244676576;0.034669113898236;0.0713775874375446;0.030871495553868;0.0009530492377324917;0.03349403325122127;-0.5867980031076356;0.2497413838755697;-0.7438007475218588;0
0.0337425551668374;1.7866799797762467;0.0011385600291870651;0.021668196186397454;0.012622552834706886;1.4973290776980392;0.00015932884006496684;0.01325583766697258;0.0377117456765405;-1.3125000763573766;0.0014221757619720715;0.055572550219231145;0.09686958295095341;0.03785026435329416;0.0014326425116142508;0.05623595533992855;-1.7490748251520238;0.33546203209933384;-0.2145376231018386;0
0.03468963709173911;0.7399541912940464;0.0012033709215565618;0.03288467421229731;0.015294792667843421;-1.6750811561619934;0.00023393068275231685;0.023707555827470306;0.04201538112390578;-2.094855857215228;0.001765292250987058;0.07290710716834908;0.09686958295095341;0.04387248815505385;0.0019247952169153405;0.07026962747880997;-1.921632227280518;0.4320245694243416;0.24205121830812598;0
0.035998727739976685;0.17857296822352353;0.001295908398896967;0.04002243295605175;0.015183514983997217;-1.6535322746182708;0.00023053912726926802;0.0231977159172021;0.03961345334397946;-1.039708593497228;0.001569225685835638;0.05710206995003565;0.0999286224125624;0.04037309772366215;0.0016299870198043735;0.045774797190454145;-0.013273470252941877;0.44954779730980815;1.0591800258862754;0
0.02934781387902658;-0.11486782282565641;0.0008612941794779853;0.03441419394310175;0.016801158153393374;-2.2780302545998765;0.00028227891529533666;0.02931579484042013;0.04622048649688205;1.54568729441976;0.002136333372008456;0.03415927398796775;0.1498929336188435;0.030570377471206243;0.0009345479787320342;0.02672834206395454;1.4246950583114526;0.42517681802882357;1.0248130138996974;0
0.03494011217241368;-0.47615842565991573;0.0012208114386208508;0.037218313449576754;0.021088551305614368;-1.9351307921412952;0.0004447269961695295;0.03262975425716319;0.041896782542969295;-0.8761314025916931;0.0017553403874528567;0.04588559192413575;0.11216478025899851;0.017493205800037326;0.00030601224916245953;0.014801153657969995;0.45872017066277593;0.27822980073278036;-0.18854073089150825;0
0.03375594197747357;0.2741482366777369;0.0011394636187865624;0.037218313449576795;0.033435955758649785;0.9024241514861295;0.001117963137494386;0.035688793718772205;0.03975319257398081;-2.208037240425141;0.0015803163198240026;0.0632201488732537;0.09890894259202601;0.014003027767332947;0.0001960847866526975;0.013792483632531188;0.7537688595022566;0.23172244232779038;-1.154780696448769;0
0.03590594225735263;0.7499435491393533;0.0012892366893883414;0.0423167125522586;0.03453192115600091;2.6182762051660773;0.0011924535787242632;0.026766595289079154;0.044806833303505406;-1.3341242499737966;0.002007652310688121;0.06678902824513094;0.1152238197206076;0.01754081618060696;0.000307680232281843;0.013792483632531188;0.7224359181803202;0.2796520681606397;-0.0877900915721127;0
0.03511609127709303;0.8914900938151348;0.0012331398665811294;0.037728153359844994;0.034256610033013425;2.072499096815656;0.001173515330953956;0.03364943407769966;0.04800752924227458;-1.184055336946549;0.0023047228639478494;0.06118078923218106;0.1233812582848984;0.018805241003462557;0.00035363708919830945;0.019486869559439984;-0.14743015028312242;0.28704747472507663;-0.48723759372540026;0
0.03430950403738986;1.9562425849595357;0.001177142067291671;0.031100234526358746;0.03405602665733116;2.02534335713447;0.0011598129516848506;0.03364943407769966;0.04830978967214934;-0.08967520389783061;0.0023338357781673073;0.05557255021923115;0.1447945345161619;0.02198767161409396;0.00048345770300923336;0.020213425775828617;0.9663601743652641;0.29967308730889697;-0.5278195191866566;0
0.02342623177953449;-1.079802807627241;0.0005487883353884718;0.031100234526358746;0.033252760952913074;3.5134547273824737;0.0011057461109915804;0.026511675333945273;0.04087147211366798;-1.9228226708996161;0.0016704772327383393;0.06678902824513105;0.0999286224125625;0.026658023463914767;0.0007106502150026303;0.028234953742566626;0.38952510799187934;0.3308961152029886;-0.5222987475591413;0
0.022184383769526184;-0.2177865502876692;0.0004921468832336168;0.024472315692872445;0.032780385947991965;2.3659923903604594;0.0010745537028993089;0.026001835423677067;0.041347206946187674;-1.4391312107019978;0.00170959152225087;0.062200469052717436;0.0999286224125625;0.019293869323461308;0.00037225339347080137;0.030390922777749185;-1.7717221783935486;0.2112906832771998;-0.05579346470908325;0
0.018320486167801808;1.5271330522065754;0.00033564021342461734;0.012745997756704399;0.029215290710072908;3.5139015199991617;0.0008535332112740724;0.011216478025899868;0.03289648178401948;1.7261154112259234;0.0010821785137663253;0.03313959416743144;0.09686958295095341;0.016199872037091625;0.00026243585401814314;0.024465918058171235;-1.6423140891272765;0.17239057323801021;0.11976334869535701;0
0.018471208147243616;1.3623405365480636;0.0003411855304187989;0.013765677577240749;0.013714779326415915;3.522897444437686;0.00018809517197228536;0.007647598654022647;0.026123180751900912;-0.326251463452995;0.0006824205725964863;0.03313959416743144;0.0744366268991537;0.021928766682539534;0.0004808708082172559;0.024465918058171235;0.8106491414603575;0.2411735917632887;-0.8899366697195824;1
0.016319428635750314;-1.3170455595271178;0.0002663237509973473;0.02345263587233605;0.005750987300419266;2.3321829395102456;3.307385492958367e-05;0.0030590394616090144;0.02775524196185948;-1.2173176372892427;0.0007703534563613654;0.039257673090649536;0.0744366268991537;0.025505787150940616;0.0006505451781890874;0.038315609223061806;-1.5740237638674244;0.2963056507365039;-0.32832432628126357;0
0.015839068224736;-1.196679310735334;0.0002508760822278416;0.02141327623126335;0.01165378713545832;2.4554293838331076;0.00013581075459857386;0.007647598654022647;0.03374420588255931;-2.0684310097905603;0.0011386714306445504;0.057102069950035694;0.0825940654634445;0.02950078201548597;0.0008702961395252205;0.05325726235669909;-2.37856346754054;0.3630079005217996;-0.05048723518596738;0
0.01855945329218119;-0.9614379292795284;0.0003444533065046552;0.021923116141531498;0.020149352912396345;2.862166579417007;0.00040599642278829504;0.006118078923218029;0.03196907453667106;-1.6038718346390326;0.0010220217267312302;0.04741511165494035;0.0825940654634445;0.02918839040181622;0.0008519621342488373;0.05198845120730314;-2.3180177872604837;0.3607732461003369;-0.03299642860265018;0
0.03791796363227071;4.402709195575423;0.0014377719660182038;0.014275517487508903;0.021435230868246946;1.8954975568519388;0.0004594691223750467;0.013765677577240787;0.056450210921290905;2.9046449092780433;0.0031866263130582314;0.04537575201386765;0.17334556949117969;0.03293595886348856;0.0010847773862574107;0.05198845120730314;-1.5567628311619863;0.3954576392495706;0.28698446598464844;1
0.03815227646174979;2.3389598439306196;0.001455596199213787;0.02549199551340875;0.021191310790296954;2.6159317619057147;0.0004490716530109561;0.010196798205363566;0.06125842985889278;-1.0712318862777408;0.003752595228776887;0.08004486591210355;0.1488732537983073;0.0307613106824472;0.0009462582349020403;0.039066635341550845;-0.10999671456636265;0.38835003743100216;0.7582680177663912;0
0.03777291004790751;2.39621112743383;0.0014267927334873124;0.0224329560517997;0.022009612646497537;0.9597266366433714;0.0004844230488488643;0.017334556949118063;0.05941830517790995;-2.0626046477210473;0.0035305349902152398;0.0948302233098806;0.1488732537983073;0.03237442399256503;0.0010481033288503704;0.04047412554258517;0.1254014003787809;0.4347450489216875;1.1162292179202926;0
0.03748277001267012;2.162893493792802;0.0014049580478227225;0.025237075558274646;0.02577880578386075;-0.009037024928640846;0.0006645468276420124;0.03008055470582255;0.06184843554245239;-1.9507176520558722;0.0038252289790488875;0.1009483022330987;0.1488732537983073;0.030686780065573557;0.0009416784707928827;0.03773545428838525;0.09121043165938403;0.39088698053139415;0.8588396951667882;0
0.03240421275568448;3.5172958369702214;0.0010500330043156647;0.025237075558274646;0.027747213383175304;-0.23745602630247903;0.0007699078505314627;0.03721831344957699;0.055479703622882855;0.5232705085892142;0.0030779975140829206;0.061690629142449195;0.1488732537983073;0.03286297461731655;0.0010799751006983916;0.04237346024826506;-0.30046256171662405;0.43009688713953653;0.7137823330438383;0
0.03066939870943563;3.9607145808394875;0.0009406120171983318;0.01707963699398385;0.03144439258065146;-1.7811184157307642;0.0009887498247661286;0.05149383093708587;0.054982174036044364;4.5394823244658955;0.0030230394617298713;0.0316100744366269;0.1641684511063525;0.031159236768752426;0.0009708980360111732;0.036110488020784814;-0.46373079553493285;0.3705102226119908;0.08327431990574574;0
0.030880557862568558;3.9273998535950696;0.0009536088539034447;0.01860915672478835;0.026651373188712264;-0.19992376962194172;0.0007102956928440109;0.03211991434689515;0.019116649608871092;-0.10189235109529733;0.00036544629226835124;0.02039359641072705;0.058121749770572;0.03150589922573463;0.0009926216860221457;0.03707493653976458;0.0439088418935043;0.40492418665598245;0.7518374798223362;0
0.012826347757927617;0.16602461102320235;0.00016451519680729478;0.014530437442642999;0.02600826118317796;-0.013849518460854426;0.0006764296497724013;0.02345263587233609;0.018225651985683846;0.8706123020003027;0.0003321743903032615;0.015805037218313445;0.058121749770572;0.02062911190300355;0.0004255602579066428;0.026192340654097576;-0.6209523364225056;0.3058289312783195;0.5287511482582565;0
0.01998125235417832;3.4732628372847216;0.00039925044564135664;0.014530437442642999;0.03705482555844057;-0.13526951698095074;0.0013730600971664606;0.0407871928214541;0.0180674023111673;1.1545779022923355;0.00032643102627357345;0.014275517487508896;0.058121749770572;0.02821154948147476;0.0007958915241456987;0.035961344087825836;-0.7689342037862573;0.38780289472259905;0.7698482090243024;1
0.023455802366088803;-1.0255703366624715;0.000550174664637017;0.029060874885286005;0.03650966409700855;0.1279114877543762;0.0013329555724763953;0.03874783318038122;0.017913283040230005;1.380867397730168;0.000320885709279392;0.012745997756704402;0.058121749770572;0.029027972011076417;0.0008426231590758358;0.04563050620982398;-1.7785114803836735;0.3592043921468653;0.0024676411793134565;0
0.027534052588001394;-2.3422651789487454;0.0007581240519188262;0.04741511165494035;0.03588594221113495;0.3503514671626299;0.001287800848380917;0.03721831344957671;0.01914770415693198;-0.020407683003541167;0.0003666345744813902;0.019373916590190707;0.058121749770572;0.029384068491041217;0.0008634234810862012;0.04563050620982398;-1.869578483742751;0.35487382606365314;-0.264779999659109;0
0.026950649393289876;-2.4234835418052656;0.0007263375027200359;0.04741511165494035;0.03664907904443138;0.2559169550932886;0.0013431549948049795;0.03466911389823585;0.014646994613654015;0.8559404532298445;0.0002145344512124097;0.011726317936168053;0.045885591924135806;0.025472430818033326;0.0006488447317794939;0.04350826991181335;-2.2176914418572853;0.29744970188245423;-0.03959572068289307;1
0.026635345220278054;-2.3225698004545947;0.0007094416150033889;0.04741511165494035;0.028894069948305737;0.6608148664184277;0.0008348672781775848;0.03110023452635846;0.012108027008298492;-0.7296715456965188;0.00014660431803368573;0.014275517487508903;0.034669113898236;0.025039378093301347;0.0006269704552992994;0.03958927973696133;-1.6662998699647757;0.3084134950760898;0.6014208554129311;0
0.027043494010691265;-2.416080458781111;0.0007313505683062942;0.0489446313857449;0.03067767124028185;-1.2844153936779428;0.0009411195127268161;0.04231671255225855;0.012290662160053933;-1.0243173813115178;0.0001510603763325816;0.015805037218313396;0.034669113898236;0.02297158279792123;0.0005276936162417505;0.034546281390062605;-1.4074595292407792;0.27368999778872244;0.5297760157793686;0
0.027250953991571097;-1.1570677177511826;0.0007426144934507247;0.03696339349444275;0.028084200521014967;-0.23638803948065573;0.0007887223189045773;0.032119914346895206;0.018180772873019814;-0.11919227401576364;0.0003305405022603332;0.02192311614153155;0.0520036708473539;0.025791481095863895;0.0006652004971183047;0.03973950965676912;-1.648107684176911;0.2746044398140546;0.1538266172430232;0
0.0267197901387934;-1.0717982131104562;0.0007139471850611611;0.034414193943101856;0.03417503299399455;0.04698251982081061;0.001167932880140616;0.037728153359844974;0.018824336861626444;-0.12234741315323631;0.0003543556582799881;0.0234526358723361;0.0520036708473539;0.023491627773821536;0.0005518565754637834;0.028342882460287572;-0.2657601809879971;0.2591003902806071;0.5194243344861803;0
0.026149465078760193;-1.0891349949923608;0.0006837945239052987;0.033904354032833706;0.03362735584287218;-0.4600505343813282;0.0011307990609831498;0.03976751300091752;0.021087083877837278;1.7856481636169306;0.0004446651064709448;0.01580503721831345;0.0662791883348628;0.02382548872042247;0.0005676539127669784;0.026760507234942693;1.2968097299861896;0.2813548285348159;1.2247944379140903;0
0.03147645832904888;-1.0262589168280705;0.0009907674289403503;0.0407871928214541;0.033647962646075544;-0.45202331302207527;0.0011321853902316952;0.03976751300091752;0.02422831841546646;0.6229407239096432;0.0005870114132412312;0.0249821556031406;0.0713775874375446;0.035741198335541464;0.0012774332584605118;0.022595921110123596;1.6048049378761022;0.4890517934406471;-0.1789066344806019;0
0.030741154235622833;-0.7246806095674827;0.0009450185637383516;0.0379830733149791;0.03693906553881408;-0.8079194610002147;0.0013644945628808018;0.052003670847353856;0.027498065051268047;1.4396517070171015;0.0007561435815637692;0.02651167533394515;0.0846334251045171;0.035742967981404646;0.0012775597601197175;0.022612567226071856;1.6032840442862366;0.48910783764886245;-0.1783875456510179;1
0.03306331051447572;-1.3420013262698256;0.0010931825021766406;0.0486897114306108;0.03704613939806767;-0.9685066086002706;0.0013724164443010614;0.052003670847353856;0.030944424646030564;0.7319205701275522;0.0009575574166738639;0.0356887937187723;0.0887121443866625;0.035935479920647634;0.0012913587171272695;0.026319378379933422;1.5874412715649953;0.47852142128986364;-0.4049452794494602;1
0.03178482439683658;-0.43175568355810723;0.0010102750619377379;0.040022432956051804;0.03296714453968844;-0.1576658653926472;0.001086832619100709;0.03823799327011307;0.030742764795250812;0.9757250949997804;0.0009451175872561128;0.034414193943101856;0.0887121443866625;0.03599711968982099;0.0012957926259632984;0.026319378379933422;1.4570175673687444;0.4864678799217938;-0.275648703862322;1
0.03804197127048598;-0.9613046975533486;0.0014471915781444807;0.052258590802488;0.034324653155248;-0.5133753266863152;0.0011781818142280762;0.0428265524625267;0.02118692955374084;-1.4762255037442542;0.00044888598391517703;0.03161007443662685;0.053533190578158404;0.026836355365530955;0.0007201899693050621;0.020551670643622053;1.7909981612992083;0.4284288242176339;-1.0215926308412013;0
0.036260814203038415;-1.0898164871664726;0.0013148466466672724;0.0499643112062812;0.04168530543889418;1.1159836435998116;0.0017376646895339003;0.0428265524625267;0.03810731570068393;2.7586876493762063;0.0014521675099115922;0.03186499439176095;0.11114510043846229;0.032680570588008585;0.0010680196939578117;0.020551670643622053;1.5654425720532514;0.4946458895261624;-0.002404030043650052;0
0.03377005656117467;0.1591306557102179;0.0011404167201449363;0.03670847353930865;0.04120866784974197;1.6017709204185366;0.0016981543059503574;0.039257673090649536;0.038207228645618777;2.8758442630532413;0.001459792320778592;0.02982563475068825;0.11114510043846229;0.03434778324447446;0.0011797702138094006;0.032297266913302515;0.6156561725857543;0.5526492412676677;0.3543856072989516;0
0.052738602453168526;0.8855850464213908;0.0027813601887133536;0.0481798715203426;0.04102804867754949;2.2279746896590837;0.001683300778287371;0.03517895380850411;0.03844138828621265;2.937270005700944;0.0014777403333713671;0.02982563475068825;0.11114510043846229;0.0378518457607906;0.0014327622274986813;0.04597844731431003;-0.5905267140801677;0.4685363683358779;0.7757243308912982;1
0.0532483792766265;0.04821472490728098;0.002835389895587466;0.05914142959110836;0.03620871959974466;3.478597284845891;0.0013110713750529327;0.019883756500458816;0.04181146154148297;2.0951180103998213;0.0017481983162349094;0.03594371367390635;0.12440093810543479;0.03690062355774119;0.0013616560189501237;0.04232594874215015;-0.5842834836175769;0.43940973342877393;0.5057302770760135;1
0.05165211638516599;1.1734535929012524;0.0026679411270667326;0.04231671255225856;0.0363948909220271;2.691182891117589;0.0013245880852262506;0.02651167533394516;0.04263028838169067;0.05432184359363603;0.0018173414875061102;0.049709391251147095;0.12440093810543479;0.03733005709736646;0.0013935331628926403;0.042282646435699886;-0.5158232682248368;0.456212085764308;0.7158616824390789;0
0.052586883046401627;0.41582936069445253;0.0027653802685359227;0.054552870398694754;0.03550240619623057;1.6422186717181901;0.0012604208457221505;0.027021515244213423;0.043194920089133206;0.9033201481589195;0.0018658011215066034;0.041806872641990345;0.12440093810543479;0.03697010469061823;0.0013667886408352725;0.04225646273118042;-0.5142037983149749;0.444935695133135;0.6027401104541406;0
0.0476306445839825;0.7070999996232146;0.0022686783034856616;0.054552870398694754;0.03308034000265242;1.9736325492682625;0.001094308894691086;0.027021515244213423;0.049429811622577646;0.28990706823791756;0.0024433062770435124;0.048434791475476593;0.14785357397777088;0.03559099508701455;0.0012667189312838938;0.0369434369416292;-0.2212475656730902;0.4206530814417665;0.6225557017110235;0
0.042889080705046025;1.6431982081723646;0.0018394732437239513;0.03619863362904045;0.018511706056569068;-0.5377025161384225;0.00034268326112481593;0.022178036096665688;0.03490816974558364;-0.005951318521411508;0.001218580314986481;0.04167941266442331;0.1029876618741714;0.03218503498154385;0.001035876476763201;0.015943429016163843;3.4371926544577023;0.41513883092491954;1.45693521262902;0
0.05403077553416254;0.37987086626587896;0.002919324704823057;0.051493830937085754;0.01900006873432741;-0.8962088633665672;0.000361002611909166;0.0242173957377384;0.03404071254047898;1.4175590309905872;0.0011587701102635229;0.03301213418986435;0.1029876618741714;0.03303818293408871;0.0010915215315863104;0.015943429016163843;3.1868220423165114;0.4293568814688723;1.2855737602703958;1
0.04676506734090644;-1.876650013416399;0.0021869715233995145;0.07571122667482405;0.034103424959255293;1.7193616692179319;0.001163043593951557;0.03084531457122469;0.07777864035978468;3.22665158180983;0.006049516896216726;0.05595493015193225;0.2222902008769245;0.04910810880390041;0.002411606350295721;0.015943429016163843;4.972453287259259;0.5876266905861218;2.027960915770031;0
0.04154774476784124;-1.6125964111958049;0.001726215095293679;0.06092586927704695;0.03397087099113433;1.7613888978246166;0.0011540200758962916;0.030080554705822327;0.07763145279856437;3.2391032820944177;0.006026642463615728;0.055062710308962946;0.2222902008769245;0.053340775637415995;0.002845238345601152;0.026530136626961555;4.540431645162625;0.7053024532927632;1.9550863675164205;0
0.040140363615470215;-0.739449695130532;0.0016112487911821652;0.04384623228306305;0.034085454051829195;1.9451678306952758;0.0011618181779193594;0.030080554705822327;0.08336153522461626;5.022659662505882;0.006949145555004937;0.03148261445905985;0.2589986744162332;0.053422300180963195;0.00285394215662494;0.03524999278839731;3.744116406321531;0.6823085726942277;1.7393107856873324;0
0.030797473709051428;0.11375366261675665;0.000948484386859714;0.029315794840420004;0.034640896986268044;1.309535047907086;0.0011999917440132346;0.033139594167431397;0.08566739240155322;2.8387687002749673;0.007338902120881698;0.055954930151932245;0.2589986744162332;0.053922688596151694;0.002907656345437548;0.032435129756295575;4.130314370755106;0.7132246198127171;1.8905122802991765;0
0.03870612269277256;-1.3575051407905008;0.0014981639339079627;0.05429795044356065;0.03156461822791861;2.0555632575162575;0.000996325123874252;0.030845314571224636;0.08547240019678197;2.8614495526079735;0.007305531195398855;0.054935250331395895;0.2589986744162332;0.05358427702481597;0.0028712747442722203;0.03946188480264491;3.472100617664478;0.6787354818018646;1.6699341023302419;1
0.039376361729349135;-1.4099144956247662;0.001550497863040551;0.056082390129499254;0.029408906508004366;2.6397907093526585;0.0008648837819965416;0.02421739573773829;0.08411378142413108;2.2010359909542587;0.007075128225466497;0.06946568777403886;0.2589986744162332;0.05382355404071248;0.0028969749695734962;0.03946188480264491;3.556383453048312;0.6901029291978897;1.717744699689936;1
0.039376361729349135;-1.4099144956247662;0.001550497863040551;0.056082390129499254;0.029408906508004366;2.6397907093526585;0.0008648837819965416;0.02421739573773829;0.08411378142413108;2.2010359909542587;0.007075128225466497;0.06946568777403886;0.2589986744162332;0.05382355404071248;0.0028969749695734962;0.03946188480264491;3.556383453048312;0.6901029291978897;1.717744699689936;1
0.039376361729349135;-1.4099144956247662;0.001550497863040551;0.056082390129499254;0.029408906508004366;2.6397907093526585;0.0008648837819965416;0.02421739573773829;0.08411378142413108;2.2010359909542587;0.007075128225466497;0.06946568777403886;0.2589986744162332;0.05382355404071248;0.0028969749695734962;0.03946188480264491;3.556383453048312;0.6901029291978897;1.717744699689936;0
0.039376361729349135;-1.4099144956247662;0.001550497863040551;0.056082390129499254;0.029408906508004366;2.6397907093526585;0.0008648837819965416;0.02421739573773829;0.08411378142413108;2.2010359909542587;0.007075128225466497;0.06946568777403886;0.2589986744162332;0.05382355404071248;0.0028969749695734962;0.03946188480264491;3.556383453048312;0.6901029291978897;1.717744699689936;0
0.043268074243061484;0.3628794569481911;0.001872126248703081;0.04970939125114716;0.0319365344528551;-0.7734264171929432;0.001019942232858401;0.0341592739879677;0.05284235673552804;-1.8589597850525075;0.0027923146653648055;0.0856531049250535;0.1264402977465075;0.03453689736283111;0.0011927972794507306;0.05742633417176614;-1.90268920906259;0.40236733790876533;0.3325153384575946;0
0.043268074243061484;0.3628794569481911;0.001872126248703081;0.04970939125114716;0.0319365344528551;-0.7734264171929432;0.001019942232858401;0.0341592739879677;0.05284235673552804;-1.8589597850525075;0.0027923146653648055;0.0856531049250535;0.1264402977465075;0.03453689736283111;0.0011927972794507306;0.05742633417176614;-1.90268920906259;0.40236733790876533;0.3325153384575946;0
0.043268074243061484;0.3628794569481911;0.001872126248703081;0.04970939125114716;0.0319365344528551;-0.7734264171929432;0.001019942232858401;0.0341592739879677;0.05284235673552804;-1.8589597850525075;0.0027923146653648055;0.0856531049250535;0.1264402977465075;0.03453689736283111;0.0011927972794507306;0.05742633417176614;-1.90268920906259;0.40236733790876533;0.3325153384575946;0
0.043268074243061484;0.3628794569481911;0.001872126248703081;0.04970939125114716;0.0319365344528551;-0.7734264171929432;0.001019942232858401;0.0341592739879677;0.05284235673552804;-1.8589597850525075;0.0027923146653648055;0.0856531049250535;0.1264402977465075;0.03453689736283111;0.0011927972794507306;0.05742633417176614;-1.90268920906259;0.40236733790876533;0.3325153384575946;0
0.046630945180252674;-1.3800987369661493;0.0021744450484037304;0.06780870806566741;0.03321328029224341;-0.9916810352329819;0.0011031219877711245;0.040787192821454044;0.05123296190037422;-1.7125707379711592;0.0026248163850851962;0.0795350260018354;0.1264402977465075;0.04265479705842292;0.0018194317120952448;0.06145091052544935;-1.2056590697656602;0.5327968514952038;-0.18976149874060655;0
0.04461900319918879;-1.3978379305752007;0.0019908554464892194;0.06220046905271745;0.028180997363134768;3.322571193587099;0.0007941686123810088;0.017844396859386213;0.04845778631368086;0.6998535533066509;0.002348157054422356;0.0545528703986948;0.1289894972978484;0.038984018128190204;0.0015197536694190623;0.04320175681240068;-0.20903768922350635;0.5633466523677121;0.4874232977661278;0
0.04323602190542038;-1.5379832074403823;0.0018693535902059909;0.06220046905271745;0.03848242076584766;1.8567111887316927;0.001480896707999743;0.019883756500458982;0.031243978875155808;-0.779163888620802;0.0009761862159511823;0.0438462322830631;0.08106454573263991;0.03485901812574176;0.0012151511446907928;0.04320175681240068;-0.8292704310220393;0.5211211722519439;0.13505646134046598;1
0.03953854641625255;-0.2336555344205678;0.001563296652710157;0.042316712552258606;0.04594005043396078;-0.5748524647996021;0.00211048823387486;0.05302335066789038;0.031635321400498885;-1.2814251754628656;0.0010007935601128628;0.04843479147547665;0.08106454573263991;0.03445418426031573;0.0011870908130437883;0.03951898399748888;-0.5786692024549005;0.5233007044386007;0.2526315360540586;1
0.03242445166731267;-0.034170660477572314;0.0010513450659258956;0.03772815335984506;0.04661408639091194;-0.8136485841005758;0.002172873050059402;0.06016110941164482;0.03581810042522199;-1.4062163257108806;0.0012829363180712876;0.05200367084735385;0.0922810237585397;0.03387761835761973;0.0011476930255845336;0.03635731410234459;-0.3350345687796882;0.5049229016698488;0.13718805411220572;1
0.03166817099211262;-0.37028162908150436;0.001002873053985683;0.0407871928214541;0.044320757232600066;0.41198421874374985;0.0019643295216710713;0.0499643112062812;0.03103569131057832;-0.1421137149388322;0.0009632141351255067;0.0341592739879677;0.0922810237585397;0.03433216953623908;0.0011786978650650624;0.03949119764030842;-0.5330651226086808;0.5186187803322637;0.2156828352357174;1
0.03166817099211262;-0.370281629081493;0.001002873053985683;0.0407871928214541;0.040142367947076985;0.5386709937050895;0.0016114097043985138;0.03670847353930867;0.02952735917751772;0.44175763253635625;0.00087186493999814;0.0290608748852859;0.0922810237585397;0.031407192986804416;0.0009864117713103764;0.02858900589984556;0.9117817125905645;0.49786045970913617;0.3749272075658658;1
0.02824045031590142;0.09846234499212585;0.0007975230340448966;0.029060874885286053;0.04072280505826619;0.21963392696085293;0.0016583468518135507;0.04282655246252676;0.029611498978694757;0.3767814992028491;0.0008768408717652407;0.0295707147955541;0.0922810237585397;0.024845191655159964;0.0006172835483816303;0.027416073131206836;1.8771113418062513;0.36524869950335886;1.4460231094399756;1
0.029412694281746518;-1.3764963163745185;0.0008651065849114844;0.04078719282145405;0.04275133994591977;-0.45600866684859154;0.0018276770671715955;0.05149383093708576;0.026608610484872793;-0.13828357768105165;0.0007080181519356823;0.0295707147955541;0.0805547058223717;0.027036195919896755;0.000730955889819042;0.03978213768631221;-1.3193472069673866;0.3535648077127454;0.5792912319265967;0
0.030877952339607887;-1.2800303012645196;0.0009534479406870961;0.04078719282145405;0.03664164796317628;-1.5013704023844965;0.0013426103654573405;0.05506271030896304;0.03041671787633476;-0.394884055861975;0.0009251767263685427;0.034669113898235904;0.0846334251045171;0.02701345200392667;0.0007297265891684498;0.03978213768631221;-1.3240250418946622;0.3533282163654638;0.577564731051961;0
0.029860630696773187;-0.9406076516409527;0.0008916572656090731;0.037728153359845;0.02943814388879678;-2.0704295838688145;0.0008666043156175031;0.04741511165494028;0.031111973354931106;-0.3001964539740051;0.0009679548860379431;0.03619863362904045;0.0846334251045171;0.02767464077186731;0.0007658857418519006;0.03978213768631221;-1.2964007442156464;0.37127977805381707;0.7855477508153711;0
0.024285470383303524;-2.175707048690873;0.0005897840717383125;0.04282655246252675;0.029393539977298454;-1.8142402220014469;0.0008639801923970423;0.04588559192413577;0.021939765718861054;-0.027110063805908878;0.0004813533197985107;0.0254919955134088;0.0632201488732537;0.027182176336819762;0.0007388707104059642;0.04398873678183807;-1.7996561710771375;0.3420477202911622;0.17687585497431574;0
0.03226045832883623;-0.3399281713487824;0.0010407371715865788;0.04282655246252675;0.033833590782349515;-0.5000263092515531;0.001144711865227486;0.0341592739879677;0.030486632113631916;-0.9443002733032969;0.0009294347376319328;0.04180687264199035;0.0815743856429081;0.02396663218818996;0.0005743994584439829;0.032996529304743366;-1.220928460175149;0.2890544572403268;0.13947787391161512;0
0.042970821909113055;-1.3298724756483025;0.0018464915355447106;0.0627103089629856;0.03377647033120999;-0.9177836985330423;0.0011408499480351087;0.043336392372794796;0.029853168337367165;-0.668773311111105;0.0008912116597791813;0.03976751300091765;0.0815743856429081;0.03299112749731237;0.0010884144935439201;0.04398873678183807;-0.8126002879824086;0.4411416070678274;-0.2639427859787546;0
0.043742787217390514;-1.692282601650409;0.0019134314335459027;0.06933822779647189;0.0336222021686715;-0.9029664825158207;0.0011304524786710183;0.043336392372794796;0.032042555201239706;-0.9972414342167639;0.0010267253438244936;0.047415111654940306;0.0815743856429081;0.03321711648987839;0.0011033768279021512;0.044895190601805524;-0.9097039498588906;0.4457069284446735;-0.24730351807618758;0
0.04065953306286709;-1.0340888414224225;0.0016531976288903822;0.053023350667890295;0.03659229436724824;-0.7064906448039174;0.0013389960070593475;0.04894463138574495;0.03861791927490017;-0.789424442647902;0.0014913436891227062;0.049454471296013006;0.1121647802589986;0.030391092259117614;0.0009236184887021986;0.0331674731232465;0.023418421294365287;0.4269848971924676;-0.15023969452216251;0
0.035140052168187406;-1.171222642441321;0.0012348232663829323;0.047924951565208554;0.03286260008911137;0.19044832171855433;0.0010799504846168626;0.03059039461609042;0.040458722918796784;-1.2053546084681421;0.0016369082602199724;0.05659223003976745;0.1121647802589986;0.025610604697497475;0.0006559030729714798;0.0331674731232465;-0.02446607043280622;0.3768990406840118;-0.8439590098268959;1
0.04161338446593627;-1.9380262887664728;0.0017316737667098262;0.0657693484245947;0.03074538177470648;1.4958386089889033;0.0009452785004724534;0.020393596410726966;0.0406978730365557;-1.2508532897969693;0.0016563168696996074;0.05659223003976745;0.1121647802589986;0.028237547431683007;0.0007973590849565476;0.03199211203930132;0.3100387058929194;0.3825510897443069;-1.1124818705096622;0
0.03732508367399016;-0.40912764658203854;0.0013931618712703668;0.0387478331803814;0.029616723658403264;2.4950860293369104;0.0008771503202582236;0.012236157846436169;0.042963331838665776;-0.6937665683532892;0.0018458478826793125;0.05455287039869475;0.1121647802589986;0.02709347700542292;0.0007340564962433806;0.028265486624210114;0.3311243831272854;0.38142302721189497;-0.8961248194996941;0
0.04149005703325032;-0.8269815915010668;0.0017214248326223645;0.049454471296013054;0.020298691026054937;1.1802150881940618;0.0004120368573712432;0.021413276231263545;0.030412648151289922;2.683316475192382;0.0009249291675741582;0.02600183542367695;0.0897318242071988;0.027559857769611465;0.0007595457602812135;0.03587412866064252;-0.47633862669596355;0.40052326382469;-0.5411585834300113;0
0.043816297906142894;-0.8877917350138539;0.001919867962199862;0.05200367084735395;0.02040573184554736;1.2054885568819145;0.0004163938921523857;0.021413276231263545;0.014761478612117736;-1.2028983002095344;0.0002179012508160094;0.019883756500458795;0.040787192821454106;0.022267226632822903;0.0004958293819174976;0.03587412866064252;-1.8371901355339517;0.3095324218427734;0.09331210270615126;0
0.05006281288875568;-1.3387377797023745;0.0025062852343345618;0.07341694707861725;0.02044330591361289;-0.6517184719075637;0.0004179287566775597;0.028551034975017875;0.015585399868104227;-1.494431920181087;0.00024290468904870327;0.022432956051799693;0.040787192821454106;0.022097329834217666;0.0004882919858022061;0.03537203107231285;-1.8212569586648861;0.30655939059561604;0.10104223096156414;0
0.052172391702902825;-1.3695366494881114;0.0027219584560011236;0.0739267869888854;0.017100188534788844;-2.0786159139075573;0.0002924164479253238;0.028551034975017875;0.012618629741268001;-0.7822225161506914;0.00015922981654721332;0.016314877128581595;0.035688793718772295;0.022275492453074374;0.0004961975640269734;0.031055656839792223;-1.2383956072095608;0.3285160106845005;0.7585542225981324;0
0.04731253671671935;0.07651786454344105;0.002238476130570917;0.058121749770571954;0.015348516173720588;-1.5568309721411573;0.00023557694873496248;0.02192311614153153;0.012512241268768582;0.28923590982605346;0.0001565561815678756;0.014275517487508896;0.035688793718772295;0.01923947616951796;0.0003701574432774495;0.012744029681356503;3.0832240822537287;0.30757489168619573;1.7382836049809813;0
0.03351970083677899;-0.7266255269611598;0.0011235703441871624;0.036198633629040404;0.01628754137557094;-1.5992481023864926;0.0002652840040609353;0.02447231569287245;0.01353855721121164;-1.588852843134547;0.0001832925313612507;0.020393596410726945;0.03364943407769959;0.013133848056687708;0.00017249796477615951;0.012744029681356503;0.10888733829019728;0.2195609556396354;0.9845401089099399;0
0.033725860058308604;-0.7696890421304573;0.0011374336366726156;0.03670847353930855;0.014628390952690461;-2.251711153143696;0.00021398982186475612;0.02447231569287245;0.022119566026908625;1.9263834927921608;0.0004892752012187702;0.020903436320995145;0.06322014887325379;0.019948573170125345;0.0003979455715238448;0.0178263408085126;0.5893832212020953;0.3128347299984944;1.2965261827856753;0
0.03551077282781468;-2.0592674532681103;0.0012610149868286613;0.05659223003976735;0.0162449276641169;-2.4074935953169367;0.00026389767481239056;0.028551034975017764;0.026815280609480293;-1.6142301088688555;0.0007190592741651698;0.04078719282145404;0.06322014887325379;0.022699105132308123;0.000515249373807577;0.0364686142244665;-2.0561265672704385;0.32852738493147776;0.4586990039178729;0
0.036549647963422485;-2.019747661140496;0.0013358767662501134;0.0586315896808401;0.019692031269569314;-1.7320838084973431;0.0003877760955216956;0.031100234526358683;0.031743713025684225;-2.1316342802988153;0.0010076633166569945;0.0545528703986948;0.07749566636076269;0.02573670790115309;0.0006623781335892759;0.04166799075071302;-1.8276406205149045;0.3251697912501784;0.13852178109693833;1
0.03568601897193875;0.2448549546260253;0.0012734919500655723;0.0356887937187723;0.01849397821777937;-0.8048962977392599;0.0003420272303196978;0.021413276231263323;0.028695471103940547;-1.5177868376888455;0.0008234300618770869;0.0402773529111859;0.07443662689915359;0.023983556341362792;0.0005752109747793234;0.0338970474258764;-1.3436248014820706;0.27457521789341316;-0.5298734905329626;0
0.032642839042023954;5.408775489742692;0.0010655549407234835;0.012491077801570355;0.01543536794878245;0.3803026722470726;0.00023825058371430057;0.014785357397777088;0.027251181100833806;1.257110811854416;0.0007426268713904416;0.023452635872336064;0.0774956663607627;0.02138277583273141;0.00045722310231284253;0.022927363376642085;0.9860030029854847;0.22141274216703954;-1.0802953347127855;0
0.03810374253584231;3.2838107354842605;0.0014518951952377588;0.016569797083715754;0.018560787113253884;-0.4759939921217352;0.0003445028182635314;0.02141327623126338;0.027464734597030534;2.2493842945590914;0.0007543116464853259;0.017844396859386102;0.08973182420719901;0.030053056219622804;0.000903186188139809;0.019881743618956046;3.713252404555189;0.26477247599518877;1.722951575389999;0
0.019317291443506652;-0.2510185928340107;0.00037315774871337536;0.02345263587233605;0.013468893218224767;-0.2925675401879303;0.00018141108452394112;0.014275517487508826;0.03196984889689179;-0.5378401285744729;0.0010220712384900934;0.03925767309064955;0.0795350260018354;0.0358380803211439;0.0012843680011047616;0.04344346340569702;-0.9425656745854575;0.2807459079874481;1.0106880308998167;0
0.018504349392804754;-0.18533973524897576;0.0003424109464509936;0.021158356276129248;0.013445438244931406;-0.27232339921003046;0.00018077980959826413;0.014275517487508826;0.03632271794325594;-2.2524282472113955;0.001319339838785327;0.0616906291424493;0.0836137452839808;0.03866299903801784;0.0014948274946137684;0.06712794073906747;-2.495580291399947;0.2773487352947068;0.22720368340259925;0
0.014962613264412143;0.6895628886762012;0.00022387979570036222;0.0124910778015703;0.013780955304731264;-0.5203419137836967;0.00018991472911100078;0.01453043744264293;0.034169237423003845;-2.2464743036802792;0.0011675367860696066;0.05812174977057205;0.0815743856429081;0.034736583672007514;0.0012066302452023788;0.06143631764396683;-2.61998761647383;0.23045276930271796;-0.3827009726851646;0
0.014755188298365534;0.7460806325711203;0.00021771558172022318;0.0124910778015703;0.01279155913669305;0.4946874128304991;0.00016362398514751546;0.011471397981033915;0.03296113658582939;-0.37436862227602175;0.0010864365250297006;0.03874783318038136;0.0815743856429081;0.03200720790939452;0.0010244613581552073;0.032898091315759465;-0.5920264667624735;0.2007109956577811;-1.2346900398054292;0
0.016906182480235316;-0.043752693214491246;0.0002858190060550155;0.020648516365861097;0.01261617718838078;0.6555704743332769;0.00015916792684861957;0.010961558070765709;0.021952174132558164;4.714364469377935;0.00048189794914615583;0.01427551748750891;0.06322014887325379;0.022367214787973953;0.0005002922973713607;0.010582363948439422;5.277509816158077;0.13355855054495666;-2.248722027407433;0
0.017378772371700758;-0.25384253695219244;0.00030202172914738963;0.022432956051799693;0.009585481027850961;1.4882456700506026;9.18814465352907e-05;0.00841235851942479;0.008111789417078758;-1.9158732025666567;6.580112754703094e-05;0.013255837666972553;0.020393596410726994;0.008572863102637647;7.349398177656598e-05;0.010582363948439422;-0.8809040874172375;0.04944750442013067;-0.7421453168072191;0
0.014938189222825225;-1.0350697524537273;0.0002231494972569317;0.019373916590190644;0.007188734125524025;-0.7634716597934862;5.167789832747367e-05;0.00841235851942479;0.013378527883851328;2.238199893247338;0.00017898500833898748;0.013255837666972553;0.038747833180381386;0.015672702988727874;0.0002456336189728796;0.01744944618968991;1.405244373920452;0.09327246211149114;-1.2644310085099786;0
0.014035928489774939;-1.2212653374174187;0.00019700728857007581;0.0183542367696543;0.0066762984451474855;-0.45836230964479513;4.4572960928678737e-05;0.0071377587437544965;0.012869220389841016;2.118890948883717;0.00016561683344229973;0.010706638115631661;0.038747833180381386;0.014576399633430015;0.0002124714262734587;0.014598088474949061;1.197013367370549;0.08827612504452088;-0.9338396110321945;0
0.014392956580903851;-0.05253570005393797;0.0002071571991397835;0.0168247170388498;0.00719647829045194;-0.9522778206326045;5.178929978494608e-05;0.009177118384827099;0.012262430905342575;0.18946055397136163;0.00015036721170830073;0.011726317936168018;0.0367084735393087;0.01383989481770966;0.0001915426885652667;0.015446639269037526;-0.6126326205437707;0.08651644260144224;-0.48268152027949995;0
0.016077962964717852;0.5786390037638285;0.00025850089309483885;0.019373916590190703;0.00626995506746559;-0.6117899358527538;3.931233654803744e-05;0.0071377587437544965;0.013551350990709024;-1.1413081542002572;0.00018363911367339042;0.018864076679922542;0.0367084735393087;0.014677320377097394;0.0002154237334519584;0.020123483350153654;-1.1474508525510991;0.09487398384196584;0.08285628821668568;0
0.017202667897903635;-1.331521482060758;0.0002959317828055642;0.02396247578260425;0.00551363944688496;4.078477225224449;3.040021995024589e-05;0.0025491995513409194;0.015536081376059123;-0.398569959748604;0.00024136982452353114;0.021923116141531584;0.041806872641990483;0.01649583193304666;0.0002721124711633219;0.02310453646931404;-0.45135673945272997;0.11268974469772863;-0.6365823127165783;0
0.028924041725496563;1.913774327554512;0.0008366001897382662;0.0265116753339451;0.005423097341253759;2.927415569841756;2.9409984772713586e-05;0.0035688793718774425;0.01601316331091468;-1.387414842887253;0.00025642139922202404;0.022432956051799735;0.041806872641990483;0.015255262412591718;0.0002327230312770337;0.018356458592053065;-0.5838201073460766;0.10743917904912435;-0.050614995061028845;0
0.025891158362852187;0.8514459292636168;0.0006703520813702907;0.02931579484042005;0.005900774900806208;-0.316919452103123;3.481914442998452e-05;0.006372998878352409;0.014562241011210167;0.04590373498413669;0.0002120588632685713;0.0168247170388498;0.041806872641990483;0.013450338485009573;0.00018091160536132963;0.010962478097229778;1.096507070576567;0.09769834164971268;0.5891508389799267;0
0.023376776096394995;1.105635529608169;0.0005464736606609844;0.021158356276129248;0.007382416175171983;1.3304076170068142;5.450006858344093e-05;0.006372998878352409;0.015129205573546231;-0.9955797010419346;0.00022889286128662236;0.02141327623126335;0.041806872641990483;0.014054032937343726;0.00019751584180394233;0.0160563861235668;-0.1245239912296526;0.10101547137005437;0.18296875370031457;0
0.01998558822745579;1.432515174535841;0.0003994237367974194;0.016569797083715698;0.007382416175171983;1.3304076170068142;5.450006858344093e-05;0.006372998878352409;0.014113320160778951;-1.527981110863727;0.00019918580596064962;0.02141327623126335;0.037728153359845085;0.013318313916759014;0.00017737748558533685;0.0160563861235668;-0.41017926956580764;0.09601211654756543;-0.02255076231569606;0
0.018662873459285637;-1.174262206207579;0.0003483028457573082;0.025491995513408746;0.006493969558225728;2.312932291458;4.217164062316246e-05;0.005353319057815997;0.013829820119596294;-0.5867687558732477;0.00019126392454039045;0.017844396859386144;0.037728153359845085;0.012938089993860535;0.0001673941726892341;0.011415864330614228;0.3476813597877566;0.09438771911461605;0.4587786431970203;0
0.017190071405185952;-1.2169644118674845;0.00029549855491539174;0.023707555827470153;0.006201472301592236;1.88199237391849;3.84582587074157e-05;0.005863158968083981;0.01401121422096621;-0.9879086267010528;0.00019631412394580574;0.01937391659019065;0.037728153359845085;0.013245145551364293;0.00017543388067682531;0.015231282052669437;-0.3139581645907349;0.09586539559663478;0.1237453216817956;0
0.014978013017583404;-1.5188129576342952;0.00022434087395489788;0.02307025593963495;0.005589723994624202;1.5933554710473914;3.124501433607754e-05;0.0059906189456509495;0.016914874581957364;-0.3113552502488254;0.0002861129821233473;0.01937391659019065;0.05072907107168349;0.01625717696261525;0.00026429580279378794;0.015231282052669437;1.0338002933968753;0.1190127941575968;-0.672172662065057;0
0.018063034283922;1.2806185929679912;0.0003262732075421415;0.014148057509941903;0.006021468253037268;0.9275867814009132;3.625807992233569e-05;0.007010298766187362;0.028200920382330092;1.0828640190675245;0.0007952919104105208;0.02740389517691441;0.08361374528398088;0.029132177355557544;0.0008486837574756598;0.027780660726259426;1.3334360281380497;0.22742205317592315;-1.2623955563277591;0
0.025088147405380762;-0.484401278186148;0.0006294151402341134;0.02753135515448145;0.008750248031785432;1.301201402187057;7.656684061776483e-05;0.006755378811053203;0.037624788868187806;-1.2786929224888979;0.0014156247373757088;0.053915570510859545;0.0978892627714898;0.038051791386629424;0.001447938827731565;0.05614481379006428;-1.4760928309063026;0.3209870825945455;-0.6545365514670513;0
0.02518417234543522;-0.6739819714402266;0.0006342425367245841;0.030590394616090498;0.006634218805284189;2.4762906090884997;4.401285915638637e-05;0.006118078923218084;0.044779026902330495;-1.5534678979553433;0.002005161250319638;0.06729886815539919;0.12032221882328949;0.0454924670250471;0.0020695645560249976;0.07160788375048874;-1.7448084106288078;0.4420256160707487;-0.18786231418827712;0
0.02487782686274167;-0.5784803085255753;0.000618906269412551;0.02867849495258485;0.008114650012229524;1.3529914392482099;6.584754482097662e-05;0.007265218721321465;0.04598458695516327;-1.553524125386079;0.002114582237436972;0.06844600795350259;0.12236157846436221;0.046045058753633204;0.002120147435625534;0.07016109689116554;-1.6795037413103118;0.5478746763692417;0.16859499476981316;0
0.022929776513643287;-0.9082689337393234;0.0005257746509656273;0.030208014683389302;0.01049662497782652;-1.1083844461142682;0.00011017913592513161;0.013383297644539605;0.04905133235768631;-0.6568632630013681;0.0024060332060642036;0.06232792903028451;0.1386764555929438;0.043791314181666166;0.001917679197757396;0.05587812328765727;-0.1655072127110344;0.6340151922118548;0.8950318091487522;0
0.017161154543122375;-1.2788709017549096;0.0002945052252529298;0.023962475782604152;0.012593714150577948;-1.9305315626677513;0.00015860163610646725;0.020266136433159998;0.04231784600216918;-0.805159258038777;0.001790800090263306;0.05608239012949935;0.12057713877842349;0.03152544412785568;0.00099385362745855;0.03996138453901728;0.15995857633412172;0.6140851377094662;0.9887650178162484;0
0.01995924878148705;-0.9543783201846935;0.00039837161192129235;0.0280411950647496;0.012827312761710157;-1.3593849594073617;0.00016453995268673224;0.019118996635056618;0.03680007647809098;-1.4397558642279187;0.001354245628793345;0.054043030488426604;0.0978892627714896;0.019926029008779322;0.0003970466320587151;0.029946771918303475;-1.4782903010902877;0.45745294445000223;0.4126479221208885;0
0.02350008847876601;-1.9928106320790817;0.0005522541585098309;0.0387478331803813;0.012769283453680327;-0.3077415912685183;0.0001630545999204342;0.013510757622106684;0.03338501466334292;-0.9933761509269615;0.0011145592040716216;0.04690527174467205;0.0907515040277352;0.016688177166348087;0.0002784952571354217;0.0272557066159831;-1.9827792118712153;0.40365601300731085;0.10485954957416913;0
0.02882201052029419;-2.0470615316980405;0.0008307082904319488;0.04792495156520845;0.012670023686549547;-0.7328609529508668;0.00016052950021772658;0.01656979708371581;0.03665110544146809;0.4461388572495089;0.0013433035300816118;0.03823799327011305;0.1121647802589986;0.02676082973125503;0.0007161420079052231;0.0272557066159831;1.98104815884126;0.5764362374848007;1.3756930122201336;0
0.024693862037446987;-0.9843839782132549;0.0006097868223244655;0.0311002345263587;0.011441010118432224;1.7015496765756724;0.00013089671253006853;0.011981237891302232;0.036423448204406274;-1.10555327583968;0.0013266675790990666;0.0474151116549403;0.0958499031304169;0.030385111232774382;0.000923254984628072;0.04406167225526961;-1.3170293541376488;0.5706864033902836;0.5263417793192154;0
0.02007550042354354;0.10771157085154712;0.00040302571725569684;0.02192311614153155;0.01016214303564527;0.6446818906897377;0.00010326915107691368;0.011981237891302232;0.03321849740857132;-2.1240656117649963;0.0011034685700832597;0.05608239012949935;0.0795350260018353;0.029232089310096274;0.0008545150454334448;0.04198492982280747;-1.4372821964689018;0.47951138231299356;-0.17961144582580535;0
0.020252293957325685;-0.13591237528401975;0.0004101554105339304;0.0234526358723361;0.009963487168036429;0.1332070820455833;9.927107654762659e-05;0.011726317936168296;0.026920319735788966;-2.248409971820172;0.0007247036146771088;0.047415111654940355;0.0632201488732538;0.026411868893285433;0.0006975868184360988;0.03115397438761336;-0.21785903542502255;0.4123195083089613;-0.3706996934604643;0
0.016429793346093534;-0.9309463932277552;0.0002699381093953394;0.0234526358723361;0.008825077717104049;1.1956068089572098;7.788199671292641e-05;0.008157438564291186;0.02223120278137098;-2.0527742643629345;0.0004942263771064369;0.037728153359845;0.0530233506678903;0.01924573789705039;0.00037039842720196155;0.02989716746090019;-1.6183159136218677;0.27947268912104867;0.6461063382298504;0
0.018456459602836997;-0.4143067029476306;0.00034064090107115396;0.023452635872336102;0.007234219317423966;2.672856453664683;5.233392913259007e-05;0.004588559192413744;0.02399834951101558;-0.8798694761780446;0.0005759207792528617;0.02957071479555421;0.06933822779647189;0.02143045027661685;0.00045926419905854723;0.03677606844857331;-2.1647122708226028;0.2822853931966115;0.020527597921916642;1
0.017120444285987368;2.5258295516799096;0.00029310961254959747;0.013255837666972598;0.0063093148706340405;3.273969703721208;3.980745413680384e-05;0.0035688793718771095;0.02237771054594619;-1.0865108457664676;0.0005007619292781512;0.026511675333945148;0.05812174977057209;0.022400394604853328;0.0005017776784531421;0.033315370014188994;-1.4028081743126037;0.2702495769862926;-0.6222865309642935;0
0.008319701852200946;0.8442446904509439;6.921743890951584e-05;0.0076475986540226505;0.008478860412157658;1.2992862509394043;7.189107388885434e-05;0.00611807892321814;0.02360519719039643;-1.4313854199312424;0.0005572053343974995;0.03517895380850414;0.05812174977057209;0.022506997460994587;0.0005065649347092169;0.03376214058924562;-1.4229412988678078;0.2711181603028348;-0.6230178103759932;0
0.006044805873718839;0.5865027430685785;3.653967805094577e-05;0.0076475986540226505;0.011289077347083077;0.12869523638763739;0.00012744326734842428;0.011216478025899979;0.02400556938639445;-1.866044329940602;0.0005762673615649984;0.03976751300091769;0.05812174977057209;0.022623040058787507;0.0005118019415015042;0.0364327394569703;-1.7750441456836838;0.27814218739622315;-0.3126111706204693;0
0.006085622042134396;1.703378706848396;3.703479563971202e-05;0.005608239012949948;0.012400948474644468;0.6974467712825273;0.00015378352307078696;0.011216478025899979;0.02957573742230736;-2.1209745146245824;0.000874724244073272;0.05098399102681759;0.07137758743754469;0.026635925084115098;0.0007094725050865919;0.04811014933757247;-2.3930047254206803;0.34959126428210824;0.003723619838861731;0
0.011955770484448262;2.1348841461589374;0.00014294044787680423;0.01172631793616805;0.012543857847963014;0.9061538162977009;0.00015734836970990332;0.012236157846436169;0.02728114292754933;-0.9591854673130328;0.0007442607594333748;0.03976751300091769;0.07137758743754469;0.024358307124822263;0.000593327125987167;0.0364327394569703;-1.4954894323026686;0.3050672460588624;-0.3907940097569672;0
0.012842261047729253;-0.6293121546538017;0.00016492366881802405;0.01784439685938615;0.013676820721054878;0.22155596427567942;0.00018705542503587606;0.0168247170388498;0.025148082910448788;1.718124081318716;0.0006324260740708063;0.027021515244213284;0.07137758743754469;0.0215686020336152;0.0004652045936844697;0.024900277438946586;1.0573311037294246;0.255507427597771;-1.0665532404881828;0
0.01579054203321291;0.27062052349360927;0.0002493412177026637;0.012236157846436248;0.013523920928866739;1.0994210310168853;0.00018289643729023982;0.013255837666972359;0.02326478390399336;1.8259830884418946;0.0005412501700995085;0.020138676455592947;0.07137758743754469;0.020066910578460315;0.00040268090016392245;0.01671394158447309;1.629247010839677;0.24542028374970676;-0.9362704280836481;0
0.01579054203321291;0.27062052349360927;0.0002493412177026637;0.012236157846436248;0.013054480995172937;4.579604239390376;0.00017041947405333142;0.008157438564290742;0.020652037887408083;1.2275111060564725;0.00042650666890293884;0.018099316814520254;0.06423982869379019;0.017573710906739426;0.00030883531503365225;0.015225682710641036;1.1103758331552966;0.23185659440657846;-0.7634195936276797;0
0.016133298373686544;-0.5315682064394736;0.00026028331641439695;0.0188640766799225;0.013929701469790364;3.9105234272925147;0.0001940365830374798;0.010706638115631661;0.017031647522139752;2.0408646698296478;0.00029007701731840915;0.014785357397777102;0.05251351075762221;0.014271578414537385;0.00020367795044228941;0.014913474638591717;1.3340757639963698;0.20069891294823547;-1.1148016497959474;0
0.02618848762259777;0.8451211141017907;0.0006858368839589565;0.026511675333945155;0.014631775195871215;-0.07248620311646689;0.00021408884538251212;0.016314877128581595;0.022364708048873607;-1.1448234324264441;0.0005001801661113519;0.03008055470582241;0.058631589680840306;0.014393773819905307;0.0002071807247785914;0.014913474638591717;1.3153377222393772;0.20152956081076176;-1.1652573068740235;0
0.035581114013971;-1.1171547293472763;0.0012660156744752037;0.049454471296013054;0.011306606980851399;-1.2374151982291899;0.00012783936141943757;0.015295197308045183;0.0387744979607443;2.247399161087756;0.0015034616921077639;0.03313959416743145;0.11063526052819411;0.010222100789260403;0.00010449134454579817;0.013106921087378251;-1.0416916667238425;0.13046980029992655;-0.11835599926745165;1
0.033223713705656;-1.9656827789561107;0.0011038151523953942;0.05455287039869481;0.016588741840063218;-0.6637311321053936;0.00027518635583626396;0.022942795962068052;0.05396177522202296;-0.6542869322813949;0.002911873185112131;0.06780870806566736;0.142245334964821;0.012303030446027412;0.00015136455815587747;0.017526500199337505;-1.4034573073799224;0.15163256021282517;-0.26346976362552854;1
0.030912607852759837;-2.0060847832665787;0.0009555893242585092;0.050729071071683514;0.017952971128676373;-1.5335965588436473;0.00032230917234708745;0.02676659528907943;0.053604243548479584;-2.1733464896262396;0.002873414926404715;0.09177118384827156;0.1305190170286529;0.017202830843638803;0.0002959373890348505;0.022706212151231045;-0.6224415981911491;0.22728044835881175;-0.3919123522460196;1
0.03144852558547426;-2.1235646761896674;0.0009890097615002289;0.050729071071683514;0.01960604289443357;-2.0419192984250687;0.000384396917978369;0.03288467421229735;0.04996332025396599;-2.0432806306342512;0.0024963333708003686;0.08106454573263985;0.1203222188232894;0.018186078830820657;0.00033073346324082324;0.02465902055366618;-1.260904407822847;0.2536503476445836;0.28906319242459744;0
0.03096901521294004;-1.9828641063680223;0.0009590799032593117;0.048179871520342664;0.01852306969903386;-1.3999661125287381;0.00034310411107526644;0.02676659528907921;0.044570845868198164;0.36792683983181645;0.0019865603014066775;0.0448659121035994;0.1203222188232894;0.018276458640689306;0.00033402894044482677;0.02627214370363201;-1.3529013593644834;0.24617847469289925;-0.24332660443187096;0
0.030412444650741974;-0.6002515620805227;0.0009249167896344442;0.03211991434689511;0.025030170172914236;0.6420867142504477;0.0006265094188850455;0.02676659528907921;0.02768021800159311;2.462764115554549;0.0007661944686157192;0.0234526358723361;0.0836137452839807;0.02338906706863936;0.0005470484583413102;0.028169182343122254;-0.6891481029875394;0.28817812490810546;-0.14791458256507428;0
0.031255465705295395;-0.7691513516497203;0.0009769041364548964;0.037728153359845;0.027820499504844647;0.0034802530702727095;0.0007739801926990612;0.03492403385337001;0.01353855721121198;-0.13520852979716835;0.00018329253136125992;0.013765677577240752;0.0407871928214541;0.02405494125386339;0.0005786401987268188;0.027857097500317216;-0.7866460805527531;0.28617551101768773;-0.5711471737189703;0
0.030170947364748135;-0.8992779267249886;0.0009102860648864024;0.0387478331803814;0.034923635123322555;-0.3116681001268944;0.001219660290226969;0.038747833180381386;0.014256429082646835;0.585462581653043;0.00020324577018853847;0.016314877128581602;0.0407871928214541;0.02423956057457649;0.0005875562968485629;0.027857097500317216;-0.8365449942717589;0.28705049522637943;-0.611669707263768;0
0.03147095242645531;-1.3514684537235346;0.0009904208466282136;0.04537575201386766;0.03443464440641841;-0.1549288139140792;0.001185744735396483;0.03849291322524717;0.015270899918108753;0.32486770254396263;0.0002332003843088939;0.016314877128581602;0.0458855919241358;0.02555976547550756;0.0006533016111629481;0.03359647240331451;-1.131810263900921;0.2969187592128115;-0.630351344542141;0
0.025189148258801915;-0.5013533673245192;0.0006344931900039036;0.029060874885285998;0.03472405310332245;-0.27099336461423035;0.0012057598639223575;0.04027735291118578;0.015416109840286874;0.06804656250010055;0.00023765644260778976;0.017334556949117952;0.0458855919241358;0.01928357597932791;0.0003718563025505125;0.014077713587801938;1.8687853351020052;0.20778682036850118;-1.1766670861422184;0
0.01800976214170383;0.8409601487335465;0.0003243515324007486;0.013255837666972609;0.03358757844804856;0.2280874089490183;0.0011281254260038164;0.03313959416743145;0.015406471758794423;0.11273227955485794;0.0002373593720545301;0.017334556949117952;0.0458855919241358;0.0104208456273655;0.00010859402358938267;0.00908895819754904;0.5501568581513375;0.10508789420227761;-0.0038037050255154167;0
0.018973665929174464;-0.14613219883392503;0.0003599999987919158;0.01631487712858165;0.03553168078764312;-0.5091283285438237;0.0012625003395949671;0.04333639237279491;0.017313121851332096;-0.7777412602732632;0.00029974418823907294;0.024472315692872393;0.0469052717446722;0.008312358926820262;6.90953109282885e-05;0.00908895819754904;0.15284732272454135;0.08271812404309728;1.052357693421674;0
0.017462615008099817;-0.08039885081604795;0.000304942922921113;0.01631487712858165;0.028690294374994332;-0.001732042105249576;0.0008231329913238314;0.03313959416743145;0.01221844224738735;-2.1786695249041417;0.00014929033095274004;0.020903436320995193;0.02855103497501779;0.006082834292551247;3.7000873030637425e-05;0.008099733897318925;-1.1251023139277123;0.06130808482171261;0.529400633704551;0
0.01992076171726678;-2.309211342270845;0.00039683674739612163;0.03262975425716326;0.02777842259906321;0.8293885825287383;0.0007716407620921457;0.02906087488528608;0.01085703089916962;-1.4888812881870372;0.00011787511994552391;0.016569797083715698;0.02855103497501779;0.010717311986645307;0.00011486077621909118;0.009982105834921193;1.486724788259012;0.1114426620305929;-1.0183590466684196;0
