acc_X;acc_X_std;acc_X_max;acc_Z;acc_Z_std;acc_Z_max;acc;acc_std;acc_var;acc_max;acc_range;fb_tilt_max;fb_tilt_var;fb_tilt_range;tilt_max;tilt_var;tilt_range;class;lat;lon
-1.2941504714501473;2.0493641235534783;4.271419727688365;-0.014785357397777;0.06707438121892904;0.0622004690527174;1.475416408580513;1.5020830769552962;2.2562535700754904;4.56850930950867;3.75478285891096;-0.9554399918425616;0.00223774583212749;0.14071581523401644;0.023452635872336;0.0013203888691765218;0.0968695829509533;30.0;53.72258518571429;86.8367045
0.7931955724126843;2.0493641235534783;4.271419727688365;0.0622004690527174;0.06707438121892904;0.0622004690527174;0.8137264505977098;1.5020830769552962;2.2562535700754904;4.56850930950867;3.75478285891096;-0.9554399918425616;0.00223774583212749;0.14071581523401644;0.023452635872336;0.0013203888691765218;0.0968695829509533;0.0;53.72258518571429;86.8367045
1.7027635643029129;2.0493641235534783;4.271419727688365;-0.0326297542571632;0.06707438121892904;0.0622004690527174;1.947878503108842;1.5020830769552962;2.2562535700754904;4.56850930950867;3.75478285891096;-0.9554399918425616;0.00223774583212749;0.14071581523401644;0.023452635872336;0.0013203888691765218;0.0968695829509533;0.0;53.72258518571429;86.8367045
4.271419727688365;2.0493641235534783;4.271419727688365;-0.0010196798205363;0.06707438121892904;0.0622004690527174;4.56850930950867;1.5020830769552962;2.2562535700754904;4.56850930950867;3.75478285891096;-0.9554399918425616;0.00223774583212749;0.14071581523401644;0.023452635872336;0.0013203888691765218;0.0968695829509533;0.0;53.72258518571429;86.8367045
3.385163188240228;1.6082271125724596;4.271419727688365;-0.1060467013357805;0.0726281394046296;0.0622004690527174;4.0391489459738965;1.476112815501742;2.17890904408848;4.56850930950867;3.75478285891096;-0.9554399918425616;0.0021598885912940033;0.14071581523401644;0.0061180789232181;0.0008116679246589599;0.0795350260018354;90.0;53.722471514285715;86.83657619999998
-0.3175092284487066;1.478277009892467;4.271419727688365;-0.1315386968491893;0.05924734210929241;0.0326297542571632;2.7131074399261417;1.0636282802148418;1.1313051184727818;4.653402746019671;2.705524242910829;-0.9829713469970428;0.0025315981210602407;0.11828285918221682;0.0061180789232181;0.0006944364575788398;0.0795350260018354;90.0;53.7223513;86.83643404285714
3.07877851230349;1.64158904611388;4.834660156609945;-0.0810645457326399;0.0595698719856442;0.0326297542571632;4.367171300587108;1.01948391709144;1.039347457208106;6.178805296673729;3.465697856747587;-0.9829713469970428;0.0022680222726805493;0.11828285918221682;0.0061180789232181;0.0008672943857568439;0.0938105434893443;90.0;53.7222282;86.83628168571428
2.9162009787329435;1.8450342982045698;5.467235436307047;0.0326297542571632;0.05461545835623613;0.0326297542571632;4.49513905037891;1.3487906623382417;1.8192362508108328;6.7498142398282015;4.03670679990206;-0.9462628734577344;0.0031191294077696614;0.1549913327215252;0.0061180789232181;0.001023219292399044;0.0968695829509534;90.0;53.72208977142857;86.83609571428572
2.861839144794451;1.9909206596377809;5.467235436307047;-0.0219231161415315;0.05272569217510801;0.0326297542571632;4.653402746019671;1.453991993195716;2.114092716277251;6.7498142398282015;4.03670679990206;-0.9462628734577344;0.003077465262674985;0.1549913327215252;0.0061180789232181;0.001216686490209442;0.0989089425920261;90.0;53.72195814285714;86.83590922857142
4.834660156609945;1.114933018698316;5.467235436307047;-0.0764759865402263;0.04352392758654997;0.0326297542571632;6.178805296673729;1.0057081038462272;1.011448790141974;6.7498142398282015;2.3826429392410935;-0.9462628734577344;0.002246707460484156;0.1549913327215252;-0.0509839910268175;0.0003501440642905377;0.0418068726419905;90.0;53.72183075714286;86.83572698571427
5.467235436307047;1.05116013252709;5.467235436307047;-0.0601611094116447;0.04168307834647184;0.0326297542571632;6.7498142398282015;0.8864614987224404;0.7858139887172353;6.7498142398282015;2.2546751894492916;-0.9462628734577344;0.0021802998138908875;0.1549913327215252;-0.0509839910268175;0.0003027148937716638;0.0418068726419905;90.0;53.7216691;86.83548487142858
5.134518043670027;0.9877606084093572;5.729210908838506;-0.0887121443866625;0.035723633115692946;-0.0219231161415315;6.513989089484571;0.7711079649069518;0.5946074935429407;6.8842517826997796;2.230849036680109;-0.9462628734577344;0.00269601429434977;0.1549913327215252;-0.0550627103089629;0.00022696190269043295;0.0418068726419905;90.0;53.72151208571428;86.83523642857143
3.905835787338354;0.6113008346433852;5.729210908838506;-0.0254919955134087;0.03185814723444947;-0.0254919955134087;5.59099893132989;0.433175460006606;0.1876409791519347;6.8842517826997796;1.29325285136989;-0.9462628734577344;0.0011797661905121166;0.087692464566126;-0.0683185479759355;9.625085925615212e-05;0.02855103497501789;0.0;53.721359414285715;86.83497770000001
4.69716277681161;0.852923927595222;6.645256266021949;-0.0642398286937901;0.031995392270341406;-0.0254919955134087;6.131843205355573;0.5854507082685647;0.3427525318121641;7.435040753363895;1.8440418220340051;-0.9462628734577344;0.0009599339810999171;0.08259406546344439;-0.0683185479759355;0.00021829734488702343;0.0489446313857449;0.0;53.72121302857143;86.8347142857143
5.729210908838506;0.8649510995769378;6.645256266021949;-0.1244009381054349;0.031745272721694334;-0.0254919955134087;6.8842517826997796;0.5772464853459195;0.3332135048442168;7.435040753363895;1.8440418220340051;-0.9574793514836342;0.0005007124175192627;0.07137758743754463;-0.0683185479759355;0.00022587264399514642;0.0489446313857449;0.0;53.72108491428571;86.83446914285715
5.402385896812181;1.0492959807543816;6.930527318420631;-0.0448659121035994;0.03214514594390711;-0.0254919955134087;6.377701346558622;0.7216230596221574;0.5207398401784439;7.625133264650673;2.0341343333207833;-0.9574793514836342;0.00036717920382901007;0.05812174977057194;-0.0683185479759355;0.00033539265463023273;0.053023350667890295;0.0;53.72096081428572;86.83421704285715
6.645256266021949;1.0363677950591992;7.742882591550098;-0.0795350260018354;0.027105442072952516;-0.0448659121035994;7.435040753363895;0.7972045912982231;0.6355351603869669;8.337378875383788;2.2055356700282145;-0.9574793514836342;0.0004482794648689189;0.06423982869379019;-0.0836137452839808;0.000361200658944672;0.05557255021923119;0.0;53.720843457142855;86.83395340000001
5.689184008704218;0.8479546786981883;7.742882591550098;-0.0744366268991536;0.026968096450040575;-0.0448659121035994;6.453388770624575;0.6955369312258314;0.4837716226990469;8.337378875383788;1.959677528825166;-0.9574793514836342;0.0004096602929451522;0.06423982869379019;-0.095849903130417;0.0002587113180700661;0.04333639237279499;0.0;53.72077132857142;86.83374595714285
6.930527318420631;1.1313122248764285;7.742882591550098;-0.0448659121035994;0.016311842084907612;-0.0418068726419904;7.625133264650673;1.1289995210722745;1.274639918581425;8.337378875383788;3.449892636802442;-0.9952075048434792;0.00011258973968543235;0.02651167533394516;-0.078515346181299;0.000405315636103742;0.060670949321912984;0.0;53.720706542857144;86.83354220000001
7.742882591550098;1.08612185270446;7.742882591550098;-0.0632201488732537;0.02579608573605287;-0.0071377587437544;8.337378875383788;1.155692247443102;1.3356245708000882;8.337378875383788;3.449892636802442;-0.9952075048434792;0.00013714757208823725;0.02651167533394516;-0.078515346181299;0.0003730092134367465;0.060670949321912984;30.0;53.720643457142856;86.83334014285712
6.874676587894793;1.1030310458195274;7.742882591550098;-0.0744366268991536;0.03486776791272182;0.0173345569491179;7.404139564222101;1.1342673665062897;1.2865624587211137;8.337378875383788;3.449892636802442;-0.9952075048434792;0.00013298858434260166;0.02651167533394516;-0.078515346181299;0.00038459496501387565;0.060670949321912984;0.0;53.720580128571434;86.83313418571427
4.403784274595265;1.1560549571481902;7.742882591550098;-0.0418068726419904;0.03343243868819211;0.0173345569491179;4.887486238581346;1.1658897468233462;1.3592989017478063;8.337378875383788;3.449892636802442;-0.9911287855613338;0.00017086507988321536;0.030590394616090588;-0.078515346181299;0.0004047091170575035;0.060670949321912984;0.0;53.7205171;86.83292852857143
5.874751207116211;1.5027014385814914;9.138049729713238;-0.0071377587437544;0.03388257890232408;0.0173345569491179;6.104910899082175;1.4292421441532148;2.042733106623679;9.217757487841393;4.330271249260047;-0.9911287855613338;0.00017839086723246198;0.030590394616090588;-0.078515346181299;0.0006746967382117195;0.08157438564290818;0.0;53.72045257142857;86.83271405714287
6.8954948507766645;1.9014216850167192;10.027297874228426;0.0173345569491179;0.03139475408339585;0.0173345569491179;7.041266317428364;1.765761559172689;3.1179138838519656;10.089823362241649;5.202337123660303;-0.9850107066381156;0.00019265025378892528;0.035688793718772316;-0.078515346181299;0.0010462205988821663;0.0958499031304171;0.0;53.720389742857144;86.83251225714285
7.646566072683179;1.953301994508544;10.027297874228426;-0.0071377587437544;0.026089042705260655;0.0173345569491179;7.741874130017777;1.8181996284663582;3.3058498889552026;10.089823362241649;5.202337123660303;-0.9850107066381156;0.00018393618422664088;0.035688793718772316;-0.078515346181299;0.0011122197734647025;0.0958499031304171;0.0;53.72032718571429;86.83231438571428
9.138049729713238;1.7642725708938476;10.899331045168816;-0.0081574385642908;0.02570186543680988;0.0173345569491179;9.217757487841393;1.7130661883021787;2.9345957655041555;10.972679756386864;4.8677688573046884;-0.9788926277148976;0.00020324577018851847;0.041806872641990345;-0.1050270215152442;0.0008769398952829978;0.0836137452839808;0.0;53.720267485714295;86.8321266857143
10.027297874228426;1.4036043219325731;10.899331045168816;-0.0469052717446721;0.028837466984666514;0.0173345569491179;10.089823362241649;1.382755516554836;1.9120128185628316;10.972679756386864;3.9314134389585;-0.9676761496889976;0.00019294732434217395;0.03976751300091763;-0.1218517385540939;0.0005827286460983957;0.06678902824513111;0.0;53.72021324285714;86.83196272857143
8.599104362759531;1.7609014347060754;10.899331045168816;-0.0520036708473539;0.027166565440167767;0.0152951973080452;8.666063595669426;1.719049067538922;2.9551296966064378;10.972679756386864;5.265767372033217;-0.9676761496889976;0.0002588969871658338;0.048944631385744675;-0.0978892627714897;0.0009056072036725612;0.09075150402773531;0.0;53.72015891428571;86.83180600000001
10.899331045168816;3.607469251960746;10.899331045168816;-0.0387478331803813;0.043772771865240236;0.0713775874375446;10.972679756386864;3.2177807466433412;10.354112933468578;10.972679756386864;9.471602481466311;-0.9676761496889976;0.0005209132151409204;0.06627918833486279;-0.0050983991026817;0.003906836735617273;0.1835423676965433;0.0;53.720096142857145;86.83164814285715
7.888090264357972;4.127597290107055;10.899331045168816;0.0152951973080452;0.04410238015922939;0.0713775874375446;7.9728625766491055;3.7239439718984366;13.867758705838703;10.972679756386864;9.471602481466311;-0.9676761496889976;0.0009970678002574002;0.08769246456612634;-0.0050983991026817;0.005072467318970128;0.1835423676965433;0.0;53.720020271428574;86.83151010000002
5.499813724500689;4.43126140010241;10.899331045168816;0.0081574385642908;0.05313062601354971;0.0713775874375446;5.706912384353647;3.781025547262943;14.296154189055038;10.972679756386864;9.471602481466311;-0.9676761496889976;0.0009226021149069688;0.08769246456612634;0.0040787192821454;0.005882603473588838;0.1927194860813704;0.0;53.71992385714286;86.83138077142858
0.281850489616502;4.3161121514740515;10.899331045168816;0.0713775874375446;0.05593608933818313;0.0713775874375446;1.5010772749205525;3.67639517092157;13.51588145277544;10.972679756386864;9.471602481466311;-0.91669215866218;0.0022019859642788482;0.13867645559294395;0.0040787192821454;0.00554755740127074;0.1927194860813704;30.0;53.71980321428571;86.8312711
1.5493340492538583;3.0914893871674867;7.888090264357972;-0.0214132762312633;0.05902033374833362;0.0713775874375446;2.231494309464771;2.444216359037076;5.97419360978446;7.9728625766491055;6.471785301728553;-0.91669215866218;0.002508896979615297;0.13867645559294395;0.0040787192821454;0.0028418388021811403;0.1381666156826756;30.0;53.719655585714285;86.83118198571428
-0.228692451155283;2.124192254933335;5.499813724500689;-0.092790863668808;0.05803052886191366;0.0713775874375446;1.894622326182852;1.393710522712665;1.9424290211200095;5.706912384353647;4.205835109433094;-0.9156724788416436;0.003351017730468302;0.13969613541348036;0.0173345569491179;0.0014117782926079657;0.11522381972060759;30.0;53.7194846;86.83111705714286
0.9529364612701062;0.8881529970504025;1.5493340492538583;-0.0723972672580809;0.05588339817103901;0.0713775874375446;2.2828156201478498;0.3586049312135473;0.128597496690673;2.5403244277145682;1.0392471527940157;-0.9156724788416436;0.0033050708182307885;0.13969613541348036;0.0173345569491179;0.00023003163174076949;0.0458855919241357;30.0;53.71929194285714;86.83108165714285
0.5520528036048634;0.8899057599962771;1.5493340492538583;-0.0703579076170082;0.022577058214807745;-0.0214132762312633;2.337464352666123;0.20848861489938117;0.04346750254266247;2.5403244277145682;0.6457021015317161;-0.9156724788416436;0.0029040750830890334;0.13969613541348036;0.0173345569491179;0.0002311208904360551;0.0458855919241357;30.0;53.71908454285714;86.83108637142857
-1.0818759174034278;0.8998911483802968;1.1023245531046262;-0.0642398286937901;0.02479391050665729;-0.0142755174875089;2.5403244277145682;0.21495537373899726;0.04620581269927199;2.5403244277145682;0.6457021015317161;-0.9156724788416436;0.0021288694743577673;0.10502702151524435;0.0193739165901906;0.00022646678510165167;0.037728153359844904;30.0;53.71881027142857;86.83112661428571
1.1023245531046262;1.063821804517673;1.1023245531046262;-0.0693382277964719;0.022600073109864643;-0.0142755174875089;2.4282597580709475;0.23679729274369263;0.05607295785074206;2.8910188059598156;0.7463520124735807;-0.9156724788416436;0.0016760596835516197;0.10502702151524435;0.0242173957377383;0.0003176519725277384;0.0425716325073926;0.0;53.71852167142857;86.83118544285715
0.2317144447923668;0.9816254261072104;1.1023245531046262;-0.0469052717446721;0.02112578979621511;-0.0142755174875089;2.144666793486235;0.437631600556771;0.1915214178058812;3.4491573011277143;1.3044905076414794;-0.9156724788416436;0.0014285008891685147;0.10502702151524435;0.0242173957377383;0.00027371028652473724;0.0425716325073926;0.0;53.718213885714285;86.831258
-1.087295390225602;1.1993355895729105;1.1023245531046262;-0.0142755174875089;0.02338921597291775;-0.0142755174875089;2.415433010134683;0.9435023584546401;0.8901967004094683;4.877563548169075;2.73289675468284;-0.9156724788416436;0.002164097090798494;0.12542061792597148;0.0428265524625267;0.00044099814182912045;0.061180789232181;0.0;53.717848842857144;86.83133912857143
-1.427583398782138;1.2303296757762092;1.1023245531046262;-0.0316100744366268;0.03648321002708248;0.0285510349750178;2.8910188059598156;1.1288590246232713;1.2743226974734032;4.877563548169075;2.73289675468284;-0.9370857550729071;0.001715471043617432;0.10400734169470793;0.0428265524625267;0.0004691827105696374;0.061180789232181;60.0;53.71747448571428;86.83141825714286
0.3114310122746085;1.1202218114068456;0.4765038673547788;-0.040787192821454;0.044498164444542625;0.0285510349750178;3.4491573011277143;1.21767556581116;1.4827337835735284;4.984126838010577;2.8394600445243423;-0.9370857550729071;0.001557751335715959;0.10400734169470793;0.0428265524625267;0.00039602908682942966;0.0509839910268175;60.0;53.7170966;86.83149385714286
-2.3484093372075043;1.2284120352560712;0.9637118551801924;-0.0815743856429081;0.04451790995064433;0.0285510349750178;4.877563548169075;1.0883091123384059;1.184416723998809;4.984126838010577;2.568693827875894;-0.9370857550729071;0.0014815527388048293;0.10400734169470793;0.0428265524625267;0.000470742330974251;0.0591414295911083;60.0;53.716717342857145;86.83156442857141
0.3718745898616949;1.46076840594588;1.96804352463132;0.0285510349750178;0.04321311282297225;0.0285510349750178;4.746933624106158;0.887409706966072;0.7874959880176098;5.194319858976236;2.3033010530164204;-0.9370857550729071;0.0013345028149412614;0.10400734169470793;0.0428265524625267;0.0006695196649241664;0.0774956663607626;60.0;53.71638861428571;86.8316197
0.4765038673547788;1.3732551947804084;1.96804352463132;-0.1085959008871214;0.045662093818314486;0.0285510349750178;4.984126838010577;0.597732404310447;0.3572840271627477;5.194319858976236;1.7451625578485217;-0.9370857550729071;0.001406232975613773;0.10400734169470793;0.0428265524625267;0.0006074597696572526;0.0774956663607626;60.0;53.71606238571428;86.83166284285713
0.9637118551801924;1.3865043967655313;1.96804352463132;-0.0479249515652085;0.046230260237294256;0.0285510349750178;4.879981647615151;0.16354238167510868;0.026746110603966925;5.194319858976236;0.4473862348700779;-0.9421841541755888;0.0010354889251456424;0.09890894259202632;0.0428265524625267;0.000617560168468083;0.0774956663607626;60.0;53.7157491;86.83168235714287
1.96804352463132;0.692832634826574;1.96804352463132;-0.0305903946160905;0.050785129807669034;0.0285510349750178;5.194319858976236;0.15819179717537032;0.025024644693573503;5.194319858976236;0.4473862348700779;-0.9421841541755888;0.0005078916225563539;0.0662791883348629;0.0010196798205363;0.00014967404708401418;0.0356887937187722;60.0;53.71549191428572;86.83168117142858
1.393158262680657;0.7339926625776191;1.96804352463132;-0.0887121443866625;0.04465726993280832;-0.0305903946160905;5.157832610428014;0.124013505834823;0.015379349629443676;5.194319858976236;0.3143382113610853;-0.968695829509534;0.0002602338046555043;0.03976751300091763;0.0010196798205363;0.0001665080451020655;0.0356887937187722;60.0;53.71524318571429;86.8316482142857
-0.0596154256960038;1.5729781112637604;4.493323775045974;-0.078515346181299;0.058203471151618606;-0.0305903946160905;5.072112363266358;0.5940109243275224;0.35284897822043754;6.581769779858046;1.7017881322428954;-0.968695829509534;0.0004669949097242828;0.06525950851432638;0.0010196798205363;0.0008351643487308353;0.0836137452839807;60.0;53.715000442857146;86.83158832857143
0.4678747003232992;1.5680566024386444;4.493323775045974;-0.116243499541144;0.06404183053523528;-0.0305903946160905;5.072337502690191;0.5989903721841627;0.35878946596932176;6.581769779858046;1.746078640430115;-0.9768532680738248;0.0004947214946952056;0.06322014887325411;0.0010196798205363;0.0008289258671123814;0.0836137452839807;60.0;53.71477638571429;86.83149592857144
0.0574064894362262;1.5579909980637163;4.493323775045974;-0.1641684511063526;0.04913696085044769;-0.078515346181299;4.885282311571214;0.7252450554755374;0.5259803904917154;6.581769779858046;2.3985590126837373;-0.9523809523809524;0.0009413175597623221;0.08769246456612645;0.0010196798205363;0.0008251629734377582;0.0836137452839807;60.0;53.71459410000001;86.83136118571429
4.493323775045974;1.6868519583693797;4.493323775045974;-0.188640766799225;0.07475952357733932;0.0101967982053635;6.581769779858046;0.7408511565458089;0.5488604361552626;6.581769779858046;2.3985590126837373;-0.9523809523809524;0.0009413175597623221;0.08769246456612645;0.0010196798205363;0.000946813364997617;0.0836137452839807;60.0;53.714478;86.83120851428573
1.6526070673841209;1.6471007070194572;4.493323775045974;-0.205975323748343;0.09671740590276419;0.0356887937187723;4.835691139427931;0.7645140306641982;0.5844817030824185;6.581769779858046;2.3985590126837373;-0.9523809523809524;0.0008358575133551222;0.08769246456612645;-0.0010196798205363;0.0008951230887304262;0.0815743856429081;60.0;53.71442727142857;86.83106269999999
0.9079887934728044;1.7635517991381;4.65623221465976;-0.1560110125420618;0.10914680161738058;0.0356887937187723;4.183210767174309;0.7786479069599278;0.6062925630130764;6.581769779858046;2.3985590126837373;-0.9523809523809524;0.0008095667693916367;0.08769246456612645;-0.0010196798205363;0.0009985036412648131;0.0815743856429081;60.0;53.71444035714286;86.83091487142858
2.9698030168388634;1.5897337470817348;5.131802603116848;0.0101967982053635;0.10825861833445416;0.0356887937187723;4.701403469698028;0.7912273020914155;0.62604064357486;6.581769779858046;2.3985590126837373;-0.9523809523809524;0.0008116462632644554;0.08769246456612645;-0.0152951973080452;0.0008067941108945374;0.0754563067196901;0.0;53.71451678571429;86.83077918571429
3.2998003797883326;1.7226679558001574;5.342505961653848;0.0356887937187723;0.0956352924931102;0.0356887937187723;4.5431024976787;0.5054721362365385;0.25550208051152973;5.497340575508902;1.3141298083345934;-0.9523809523809524;0.0006837573900861394;0.08769246456612645;-0.0152951973080452;0.0009028469231151834;0.0774956663607628;0.0;53.714655685714284;86.83065111428571
4.65623221465976;1.5707401862104236;5.342505961653848;0.0224329560517997;0.06509466451391395;0.0356887937187723;5.363030242245656;0.5160968577709942;0.26635596660109384;5.497340575508902;1.3141298083345934;-0.9523809523809524;0.00044966579411746707;0.06322014887325367;-0.0152951973080452;0.0007716407620921376;0.0774956663607628;0.0;53.71483591428571;86.83053877142856
5.131802603116848;0.9746473458215321;5.382094939589148;-0.0050983991026817;0.016718070428686945;0.0356887937187723;5.435403952417747;0.42534961654333064;0.1809222962935584;5.497340575508902;0.954238077830202;-0.99214846538187;5.604731104833551e-05;0.023452635872336147;-0.0520036708473539;0.00029276303023745694;0.0428265524625268;0.0;53.715038685714276;86.83045262857142
5.342505961653848;0.711309420688354;5.382094939589148;-0.0142755174875089;0.018511371726187813;0.0356887937187723;5.497340575508902;0.40428245002927876;0.1634442994016763;5.497340575508902;0.954238077830202;-0.99214846538187;7.145784599868299e-05;0.023452635872336147;-0.058121749770572;0.00015309035844650863;0.03670847353930869;0.0;53.71524765714286;86.83036537142857
4.59176035911474;0.32489314622786847;5.382094939589148;0.0142755174875089;0.016304252003958627;0.0326297542571632;4.653991688635726;0.3238142715073395;0.10485568243182897;5.497340575508902;0.8433488868731764;-0.99214846538187;7.663182480128777e-05;0.023452635872336147;-0.0815743856429081;3.178654919878672e-05;0.013255837666972595;0.0;53.71546161428572;86.83026115714287
5.382094939589148;0.3195787175163482;5.382094939589148;0.0163148771285816;0.01735311261669269;0.0326297542571632;5.383164356002511;0.3774379747749154;0.14245942480218968;5.704767156017882;1.0507754673821559;-0.99214846538187;0.00010871544455334091;0.02549199551340897;-0.0815743856429081;3.307385492957904e-05;0.013255837666972595;0.0;53.715674785714285;86.83015250000001
4.802384987474368;0.3533932343982684;5.382094939589148;0.0326297542571632;0.018019381640691536;0.0326297542571632;4.871551487770989;0.3666097424438033;0.1344027032547118;5.704767156017882;1.0507754673821559;-0.99214846538187;0.00011544904376055902;0.02549199551340897;-0.0805547058223717;4.1490853938604626e-05;0.014275517487508993;0.0;53.71587747142856;86.83004798571427
4.796710702739897;0.3158808190370516;5.382094939589148;0.0193739165901906;0.013546326304075488;0.0326297542571632;5.051160824544112;0.34394725547192834;0.11829971454667194;5.704767156017882;1.0507754673821559;-0.9941878250229428;9.502544322395368e-05;0.023452635872336147;-0.0805547058223717;3.594553694442289e-05;0.014275517487508993;0.0;53.71607422857143;86.82995217142857
5.32359604033278;0.2881194582593104;5.382094939589148;-0.0091771183848271;0.013516138957373266;0.0326297542571632;5.704767156017882;0.2772018185252303;0.07684084819369472;5.704767156017882;0.8332156682468925;-0.9941878250229428;7.051712258002553e-05;0.023452635872336147;-0.0805547058223717;3.238069030530625e-05;0.014275517487508993;0.0;53.716270300000005;86.82986298571429
4.630268884583772;0.21548977650517656;5.32359604033278;0.0295707147955541;0.015172097579344188;0.0356887937187723;5.148476496860158;0.2737050602023006;0.07491445998034502;5.704767156017882;0.8332156682468925;-0.9941878250229428;0.00010292256876477515;0.023452635872336147;-0.0805547058223717;2.0596891692670196e-05;0.014275517487508993;0.0;53.71646751428572;86.82977860000001
4.878591271443385;0.30929378992703843;5.32359604033278;0.0168247170388498;0.014220351654999628;0.0356887937187723;5.270404440632133;0.4010713768024706;0.16085824929022938;5.704767156017882;1.3478661921099642;-0.9941878250229428;8.629899572195014e-05;0.023452635872336147;-0.07545630671969;3.6044560462175844e-05;0.019373916590190693;0.0;53.7166593;86.82971072857143
4.811174688553348;0.5271617661731864;5.32359604033278;0.0152951973080452;0.014215998796942096;0.0356887937187723;5.01208929243908;0.6358463602547781;0.40430059384924905;5.704767156017882;1.92756886228217;-0.9941878250229428;8.065465521001578e-05;0.023452635872336147;-0.0642398286937901;9.625085925614712e-05;0.030590394616090602;0.0;53.71684502857143;86.82965142857142
4.922133776969336;0.49317267487495403;4.922133776969336;0.0356887937187723;0.007345436626628111;0.0356887937187723;5.005342926493546;0.5950221785543383;0.3540513929715508;5.270404440632133;1.493206146896421;-0.9941878250229428;5.951313416969787e-05;0.023452635872336147;-0.0642398286937901;7.8921743649329e-05;0.023452635872336106;0.0;53.717033685714284;86.82960237142856
4.2996630310077;0.5795868040480134;4.922133776969336;0.0224329560517997;0.007370670079944177;0.0356887937187723;4.3569009639079175;0.6431792877326642;0.41367959616829725;5.270404440632133;1.5591411585014199;-0.9982665443050882;4.3471324293673334e-05;0.01937391659019072;-0.0627103089629856;0.00011054737963177058;0.0249821556031406;0.0;53.717250928571424;86.82954532857143
3.681365053646572;0.8797076580797433;4.922133776969336;0.0183542367696543;0.01905568785431669;0.0683185479759355;3.7771982937357116;0.88044631437233;0.7751857124918198;5.01208929243908;2.552374416220407;-0.9758335882532884;0.00017180580330187418;0.04180687264199057;-0.0397675130009177;0.00025871131807005896;0.0479249515652085;0.0;53.71747635714286;86.82949647142857
3.924290067552162;1.4274891821483338;4.922133776969336;0.023452635872336;0.020725926276371286;0.0683185479759355;4.028547512174766;1.3811875647985583;1.907679089154172;5.005342926493546;4.146508863530213;-0.9758335882532884;0.0001737862736569379;0.04180687264199057;-0.0112164780258998;0.0006490620250533412;0.0764759865402264;0.0;53.717717785714285;86.8294489857143
3.5868783723524262;2.2938560977461373;4.2996630310077;0.0142755174875089;0.02498884356972041;0.0683185479759355;3.7112632821307128;1.2750048037837587;1.6256372496716611;4.3569009639079175;3.4980669009445857;-0.9758335882532884;0.00014779260024671108;0.03670847353930873;0.0356887937187723;0.0016285779067889757;0.1111451004384623;0.0;53.71797831428571;86.82940597142859
2.3279544983408726;2.3761540262946887;3.924290067552162;0.0683185479759355;0.036705775874521784;0.0683185479759355;2.4597148762186727;1.3606503703922086;1.8513694304484545;4.028547512174766;3.200331119683666;-0.9758335882532884;0.0004799174787910904;0.07137758743754474;0.0356887937187723;0.0017483963632703974;0.1050270215152442;0.0;53.718257457142855;86.8293632857143
0.6457188510213405;2.3207771042058667;3.924290067552162;0.0040787192821454;0.03921019174445402;0.0683185479759355;0.8588340629633318;1.383994516180317;1.9154408208171898;4.028547512174766;3.3028068452647568;-0.9758335882532884;0.0004888295953888821;0.07137758743754474;0.0356887937187723;0.0016648452701660986;0.1050270215152442;0.0;53.71855758571428;86.82932695714285
-2.018480210801883;1.9387127049587785;3.5868783723524262;-0.0132558376669725;0.04158541467921936;0.0683185479759355;2.0631773057290994;1.1222639514242891;1.2594763766664594;3.7112632821307128;2.9855226152207033;-0.9656367900479248;0.0006979672648837304;0.08157438564290831;0.0356887937187723;0.0011484623809623767;0.0983991026817579;0.0;53.71889538571428;86.82931001428572
-0.7800430242822982;1.5226027668169277;2.3279544983408726;-0.0520036708473539;0.04177310653815019;0.0683185479759355;0.8282163924911004;0.6774515783109468;0.45894064095599285;2.4597148762186727;1.7339742093086632;-0.9656367900479248;0.0006995516411677825;0.08157438564290831;0.0356887937187723;0.0006976206825715816;0.07545630671969;0.0;53.71926807142857;86.82938281428572
-0.7040883098001267;1.0705869656584885;1.027271568325711;-0.0305903946160905;0.03673409147404413;0.0509839910268175;0.7257406669100094;0.4753250988593498;0.2259339496056507;2.0631773057290994;1.33743663881909;-0.9656367900479248;0.0006244423029519495;0.08157438564290831;0.0356887937187723;0.00034856278249140133;0.0530233506678902;0.0;53.71964988571428;86.829494
1.027271568325711;0.9759566221979008;1.027271568325711;-0.0458855919241358;0.036256546969813605;0.0509839910268175;1.0751920126579946;0.5273077372279855;0.27805344974049817;2.0631773057290994;1.33743663881909;-0.9656367900479248;0.0006207165430964855;0.08157438564290831;0.0356887937187723;0.00028822032636051945;0.0530233506678902;0.0;53.7200426;86.82964168571428
-1.3984166507196332;0.8476580227073766;1.027271568325711;0.0163148771285816;0.04222110096378205;0.0509839910268175;1.5405326662944447;0.4222950783405444;0.17833313319064656;1.958142378226631;1.2324017113166215;-0.9656367900479248;0.00067703616881864;0.08157438564290831;0.0270215152442133;0.00021684912593987005;0.044356072193331195;0.0;53.72045828571429;86.82980868571428
-0.6307000583970211;1.0191195302033837;1.027271568325711;0.0509839910268175;0.03907183690822058;0.0509839910268175;1.2224355811636498;0.5830991481191365;0.3400046165372627;2.466927072004408;1.7411864050943984;-0.9656367900479248;0.00037625223364316156;0.05200367084735413;0.0356887937187722;0.0003067872359392517;0.0530233506678901;0.0;53.720881899999995;86.8299763
-1.5217481189138715;1.0206395827944625;1.027271568325711;-0.0071377587437544;0.039204351198141765;0.0509839910268175;1.958142378226631;0.49370991989500423;0.2437494850027315;2.466927072004408;1.3917350593464133;-0.9656367900479248;0.0003896204085398497;0.05200367084735413;0.0356887937187722;0.00030765369171959254;0.0530233506678901;0.0;53.721339628571435;86.83013414285713
-0.2365026601070551;0.6417637721425079;-0.2365026601070551;0.0458855919241358;0.04513423788300838;0.0509839910268175;1.2915746611083052;0.4283271923967783;0.18346418374650675;2.466927072004408;1.244491490840758;-0.9783827878046294;0.0002466304489041672;0.039257673090649536;0.0356887937187722;0.00012250446940046842;0.0316100744366268;0.0;53.721779157142855;86.83027012857143
-2.087874622489782;0.6342162204821886;-0.2365026601070551;-0.0331395941674313;0.04671342555314319;0.0509839910268175;2.466927072004408;0.4215200266132266;0.17767913283601525;2.466927072004408;1.244491490840758;-0.9727745487916796;0.00033708843237175134;0.04486591210359936;0.0356887937187722;0.00011983083442113089;0.0316100744366268;0.0;53.722183799999996;86.83032368571428
-0.9882737827613975;0.7902326654334348;0.2836045724669236;-0.0316100744366268;0.03714707387979784;0.0458855919241358;1.8707286050155962;0.4345367319890992;0.18882217144776625;2.466927072004408;1.3056151943062433;-0.9727745487916796;0.000452351807036527;0.05710206995003564;0.0356887937187722;0.00018835510870637414;0.0407871928214539;0.0;53.7226117;86.83032004285714
-0.5915074011718165;1.2336011495534591;1.9069140372241125;-0.0723972672580809;0.03748706275844277;0.0458855919241358;1.7069690270230586;0.44800534708332007;0.2007087910152461;2.466927072004408;1.3056151943062433;-0.9727745487916796;0.0004077912240475666;0.05710206995003564;0.0356887937187722;0.00046085545162357825;0.06933822779647181;0.0;53.72304174285715;86.83027831428572
-0.7197907191904553;1.7935483092801277;3.080889853871418;-0.0479249515652085;0.017906717410645777;-0.0163148771285816;1.6852650414424009;0.634993043944443;0.4032161658578293;3.136071534825588;1.9747596571274235;-0.9656367900479248;0.0005320409829484482;0.06423982869379041;0.0356887937187722;0.0009428524242874855;0.08769246456612609;0.0;53.72345298571428;86.83021047142857
0.2836045724669236;1.5071349701087304;3.080889853871418;-0.0163148771285816;0.021541221046906783;-0.0163148771285816;1.1613118776981646;0.7412173435017866;0.5494031503078455;3.136071534825588;2.335086787814584;-0.9656367900479248;0.0007526777584423962;0.07137758743754485;0.0173345569491179;0.00066717095086246;0.0693382277964718;0.0;53.72385831428572;86.83015134285714
1.9069140372241125;1.4788735747163242;3.080889853871418;-0.0489446313857448;0.032049507791140706;0.0163148771285816;2.0861462464707765;0.7760430366964767;0.602242794805089;3.136071534825588;2.335086787814584;-0.9656367900479248;0.0008957172298369566;0.07137758743754485;0.0122361578464362;0.0006525649819938577;0.0642398286937901;0.0;53.724231028571424;86.83012542857144
3.080889853871418;1.2996748100541495;3.080889853871418;-0.0326297542571632;0.03497481257713626;0.0193739165901906;3.136071534825588;0.8112880924511237;0.658188368952983;3.136071534825588;2.335086787814584;-0.9605383909452432;0.00114050336572297;0.07647598654022647;0.0122361578464362;0.0005010589998313972;0.0642398286937901;0.0;53.72464778571428;86.8301655
0.7304753384184882;1.1041344124761272;3.080889853871418;-0.0744366268991536;0.04395056041522685;0.0520036708473539;0.8009847470110041;0.937009429978064;0.8779866718678165;3.136071534825588;2.335086787814584;-0.9574793514836342;0.0013180030212956585;0.07953502600183548;-0.0050983991026817;0.00034757254731387216;0.0469052717446722;0.0;53.725058171428564;86.83024674285716
2.376227628128966;0.8794912125391817;3.080889853871418;0.0163148771285816;0.04440669242961105;0.0520036708473539;2.380470899709157;0.8691114191136515;0.7553546588337453;3.136071534825588;2.335086787814584;-0.9574793514836342;0.0011311456432952871;0.07953502600183548;-0.0132558376669725;0.0002165644333263324;0.0387478331803814;0.0;53.72544668571429;86.83037560000001
1.2160409106272605;0.9048168448877973;3.080889853871418;0.0193739165901906;0.04082723201908669;0.0520036708473539;1.22706992677474;0.8959183363993498;0.8026696654965786;3.136071534825588;2.335086787814584;-0.9574793514836342;0.0014381185483303405;0.08361374528398091;-0.0132558376669725;0.00023874570130305895;0.0387478331803814;0.0;53.725827742857135;86.83053722857142
3.043537581585412;0.8255409201552938;3.043537581585412;0.0520036708473539;0.03885438250580062;0.0520036708473539;3.0442480847252615;0.8154862655112315;0.6650178492374548;3.0442480847252615;2.2432633377142572;-0.9574793514836342;0.0012649264157799176;0.08361374528398091;-0.0132558376669725;0.0002053252640613394;0.037728153359845;0.0;53.72620705714286;86.83073368571429
1.87784198907966;0.6180377667403567;3.043537581585412;0.0061180789232181;0.033975971777249196;0.0846334251045171;1.8972497903025165;0.6012249394417084;0.3614714278066859;3.0442480847252615;1.8171781579505215;-0.9574793514836342;0.0011336212312391166;0.08361374528398091;-0.020393596410727;0.0001205611328645639;0.030590394616090498;0.0;53.726586514285714;86.83095588571429
2.635550942853357;0.8242487188431049;3.62446375161887;-0.0091771183848271;0.03472262721057572;0.0846334251045171;2.6565428653768004;0.8497200602755789;0.7220241808347335;3.8227141086591296;2.5956441818843894;-0.9574793514836342;0.0008216971503164027;0.08361374528398091;-0.020393596410727;0.00020428551712493067;0.0418068726419904;0.0;53.72696447142857;86.83117658571427
2.4817903056990613;0.6581374440793496;3.62446375161887;-0.0071377587437544;0.034602642455646954;0.0846334251045171;2.570840307387907;0.6743597531309075;0.4547610766427785;3.8227141086591296;1.9254643183566131;-0.9574793514836342;0.0007741658617948451;0.08361374528398091;-0.0295707147955541;0.00012853252604370054;0.0326297542571633;0.0;53.7272999;86.83135109999999
1.7436752450802595;0.8302561225304917;3.62446375161887;0.0846334251045171;0.033281596891496366;0.0846334251045171;1.9637212522670775;0.8326328309844275;0.6932774312331423;3.8227141086591296;2.503330695921144;-0.9676761496889976;0.0009543886641057387;0.08259406546344428;-0.020393596410727;0.00020428551712493067;0.0418068726419904;0.0;53.72763711428571;86.83150545714285
3.62446375161887;0.8053253892269175;3.62446375161887;0.0448659121035994;0.03319109839918757;0.0846334251045171;3.8227141086591296;0.7948319396865174;0.6317578123458316;3.8227141086591296;2.503330695921144;-0.9635974304068522;0.001196897259083431;0.0866727847455897;-0.020393596410727;0.00019180855388802214;0.0418068726419904;0.0;53.72797608571428;86.83163962857142
2.889667393548126;0.9626433378303176;3.7896971108231496;0.0336494340776996;0.03179572654559132;0.0846334251045171;3.0837313429551867;0.9261727275697872;0.8577959212940592;3.8227141086591296;2.503330695921144;-0.954420312022025;0.0010874762719660983;0.09584990313041686;-0.020393596410727;0.00025567872283886327;0.042826552462526694;0.0;53.728312557142864;86.83175667142858
1.1122569466544094;1.0388177065567592;3.7896971108231496;0.0168247170388498;0.0440516912214569;0.0846334251045171;1.3193834127379858;1.0230202852130261;1.0465705039573414;3.8227141086591296;2.503330695921144;-0.954420312022025;0.001206700587341;0.09584990313041686;-0.020393596410727;0.00029578324752892654;0.042826552462526694;0.0;53.72870771428571;86.83185925714285
2.3631818819117494;1.33145411129477;3.7896971108231496;0.0071377587437544;0.037681044136868;0.0448659121035994;2.423653139686694;1.1627789753138973;1.3520549454320372;3.8227141086591296;2.7768692464815583;-0.954420312022025;0.001100634021887558;0.09584990313041686;-0.0035688793718771;0.0004996850485225724;0.05965126950137659;0.0;53.72910355714286;86.83195155714286
3.7896971108231496;1.3624532009754458;3.7896971108231496;0.0;0.0324484928206306;0.0336494340776996;3.7948375844939353;1.0405024029641752;1.0826452505742228;3.7948375844939353;2.7489927223163644;-0.954420312022025;0.0010635497144889686;0.09584990313041686;-0.003059039461609;0.00052696602766359;0.060161109411644695;0.0;53.72951707142857;86.83205421428572
1.5487340327790304;1.4669870135069554;3.7896971108231496;-0.058121749770572;0.02686531755040752;0.0168247170388498;1.5735260302234049;0.9579046202452245;0.9175812614871478;3.7948375844939353;2.7489927223163644;-0.954420312022025;0.0014725168428098576;0.09584990313041686;0.0081574385642908;0.0006088089650866437;0.07137758743754449;0.0;53.7299469;86.83216221428572
0.2066672470264199;2.183603593764538;3.7896971108231496;-0.040787192821454;0.023158397443509955;0.0071377587437544;1.045844862177571;1.0602012623299728;1.1240267166460678;3.7948375844939353;2.7489927223163644;-0.954420312022025;0.0010373084822843579;0.09584990313041686;0.0520036708473539;0.0013804249712993449;0.11522381972060759;0.0;53.73040208571428;86.832259
0.1760868126222842;2.118545631799694;3.7896971108231496;-0.0173345569491179;0.02418331854503549;0.0122361578464362;1.3552335155116362;1.0616695461950922;1.1271422253180932;3.7948375844939353;2.7489927223163644;-0.954420312022025;0.0009250158131521819;0.09584990313041686;0.0520036708473539;0.001305637459516207;0.11522381972060759;0.0;53.730862085714286;86.83235328571429
-0.4449992650250697;1.4646429630951627;1.5487340327790304;-0.0061180789232181;0.023411432479970223;0.0122361578464362;1.4695895056114918;0.7397686492810808;0.5472576544591546;3.2983988924048115;2.25255403022724;-0.9885795860099929;0.000517781596391976;0.06169062914244905;0.0520036708473539;0.000657280977026852;0.07953502600183529;0.0;53.7313308;86.8324453142857
-3.0091111067770124;1.129316336062058;0.2066672470264199;-0.0193739165901906;0.023693128162890154;0.0122361578464362;3.2983988924048115;0.7396123589197842;0.5470264414668876;3.2983988924048115;2.25255403022724;-0.9885795860099929;0.000638392241015428;0.06169062914244905;0.0520036708473539;0.0003834066828008224;0.055572550219231;0.0;53.73174441428571;86.83252978571429
-1.0301087084206997;1.0828682913790162;0.1760868126222842;0.0122361578464362;0.046695801320101635;0.0122361578464362;1.7243061463862444;0.6799251645760543;0.4622982294237746;3.2983988924048115;1.9431653768931754;-0.9890894259202612;0.0006307798080881496;0.062200469052717144;0.0520036708473539;0.0003603465811040367;0.0550627103089629;0.0;53.73216262857142;86.83260422857143
-1.5942633664198285;1.0142793441996396;-0.1713652130134456;-0.0071377587437544;0.04773085032710873;0.0122361578464362;2.124958223975123;0.7472549376695315;0.5583899418714955;3.2983988924048115;2.309408716563296;-0.9890894259202612;0.0004723421796829637;0.062200469052717144;0.0520036708473539;0.0003151918570085589;0.0489446313857449;0.0;53.73255862857143;86.83270034285714
-0.5602520232940293;0.9527229350690495;-0.1713652130134456;-0.0591414295911083;0.04946585816179303;0.0122361578464362;1.5766228609674988;0.7210638864770594;0.5199331283814016;3.2983988924048115;2.309408716563296;-0.9890894259202612;0.0003813271889280146;0.062200469052717144;0.0520036708473539;0.00027776096729783303;0.0489446313857449;0.0;53.73291822857142;86.83282954285714
-2.0408595630017814;0.7243750051816787;-0.1713652130134456;-0.1254206179259712;0.049049723621370014;0.0122361578464362;2.3485910992092127;0.45512214881371;0.2071361703408088;2.3485910992092127;1.3596009233676973;-0.99214846538187;0.0003467927371115737;0.05914142959110835;0.037728153359845;0.0001683399801805001;0.034669113898236;30.0;53.73324532857142;86.83303230000001
-0.1713652130134456;0.716096454155835;-0.1713652130134456;-0.0652595085143265;0.044685671478608656;0.0071377587437544;0.9889901758415154;0.4793986065152957;0.2298230239288073;2.3485910992092127;1.3596009233676973;-0.99214846538187;0.0004736666192329138;0.05914142959110835;0.037728153359845;0.0001647751335413834;0.034669113898236;30.0;53.73354427142857;86.83328004285715
-1.6585850092094458;0.7182104415331235;-0.1713652130134456;0.0071377587437544;0.05017099071703239;0.0244723156928724;1.8580539108741794;0.4550821383036459;0.20709975260301872;2.3485910992092127;1.3596009233676973;-0.99214846538187;0.0005008980866150528;0.05914142959110835;0.037728153359845;0.0001647751335413834;0.034669113898236;0.0;53.73380905714286;86.83357042857143
-2.0004718100074723;0.9012941363910361;-0.1713652130134456;-0.0285510349750178;0.06589222381593046;0.0805547058223717;2.1518935036869986;0.7201036093602771;0.5185492082136985;3.241919406857344;2.2529292310158286;-0.99214846538187;0.00039878008393201824;0.05914142959110835;0.0560823901294993;0.0002605803869676456;0.0530233506678903;0.0;53.73403862857143;86.83388777142856
-1.2322954181052748;1.014209933915622;-0.1713652130134456;-0.0224329560517997;0.04942029495687836;0.0805547058223717;1.4261309306688725;0.7718874745151856;0.5958102733134313;3.241919406857344;2.2529292310158286;-0.99214846538187;0.000138199696964361;0.02906087488528608;0.0560823901294993;0.0003235098324998309;0.0530233506678903;0.0;53.73423875714286;86.8342159
-1.626142128922708;1.6503339196176978;2.087015840840316;0.0244723156928724;0.040505199097086365;0.0805547058223717;1.7544753596102185;0.7084916283294661;0.5019603874129384;3.241919406857344;2.1979146518089427;-0.99214846538187;0.00013886810570919397;0.02906087488528608;0.0560823901294993;0.0008391376673806813;0.0922810237585397;0.0;53.734415985714286;86.8344809
-3.150837724222872;1.9943879381929939;2.087015840840316;0.0805547058223717;0.041192444555533406;0.0805547058223717;3.241919406857344;0.7125845526831138;0.5077767447225935;3.241919406857344;2.1979146518089427;-0.99214846538187;8.803190728262214e-05;0.023452635872336147;0.0560823901294993;0.0012243639073202322;0.0922810237585397;30.0;53.73458602857143;86.83465825714286
-0.345823000979377;2.023801576704561;2.087015840840316;0.0469052717446721;0.03999222858245716;0.0805547058223717;1.0440047550484015;0.7113337246070935;0.5059956677634003;3.241919406857344;2.1979146518089427;-0.9890894259202612;9.976619413637983e-05;0.02651167533394494;0.0560823901294993;0.0012638000232654608;0.0922810237585397;0.0;53.7347428;86.83471994285712
2.087015840840316;1.96715398096119;2.087015840840316;-0.0183542367696543;0.04454584461268224;0.0805547058223717;2.355889850137598;0.7240012106108575;0.5241777529659873;3.241919406857344;2.1979146518089427;-0.9890894259202612;9.123779366988256e-05;0.02651167533394494;0.0560823901294993;0.0011979493839595554;0.0922810237585397;0.0;53.734900942857145;86.8347062
1.980906296940549;1.8362117501527215;2.087015840840316;-0.0071377587437544;0.04840347539218358;0.0805547058223717;2.2399855618429156;0.7195894036694338;0.5178089098733313;3.241919406857344;2.1979146518089427;-0.9890894259202612;9.084169959886927e-05;0.02651167533394494;0.0560823901294993;0.0010487456985848582;0.0922810237585397;0.0;53.735083842857144;86.83457824285713
1.476054928147543;0.9687798310626398;2.3029618176406044;-0.020393596410727;0.038772063764095;0.0469052717446721;1.923495302679704;0.6436488173594112;0.4142838000881686;2.965519799919904;1.9215150448715026;-0.9890894259202612;5.938935477249433e-05;0.023452635872335925;0.0061180789232181;0.00028609132072882505;0.0463954318344039;0.0;53.73528678571428;86.8343789
0.4077410447656419;0.7316261907400352;2.3029618176406044;-0.0479249515652084;0.025379521914734342;-0.0071377587437544;1.3367353627030596;0.5492115503625397;0.30163332705162443;2.965519799919904;1.6287844372168445;-0.9890894259202612;3.290056377350126e-05;0.015805037218313167;-0.0071377587437544;0.00016236143529614933;0.0331395941674314;0.0;53.73551478571428;86.83413512857143
1.2193444060529768;0.7020983437165574;2.3029618176406044;-0.0479249515652085;0.023940188978600913;-0.0071377587437544;1.8566843670416546;0.6846971589701587;0.4688101995018068;3.2691147965367358;1.9323794338336762;-0.9890894259202612;3.5004813525757785e-05;0.015805037218313167;-0.0071377587437544;0.00015065190432182824;0.0331395941674314;0.0;53.73576081428571;86.83389109999999
2.3029618176406044;0.6546738206705744;2.3029618176406044;-0.0741817069440195;0.017531500981987285;-0.020393596410727;2.965519799919904;0.8456023169781566;0.7150432784788269;3.660237344094697;2.3235019813916375;-0.9890894259202612;0.0001760390586858162;0.040787192821454044;-0.0071377587437544;0.00013295145052343602;0.0331395941674314;0.0;53.7360268;86.83365971428573
0.6397720015686696;0.7289590138152662;2.3029618176406044;-0.0652595085143265;0.011654716469871146;-0.0397675130009177;2.7082895380481613;0.9654283268728162;0.9320518543284453;4.054776704822897;2.7180413421198377;-0.99214846538187;0.0001481391825588414;0.03772815335984525;-0.0071377587437544;0.0001664461554034704;0.0331395941674314;0.0;53.736321114285715;86.83345665714286
0.8230291742469442;0.6697557982506321;2.3029618176406044;-0.0560823901294993;0.011355627746154553;-0.0397675130009177;3.2691147965367358;0.7413833739974697;0.5496493072398719;4.054776704822897;2.198092337781243;-0.9880697460997246;0.00019459359032483235;0.04180687264199057;-0.0112164780258998;0.0001413932054119002;0.029060874885286005;0.0;53.73674198571428;86.83327044285714
1.643450380986784;0.8446928046152824;2.3029618176406044;-0.0397675130009177;0.012807394843344226;-0.0397675130009177;3.660237344094697;0.4652047715246466;0.21641547944929865;4.054776704822897;1.346487166774736;-0.9880697460997246;0.00020627836541971449;0.04180687264199057;0.0;0.0002235332133882143;0.0402773529111858;0.0;53.73717761428572;86.83315018571429
2.0735484452856707;0.8354302447552185;2.0735484452856707;-0.0520036708473539;0.013278229300612817;-0.0367084735393086;4.054776704822897;0.43855842876569656;0.19233349544143655;4.054776704822897;1.346487166774736;-0.9880697460997246;0.0002036047304403753;0.04180687264199057;0.0050983991026817;0.00022132994011820394;0.0418068726419903;0.0;53.737649471428576;86.83308444285714
0.7380472432448305;1.00151109773623;2.305525759649481;-0.0520036708473539;0.01237496950321066;-0.0367084735393086;3.704079263599475;0.2951519565730497;0.08711467746889943;4.054776704822897;0.8933684121894228;-0.9880697460997246;0.0002007082925460918;0.04180687264199057;0.0050983991026817;0.0003168133671117679;0.0458855919241357;0.0;53.73815032857143;86.8330806142857
-0.0;0.9975293513682383;2.305525759649481;-0.0744366268991535;0.023553752529322066;-0.0367084735393086;3.5659679593566698;0.4303219879472328;0.18517701331085837;4.054776704822897;1.3280148608885547;-0.9880697460997246;0.0001505776366835093;0.04180687264199057;0.0050983991026817;0.00031391692921748564;0.0458855919241357;0.0;53.738660828571426;86.83313397142858
-0.2883065476717399;0.9871468862252314;2.305525759649481;-0.0367084735393086;0.02214305643210044;-0.0367084735393086;3.1614082926334746;0.6358896482245705;0.4043556447191681;4.054776704822897;1.8319806294871284;-0.9880697460997246;9.747627528833987e-05;0.024982155603140765;0.0050983991026817;0.0003057474890028433;0.0458855919241357;0.0;53.739170528571435;86.83327064285713
2.305525759649481;1.0096494914866985;2.305525759649481;-0.0560823901294993;0.02183684385942125;-0.0367084735393086;3.6381509380393635;0.7207401894929358;0.5194664207503131;3.704079263599475;1.7947151499348406;-0.9880697460997246;0.00011634025542033067;0.030590394616090477;0.0142755174875089;0.0003193632226939135;0.0550627103089629;0.0;53.7396692;86.83349137142856
0.9804488303500472;1.0058447820968106;2.305525759649481;-0.1050270215152442;0.021931865800391446;-0.0367084735393086;2.7267618439343426;0.8324378114432193;0.6929527099203767;3.6381509380393635;2.1490228745016453;-0.979912307535434;0.00017674460124980943;0.03874783318038111;0.0142755174875089;0.0003174693979168828;0.0550627103089629;0.0;53.74006275714286;86.83382275714287
0.4099025443339104;1.4256354814623808;3.1888379330349728;-0.0540430304884266;0.03586800165398306;0.0142755174875089;2.222796075335769;0.7969705696215336;0.6351620888428717;3.6381509380393635;2.1490228745016453;-0.979912307535434;0.00038049786696681755;0.06322014887325367;0.0142755174875089;0.0006617741691449071;0.0723972672580809;0.0;53.74042857142857;86.8342288
-0.8010919036077124;1.4236192620681496;3.1888379330349728;-0.0683185479759355;0.052365630461427594;0.0489446313857448;1.9093641136646342;0.7636167978865186;0.5831106140144602;3.6381509380393635;2.1490228745016453;-0.979912307535434;0.0005040792171228713;0.06322014887325367;0.0142755174875089;0.0006484059942482201;0.0723972672580809;0.0;53.74074827142857;86.83469478571429
0.2381604842491614;1.344622335020539;3.1888379330349728;-0.0509839910268175;0.05879886987720693;0.0489446313857448;1.4891280635377182;0.7435973975353714;0.5529370896213771;3.3491678899825197;2.1661910543788983;-0.979912307535434;0.0004999202293772383;0.06322014887325367;0.0142755174875089;0.0005800797669984828;0.0723972672580809;0.0;53.741024485714284;86.83517945714286
3.1888379330349728;1.5040363456324641;3.1888379330349728;0.0142755174875089;0.04715897777963469;0.0489446313857448;3.3491678899825197;0.8448449346274853;0.71376296356572;3.3491678899825197;2.4660527200686215;-0.979912307535434;0.0005325979902358039;0.06322014887325367;0.0142755174875089;0.0007224879634673632;0.0723972672580809;0.0;53.74131127142857;86.83566372857145
2.380499957661092;1.4935296938237075;3.1888379330349728;0.0489446313857448;0.04339276656400133;0.0489446313857448;2.5080801699122874;0.9138740373452026;0.8351657561336207;3.3491678899825197;2.4660527200686215;-0.962577750586316;0.000794020077104374;0.08055470582237167;0.0142755174875089;0.0007126103675714773;0.0723972672580809;0.0;53.74168198571429;86.83613318571429
0.9930992914447746;1.3911985498915518;3.1888379330349728;0.037728153359845;0.03283848517110403;0.0489446313857448;1.1829768356036214;1.0670764290257613;1.1386521053823706;3.3491678899825197;3.0992674325910654;-0.962577750586316;0.0008004070939994587;0.08055470582237167;0.0127459977567043;0.0006197510637983741;0.0708677475272763;0.0;53.742062999999995;86.83655077142858
-0.7168476606599061;1.9349338200965207;3.1888379330349728;-0.0091771183848271;0.022166521943949614;0.0489446313857448;0.8831151699138983;1.1401381150414398;1.2999149213702477;3.3491678899825197;3.0992674325910654;-0.962577750586316;0.0007213863268323664;0.08055470582237167;0.0448659121035994;0.0011723022928614654;0.10298766187417141;0.0;53.74245274285714;86.83687468571428
0.8496589645941394;1.7327061148509093;2.380499957661092;0.003059039461609;0.025941784915282214;0.0489446313857448;0.905851594011479;0.8890278606270346;0.7903705369710822;2.5759229590735373;2.326022501682083;-0.962577750586316;0.00041856003160324726;0.05710206995003553;0.0448659121035994;0.0008975615428550932;0.0856531049250534;0.0;53.74285294285715;86.83713225714284
-0.171886479109461;1.3569560545384514;0.9930992914447746;-0.0020393596410727;0.0190696484238455;0.037728153359845;0.24990045739145408;0.7616698426546834;0.5801409492096102;2.5759229590735373;2.326022501682083;-0.962577750586316;0.0004965162959544752;0.06525950851432638;0.0448659121035994;0.0005564255241951736;0.0622004690527173;0.0;53.74328712857143;86.83733238571429
-2.5707317644174026;1.1498053741144993;0.8496589645941394;-0.0020393596410727;0.01109498132071471;0.0132558376669725;2.5759229590735373;0.7645165496100128;0.5844855546275992;2.5759229590735373;2.326022501682083;-0.962577750586316;0.0005405322495957953;0.06525950851432638;0.0448659121035994;0.0003946210961863767;0.0591414295911083;0.0;53.74373201428572;86.83748835714286
-1.917483301834925;1.1478139227552133;0.8496589645941394;-0.0229427959620678;0.01078726152921992;0.0132558376669725;1.9264003192194143;0.736657099057228;0.5426636815914105;2.5759229590735373;2.326022501682083;-0.962577750586316;0.0005085971651203769;0.06525950851432638;0.0448659121035994;0.00039395268744154215;0.0591414295911083;0.0;53.74417091428571;86.83760177142857
-1.4206169275363203;0.9333281509377223;0.0583744151106273;0.0132558376669725;0.015416511296253427;0.0132558376669725;1.4235509216843196;0.7920576599871209;0.6273553367442736;2.5759229590735373;2.326022501682083;-0.9850107066381156;0.00024754641644338175;0.04282655246252676;0.0448659121035994;0.00026425663506423285;0.0458855919241357;0.0;53.74452394285714;86.83767685714285
-1.5417450479916277;0.8361133979884415;0.0583744151106273;-0.0025491995513408;0.01586483615576639;0.0132558376669725;1.5539226359665903;0.6348392249060141;0.4030208414792687;2.5759229590735373;2.0299449514732264;-0.9850107066381156;0.00022328565459384692;0.04282655246252676;0.0448659121035994;0.00021251684703816365;0.0458855919241357;0.0;53.7448687;86.83773635714286
-1.4998481634216467;0.7432252856916963;0.0583744151106273;-0.0010196798205363;0.025515291835852084;0.0132558376669725;1.567873468518433;0.4428542657426446;0.19611990068645688;1.9264003192194143;1.3804223116191034;-0.9850107066381156;0.00023843625281008923;0.04282655246252676;0.0331395941674313;0.00016795626404920462;0.0341592739879676;0.0;53.74520437142858;86.8377940857143
0.0583744151106273;0.6367353764801446;0.0583744151106273;-0.0326297542571632;0.027166793254902993;0.0132558376669725;0.5459780076003109;0.3694617642707028;0.1365019952580204;1.567873468518433;1.0218954609181221;-0.9850107066381156;0.0002160693157375726;0.04282655246252676;0.0265116753339451;0.00012536377347559173;0.0275313551544814;0.0;53.74559314285714;86.83785005714286
-0.7662509245769108;0.5923136830285142;0.0583744151106273;0.0035688793718772;0.023676665980260667;0.0035688793718772;1.0993716120033443;0.3742764355589151;0.14008285021468672;1.567873468518433;1.0218954609181221;-0.9850107066381156;0.00014823820607660538;0.0326297542571633;0.0265116753339451;0.00010635125806696946;0.0275313551544814;0.0;53.74597147142857;86.8379029
-0.2306225825134324;0.5849802221422241;0.1715293017327041;-0.0601611094116447;0.022552098907205515;0.0035688793718772;1.1346704048540885;0.35491280766731903;0.1259631010462994;1.567873468518433;1.0218954609181221;-0.9911287855613338;0.00013219639620056615;0.030590394616090588;0.0265116753339451;0.0001063512580669693;0.0295707147955541;0.0;53.7463545;86.83796775714286
-0.8203150690546007;1.2152247253181607;0.1715293017327041;-0.0397675130009177;0.02032702648606359;0.0035688793718772;1.5044665646202262;0.9641989883086057;0.9296796890553388;3.555981543140864;3.010003535540553;-0.9911287855613338;0.0001268862600610507;0.030590394616090588;0.0601611094116446;0.00045763718729659506;0.0632201488732536;0.0;53.74673515714286;86.83806681428572
-0.7461604064484043;1.230320794564019;0.1773358003939481;-0.0193739165901906;0.020172989965463142;0.0035688793718772;1.4810613206214034;0.9115185175045574;0.8308660077537061;3.555981543140864;2.6313555221551015;-0.9880697460997246;0.00017352633692283332;0.033649434077699714;0.0601611094116446;0.00046872782128495817;0.0632201488732536;0.0;53.74712901428571;86.83820832857143
0.1715293017327041;1.2310029836393805;0.1773358003939481;-0.0132558376669725;0.020543267868686505;0.0050983991026817;1.116514686435911;0.9149033944348574;0.8370482211484243;3.555981543140864;2.6313555221551015;-0.9880697460997246;0.00013918993214188816;0.033649434077699714;0.0601611094116446;0.0004691734271148477;0.0632201488732536;0.0;53.747521171428566;86.83840665714285
-3.4181275706882555;1.2486549623527787;0.1773358003939481;-0.0249821556031405;0.013732367298515536;0.0050983991026817;3.555981543140864;0.9673739721559473;0.9358124020047757;3.555981543140864;2.9052502184600377;-0.9880697460997246;0.00015599917428049735;0.033649434077699714;0.0601611094116446;0.0004827767828661997;0.0632201488732536;0.0;53.74790591428571;86.83864877142858
0.1773358003939481;1.2515784007780233;0.1773358003939481;-0.023452635872336;0.01063937304222777;0.0050983991026817;0.9246260209857626;0.9998240445294108;0.999648120019149;3.555981543140864;2.9052502184600377;-0.9880697460997246;0.000127183330614299;0.033649434077699714;0.0601611094116446;0.00048512859141283926;0.0632201488732536;0.0;53.7482461;86.83894872857142
-0.6937507596924697;1.2855189116728807;0.1773358003939481;0.0050983991026817;0.01493114437281061;0.0122361578464362;1.0593172136924482;1.0439553136874598;1.0898426969762827;3.555981543140864;3.0108694590210847;-0.9880697460997246;0.00011765231703055393;0.033649434077699714;0.0601611094116446;0.0005118154294473378;0.0632201488732536;0.0;53.748590799999995;86.83929708571428
-0.0286741362138194;1.4697689338355422;0.1773358003939481;-0.0132558376669725;0.015251028334596172;0.0122361578464362;0.6507313246808261;1.21376315539147;1.473220997385858;3.555981543140864;3.0108694590210847;-0.9880697460997246;8.68807588887382e-05;0.030590394616090477;0.0601611094116446;0.0006701540343347728;0.0632201488732536;0.0;53.74893778571429;86.83967698571429
-0.5212295540963334;1.2218487383967038;0.1773358003939481;-0.0244723156928724;0.017480680703187586;0.0122361578464362;0.7950554578707663;0.9524422090672754;0.9071461616129515;2.8991763018036036;2.354064217683824;-0.9880697460997246;9.599092252203333e-05;0.030590394616090477;0.0499643112062812;0.00046653692595466915;0.0530233506678902;0.0;53.74928695714285;86.84007369999999
0.0580461253289173;1.2001851906984782;0.0580461253289173;0.0122361578464362;0.017372004728664264;0.0122361578464362;0.5451120841197794;0.9985696598546336;0.9971413655821987;2.8991763018036036;2.354064217683824;-0.9758335882532884;0.0001996685456096828;0.04282655246252676;0.0499643112062812;0.0004433654228004108;0.0509839910268175;0.0;53.7496335;86.84047875714286
-2.8306718323726616;1.2262195144774675;0.0580461253289173;-0.003059039461609;0.01615131819949092;0.0122361578464362;2.8991763018036036;1.0184512070792815;1.0372428612012456;2.8991763018036036;2.354064217683824;-0.9758335882532884;0.000200138907319014;0.04282655246252676;0.0499643112062812;0.00046267500876229304;0.0509839910268175;0.0;53.74997934285714;86.84086117142859
-2.385626380776801;1.065803074359612;0.0580461253289173;-0.0361986336290404;0.018036889688595636;0.0122361578464362;2.5047426412313585;0.9026401924238121;0.8147593169788965;2.8991763018036036;2.354064217683824;-0.9758335882532884;0.0002648631541104743;0.05353319057815853;0.0499643112062812;0.000349045522140447;0.0509839910268175;0.0;53.7503422;86.84124231428571
-2.153742853085566;0.9513706125641153;0.0580461253289173;-0.0224329560517997;0.021486851178913628;0.0275313551544814;2.3388646305235636;0.7643434393251995;0.584220893239475;2.8991763018036036;2.354064217683824;-0.9758335882532884;0.0002648631541104743;0.05353319057815853;0.0499643112062812;0.00027802090403193365;0.0509839910268175;0.0;53.750702971428574;86.8416030857143
-2.2171471153008597;0.49931285189454655;-1.3051348428259184;-0.0045885591924135;0.021372484868540577;0.0275313551544814;2.3953509248468854;0.3737855989578194;0.1397156739882558;2.8991763018036036;1.176032483601729;-0.9758335882532884;0.0002664227745150887;0.05353319057815853;0.0499643112062812;7.576536902093702e-05;0.026511675333945196;0.0;53.75105792857143;86.84194341428572
-1.3051348428259184;0.47613147555710383;-1.2123530398777036;0.0081574385642908;0.026976127483923012;0.0275313551544814;1.7231438182018746;0.30146604840558183;0.0908817783412766;2.63402399815698;0.9108801799551056;-0.9758335882532884;0.0002664227745150887;0.05353319057815853;0.0423167125522585;6.675422890539195e-05;0.020903436320995204;0.0;53.75143158571428;86.8422805
-1.6210883453138636;0.5099142504577958;-1.2123530398777036;0.0275313551544814;0.026296265940445204;0.0275313551544814;2.1447767609238686;0.4896466596215632;0.23975385127855495;3.284181925097533;1.5610381068956585;-0.9758335882532884;0.00025113601896193505;0.05353319057815853;0.0448659121035994;7.585201459897117e-05;0.023452635872336102;0.0;53.75180134285715;86.84261002857144
-2.152910208359242;0.575831465859162;-1.0710557098660962;-0.0214132762312633;0.03005461946199561;0.0275313551544814;2.63402399815698;0.4922133884153833;0.242274019735353;3.284181925097533;1.5610381068956585;-1.000815743856429;0.00017934396859081527;0.03415927398796792;0.0448659121035994;9.773621202243783e-05;0.0254919955134088;0.0;53.752173771428566;86.84293857142858
-1.2123530398777036;0.5452280087281108;-1.0710557098660962;-0.0520036708473539;0.035939021325217285;0.0275313551544814;2.1196359361379926;0.5173707320405954;0.26767247437222147;3.284181925097533;1.5610381068956585;-0.9758335882532884;0.00037221702529470084;0.05914142959110846;0.0448659121035994;8.956677180779536e-05;0.0254919955134088;0.0;53.75254648571429;86.84328202857144
-2.553934176291033;1.0274816714686228;0.667915626167722;-0.0305903946160905;0.03733768330640009;0.0275313551544814;3.284181925097533;0.40099890889792494;0.1608001249373263;3.284181925097533;1.1645459889595404;-0.9584990313041704;0.0006251354675762228;0.07647598654022647;0.0448659121035994;0.00031850914485329046;0.0560823901294992;0.0;53.752904214285714;86.84363975714284
-1.0710557098660962;1.2928596662774592;0.8210524568803308;-0.0520036708473539;0.02235114420035613;-0.0214132762312633;2.523644489110619;0.354185157762987;0.12544712597959198;3.284181925097533;1.1645459889595404;-0.9228102375853982;0.0014195021269927598;0.11216478025899868;0.0448659121035994;0.0004971475708801387;0.0581217497705719;0.0;53.7532541;86.84401524285714
-1.3727630377169286;2.227193834951203;4.201975922263277;-0.0744366268991536;0.01838927168561407;-0.0305903946160905;2.826659840758999;0.8888767839434945;0.7901019370337297;4.860127753188001;2.7404918170500085;-0.9228102375853982;0.0018080704106564775;0.11726317936168074;0.0448659121035994;0.0015895750187339076;0.1213418986438257;0.0;53.75359674285715;86.84440908571428
0.667915626167722;2.169907201081352;4.201975922263277;-0.0836137452839808;0.02427935339305925;-0.0152951973080452;2.6247322862847886;0.8355869271280487;0.698205512787295;4.860127753188001;2.362085630291103;-0.9228102375853982;0.00215504881686383;0.12032221882328953;0.0448659121035994;0.001509861086942548;0.1213418986438257;0.0;53.75391021428572;86.84480301428572
0.8210524568803308;1.9049860826672325;4.201975922263277;-0.0632201488732537;0.023000720501686528;-0.0152951973080452;2.8335646201576172;0.8401593220176258;0.7058676863731166;4.860127753188001;2.362085630291103;-0.9228102375853982;0.0028768807495260728;0.14479453451616187;0.023452635872336;0.0011890248894220435;0.09992862241256231;60.0;53.75422137142857;86.84520194285713
4.201975922263277;1.7976986152065568;4.201975922263277;-0.0418068726419904;0.022999375076251685;-0.0152951973080452;4.860127753188001;0.8508647523928979;0.7239708268646274;4.860127753188001;2.362085630291103;-0.9228102375853982;0.0027234809425865877;0.14479453451616187;0.023452635872336;0.0010500948940142451;0.09992862241256231;0.0;53.75452152857143;86.84560815714288
0.1120030270534697;1.3694238187386736;4.201975922263277;-0.0152951973080452;0.02119452312150171;-0.0152951973080452;2.4980421228968983;0.8289081774464405;0.6870887666375798;4.860127753188001;2.362085630291103;-0.9228102375853982;0.0027723738044772507;0.14479453451616187;-0.0020393596410727;0.0006334534430674794;0.0744366268991536;0.0;53.7548414;86.84603408571427
2.022388218385593;1.5498587467196587;4.201975922263277;-0.0418068726419904;0.016011230731065966;-0.0152951973080452;3.3732939196862333;0.7844609636525063;0.6153790034946188;4.860127753188001;2.362085630291103;-0.9228102375853982;0.002577173695106148;0.14479453451616187;0.0071377587437544;0.0007983276001266268;0.0836137452839807;0.0;53.7551633;86.84645838571429
2.4269588286739223;1.7368605809412876;4.201975922263277;-0.0545528703986947;0.01941571925391591;-0.0152951973080452;3.9067816071301564;0.8944657780615466;0.800069028123248;4.860127753188001;2.362085630291103;-0.9707351891506067;0.0009826475004845272;0.09686958295095327;0.0071377587437544;0.0010015238585562804;0.0836137452839807;0.0;53.75550368571428;86.84690117142857
1.681881436040531;1.4636912031618994;3.918897861096152;-0.0560823901294993;0.019504768064969254;-0.0152951973080452;3.472336898936405;0.7359816855526792;0.5416690414689627;4.843961343388992;2.345919220492094;-0.9707351891506067;0.001097341489922232;0.09686958295095327;0.0071377587437544;0.0007017301585583391;0.078515346181299;0.0;53.75586485714285;86.84737937142857
-0.3918243668347458;1.2783930847431846;3.918897861096152;-0.0351789538085041;0.0203178903327475;-0.0122361578464362;2.992779095170388;0.5940754940316897;0.35292569260899614;4.843961343388992;1.851182248218604;-0.9707351891506067;0.0012068615005573346;0.09686958295095327;0.0071377587437544;0.0005399752423084178;0.078515346181299;30.0;53.75622715714285;86.84787332857142
3.918897861096152;1.2991209032952586;3.918897861096152;-0.0774956663607627;0.02062264849165749;-0.0122361578464362;4.843961343388992;0.653383862277045;0.4269104714840686;4.843961343388992;1.9397534646792751;-0.8779443254817987;0.0030993494600984844;0.165188130926889;0.0071377587437544;0.0005669096391373;0.078515346181299;30.0;53.75657702857143;86.84837314285714
2.3378384258210194;1.4987435048783229;3.918897861096152;-0.0397675130009177;0.023012287913300334;-0.0122361578464362;3.557272228321557;0.7255579715436358;0.5264343700705153;4.843961343388992;2.238669147695455;-0.8779443254817987;0.003250892576080099;0.165188130926889;0.0071377587437544;0.0007331701254449939;0.078515346181299;0.0;53.756916257142855;86.84886962857142
2.072722945093127;1.9719998170061812;4.9124688667996494;-0.0122361578464362;0.02328286644724858;-0.0122361578464362;3.3715178817322586;1.137449271000145;1.2937908440987613;5.698692207867709;3.0934000121741723;-0.8779443254817987;0.0031873194776825147;0.165188130926889;0.0071377587437544;0.001217890244847115;0.0917711838482715;0.0;53.757229214285715;86.84934349999999
1.3960285226928812;1.693752609004776;4.9124688667996494;-0.0356887937187723;0.02323630199815714;-0.0122361578464362;2.904207878709717;1.1008425965259696;1.2118544223260388;5.698692207867709;3.0934000121741723;-0.8779443254817987;0.0029922926594675085;0.1611094116447438;0.0040787192821454;0.000902500340803039;0.0887121443866625;0.0;53.757528928571425;86.84981875714287
-0.2277960013246486;1.5391091675794373;4.9124688667996494;-0.0132558376669725;0.04613967353978359;-0.0122361578464362;2.605292195693537;0.9995064609459068;0.9990131654726114;5.698692207867709;3.0934000121741723;-0.8779443254817987;0.002552034099536606;0.15193229325991653;0.0040787192821454;0.0007132663983765922;0.0887121443866625;0.0;53.75780428571429;86.8503098857143
4.9124688667996494;1.6165048449748642;4.9124688667996494;-0.058121749770572;0.04697238432056216;-0.0122361578464362;5.698692207867709;1.0862946395488156;1.180036043912491;5.698692207867709;3.0934000121741723;-0.8779443254817987;0.0028544024109961245;0.15193229325991653;0.0040787192821454;0.0008050611993338476;0.0887121443866625;0.0;53.758023785714286;86.85079269999999
1.586927166952833;2.0185747906703737;4.9124688667996494;-0.037728153359845;0.043147755206256036;-0.0132558376669725;3.4728796835353664;1.076148847187736;1.1580963413034935;5.698692207867709;3.0934000121741723;-0.8779443254817987;0.003606188957778717;0.1825226878760069;0.020393596410727;0.0012652729980920407;0.1050270215152441;0.0;53.75819022857143;86.85127731428572
1.6486967773723211;2.343822184185069;4.9124688667996494;-0.1473437340675027;0.05128886205771354;0.0132558376669725;3.8328673383690366;1.2295846820909075;1.5118784904325981;5.902329851997802;3.297037656304265;-0.9737942286122158;0.001074355655863784;0.08667278474558981;0.020393596410727;0.0016603768339274773;0.1050270215152441;30.0;53.75830692857142;86.85175972857142
3.2776385106195347;2.4903312239275874;6.072569169670226;-0.0764759865402263;0.04806615052737276;0.0132558376669725;4.77687463294455;1.3673340368458615;1.8696023683172;7.039025534612292;3.5661458510769255;-0.9737942286122158;0.0010712859268134421;0.08667278474558981;0.020393596410727;0.0018849621721918315;0.1264402977465075;0.0;53.75837451428571;86.85220765714284
-1.099690766610959;2.8315339745642816;6.906513218900477;-0.0642398286937901;0.048018743681019056;0.0132558376669725;3.554980823274041;1.7661238654107494;3.1191935079734066;7.865152415780702;4.392272732245335;-0.9737942286122158;0.0010142483805875714;0.08667278474558981;0.020393596410727;0.002446425517852716;0.1407158152340164;30.0;53.75839538571428;86.85263812857144
4.847591871307526;2.859629809261807;6.906513218900477;0.0132558376669725;0.04783537467504782;0.0132558376669725;5.902329851997802;1.6869540444854199;2.845813948205716;7.865152415780702;4.310171592506661;-0.9676761496889976;0.0011259964203721245;0.09279086366880795;0.020393596410727;0.0024776179259449875;0.1407158152340164;0.0;53.75837515714286;86.8530348142857
6.072569169670226;2.874004560389763;7.089190291398098;-0.0723972672580809;0.03421467008373914;0.0132558376669725;7.039025534612292;1.671039029052438;2.792371436616514;8.116039416257255;4.561058592983214;-0.9676761496889976;0.0010885655306613967;0.09279086366880795;0.020393596410727;0.0025144546745491936;0.1437748546956255;0.0;53.75831141428571;86.8533697
6.906513218900477;2.803597942075351;7.089190291398098;-0.0662791883348628;0.034644648659603025;0.0132558376669725;7.865152415780702;1.5306956119635369;2.343029056484427;8.116039416257255;4.561058592983214;-0.9676761496889976;0.0009346829840728685;0.09279086366880795;0.020393596410727;0.0024168669978033726;0.1437748546956255;30.0;53.75822458571428;86.85368515714286
5.890904293319413;1.0172676899371675;7.089190291398098;-0.0397675130009177;0.037985313676764804;0.0132558376669725;6.970380739773902;0.9293408923672106;0.8636744942258833;8.116039416257255;2.3957855961645764;-0.9676761496889976;0.0001725979914439336;0.039767513000918076;-0.0795350260018354;0.0003158850216328294;0.0438462322830631;0.0;53.75813637142857;86.85396265714284
7.089190291398098;1.5548039677277243;7.089190291398098;-0.0892219842969307;0.018627688642101636;-0.0397675130009177;8.116039416257255;1.3568332595655446;1.8409964942632604;8.116039416257255;3.9535079518743474;-0.9676761496889976;0.00028895062480398004;0.054043030488426735;-0.0469052717446721;0.0007023242996648587;0.0764759865402264;0.0;53.75805295714286;86.85422301428572
5.001721723182965;1.547577632625844;7.089190291398098;-0.0805547058223717;0.027896921048073658;-0.0193739165901906;6.2803644065196025;1.3941985337568934;1.9437895515298715;8.116039416257255;3.9535079518743474;-0.9676761496889976;0.00035034520581098453;0.054043030488426735;-0.0469052717446721;0.0006892531953214308;0.0764759865402264;0.0;53.75796831428572;86.85449677142857
4.492916200584904;1.4410083428359517;7.089190291398098;-0.0978892627714897;0.027900914086771422;-0.0193739165901906;5.720253820092679;1.3724371699029667;1.8835837853312647;8.116039416257255;3.9535079518743474;-0.9676761496889976;0.0004914537186093442;0.06220046905271759;-0.0469052717446721;0.0005811195139348906;0.0764759865402264;0.0;53.7578774;86.85477888571428
2.621934847560929;1.5022147444985252;7.089190291398098;-0.0723972672580809;0.03913134989643199;0.0081574385642908;4.162531464382908;1.5308655760766863;2.3435494120166043;8.116039416257255;4.5825431637546306;-0.9870500662791885;0.00025879796364808907;0.04282655246252676;-0.0469052717446721;0.0006619227044215373;0.0764759865402264;0.0;53.757776185714285;86.85508361428572
4.710361843225912;0.926501588819423;5.001721723182965;-0.0193739165901906;0.037185540226091676;0.0081574385642908;5.5242069268091605;1.0311764376348356;1.06332484553327;6.2803644065196025;2.7468681540169784;-0.9870500662791885;0.00021928758006453238;0.04282655246252676;-0.0469052717446721;0.000253648740724919;0.0397675130009177;0.0;53.75766094285715;86.85541088571428
3.731302541188624;0.9953165914104813;4.710361843225912;-0.0652595085143265;0.03658958813684356;0.0081574385642908;4.518710009988288;1.0217629036727676;1.0439994313218055;5.720253820092679;2.8254670715407024;-1.0054043030488429;0.00015110988809141008;0.0336494340776996;-0.0356887937187723;0.0003056360875453719;0.0479249515652085;0.0;53.75754217142857;86.85571634285714
2.9028834779702506;0.9088590550497732;4.710361843225912;0.0081574385642908;0.03216978060290655;0.0081574385642908;3.533496252502624;0.8272985618710227;0.6844229104738623;5.5242069268091605;2.629420178257184;-0.9972468644845518;0.00021101911633212675;0.04180687264199068;-0.0356887937187723;0.00025280704082401704;0.0479249515652085;0.0;53.75740587142857;86.85605181428572
3.3459565329305185;1.2948448400685981;4.710361843225912;-0.0672988681553992;0.03414532029468583;0.0081574385642908;3.9463836609186904;1.182880411546897;1.3992060680213563;5.5242069268091605;3.6179466132118;-0.9972468644845518;0.00021101911633212675;0.04180687264199068;-0.0152951973080452;0.0005229431972548633;0.0683185479759356;0.0;53.757254957142855;86.85640192857143
1.9621630292463068;1.7921783952014658;3.910447363164296;-0.0744366268991536;0.03909384827570128;0.0112164780258999;2.8947867485519763;1.107753071895304;1.2271168682934823;4.518710009988288;2.63128472130821;-0.9972468644845518;0.00023730986029561461;0.04180687264199068;0.0178443968593861;0.0010081955680649082;0.08616294483532161;0.0;53.75709322857143;86.85675951428571
3.910447363164296;1.8568953060716056;3.910447363164296;-0.0662791883348628;0.03736750759468018;0.0112164780258999;4.441558758881447;1.1290354084709509;1.274720953581167;4.441558758881447;2.8700319042062468;-0.9972468644845518;0.0003232622737054254;0.046905271744672294;0.0178443968593861;0.0010748136396334016;0.08616294483532161;0.0;53.75692291428572;86.85713411428571
0.8576298560737747;1.8920203792123742;3.910447363164296;-0.0081574385642908;0.044454609927446986;0.040787192821454;1.9062603135973606;1.1953409455688724;1.428839976153486;4.441558758881447;2.953241692407817;-0.9972468644845518;0.00033945261885808274;0.046905271744672294;0.0178443968593861;0.0011216022517718095;0.08616294483532161;0.0;53.75676534285714;86.85750682857143
-1.0167429069193012;1.8555565357964257;3.910447363164296;0.0112164780258999;0.040734961482626855;0.040787192821454;1.887425288680078;1.1141357556035694;1.2412984819143364;4.441558758881447;2.953241692407817;-0.9972468644845518;0.0003655948275449474;0.046905271744672294;0.0178443968593861;0.0010605790089563735;0.08616294483532161;0.0;53.756625642857145;86.8578827857143
-0.1678229620257788;1.996858361800296;3.910447363164296;-0.0214132762312633;0.033156584475734364;0.040787192821454;1.5715268546752006;1.123520269073941;1.262297795019981;4.441558758881447;2.953241692407817;-0.9929132252472724;0.00031574576981099396;0.05123891098195166;0.0183542367696543;0.0012193384637942597;0.08667278474558981;30.0;53.756511814285716;86.85828095714285
-0.2329525418512114;1.445862989893657;3.143221803817747;0.040787192821454;0.02769720549142785;0.040787192821454;1.48831706647363;0.6586083576681868;0.43376496879038623;3.4549560974827984;1.9666390310091684;-0.9462628734577344;0.000894414451681519;0.09788926277148968;0.0183542367696543;0.0006406945378031886;0.0734169470786172;30.0;53.756433442857144;86.85869995714286
3.143221803817747;1.6416557934584184;3.143221803817747;-0.0265116753339451;0.02791089418425662;0.040787192821454;3.4549560974827984;0.7272867167038115;0.5289459682938102;3.4549560974827984;1.9666390310091684;-0.9462628734577344;0.0009334049617968739;0.09788926277148968;0.0331395941674314;0.0008123765617078734;0.0882023044763943;30.0;53.75639228571429;86.85917445714286
-1.058879882880227;1.6259421216731904;3.143221803817747;-0.0152951973080452;0.03147114908242057;0.040787192821454;1.8774101670921501;0.7151065786653347;0.5113774188504404;3.4549560974827984;1.9666390310091684;-0.9462628734577344;0.002170208698534848;0.14071581523401633;0.0331395941674314;0.0008020286041026596;0.0882023044763943;30.0;53.756381299999994;86.8596718142857
0.5550573454803237;1.7773642486788108;3.143221803817747;-0.0438462322830631;0.04678689863041987;0.040787192821454;2.1365642731882297;0.684263720807913;0.46821683961388955;3.4549560974827984;1.9666390310091684;-0.9462628734577344;0.002145230016181591;0.14071581523401633;0.0331395941674314;0.0009749236660998206;0.0882023044763943;30.0;53.75639865714286;86.86016825714286
-1.9548924041947109;1.8595948269067952;3.143221803817747;-0.0183542367696543;0.03396649827908427;-0.0152951973080452;2.9017551548010267;0.5594676141978195;0.3130040113362002;3.4549560974827984;1.5775459303906483;-0.9462628734577344;0.0025217050527396867;0.14071581523401633;0.0331395941674314;0.0010793439655706145;0.0882023044763943;30.0;53.7564254;86.86067042857142
-0.831768454272195;1.4506229168598563;1.838803906644819;-0.0601611094116447;0.03456613610472872;-0.0152951973080452;2.2236376224083267;0.4546209314818745;0.20668019134144724;2.910698571723804;1.0332884046316537;-0.9462628734577344;0.003250827591896512;0.14275517487508915;0.0331395941674314;0.0006708719548384912;0.066789028245131;30.0;53.7564589;86.86117569999999
1.838803906644819;1.471585918545976;1.838803906644819;-0.1121647802589986;0.03315509117132317;-0.0183542367696543;2.8942813721304685;0.38405627166169554;0.1474992198026821;2.910698571723804;0.8506430381021031;-0.9462628734577344;0.0030852262308788594;0.14275517487508915;0.0331395941674314;0.0006928551757797107;0.066789028245131;30.0;53.75648557142858;86.86169242857143
1.8176913768290703;1.5731411280309284;1.838803906644819;-0.0632201488732537;0.033382790009149885;-0.0183542367696543;2.910698571723804;0.3662866056488775;0.13416587747777628;2.910698571723804;0.8506430381021031;-0.9707351891506067;0.002259964233923334;0.11828285918221682;0.0331395941674314;0.000790888458355421;0.066789028245131;0.0;53.75650748571428;86.86219708571427
0.2145484600387157;1.7933149950834126;1.838803906644819;-0.0214132762312633;0.029936805898855126;-0.0214132762312633;2.060055533621701;0.5620350012356728;0.3158833426139828;3.7560417875426264;1.6959862539209256;-0.974813908432752;0.002175398149762068;0.11420413990007161;0.0509839910268175;0.001010968226562002;0.0846334251045171;0.0;53.75652244285714;86.8626435857143
-1.2111289743026667;1.807989503478259;1.838803906644819;-0.0254919955134087;0.03079767466545874;-0.0214132762312633;2.5087546773926808;0.5279824098578482;0.27876542511930075;3.7560417875426264;1.6959862539209256;-0.974813908432752;0.0018569385166676596;0.11420413990007161;0.0509839910268175;0.0010173676213968046;0.0846334251045171;0.0;53.7565371;86.8630715
-1.601137194809357;1.6229737939582187;1.8176913768290703;-0.0622004690527174;0.01744027272489772;-0.0214132762312633;2.9090000637902436;0.5270404035422085;0.277771586965934;3.7560417875426264;1.6959862539209256;-0.974813908432752;0.0032827781487965793;0.1458142143366984;0.0509839910268175;0.0008158547627689564;0.0846334251045171;60.0;53.756551457142855;86.86349179999999
-2.9886154705727423;1.415501570766312;0.7315851001239535;-0.058121749770572;0.02143494213743843;-0.0214132762312633;3.7560417875426264;0.5383385429399571;0.28980838681471605;3.7560417875426264;1.6959862539209256;-0.974813908432752;0.003158652169292895;0.1458142143366984;0.0509839910268175;0.0006049346699545497;0.06423982869379;60.0;53.756565699999996;86.86390467142857
0.4721884235069436;1.3876347462672853;0.7315851001239535;-0.037728153359845;0.01864628511986665;-0.0254919955134087;2.4936301954595854;0.4792773571058563;0.22970678503437447;3.7560417875426264;1.359712408652738;-0.951361272560416;0.00311854764460285;0.16926685020903431;0.0509839910268175;0.0005810204904171419;0.06423982869379;60.0;53.756582585714284;86.8643019
0.5731264622075325;1.3713840260343557;0.7315851001239535;-0.0382379932701131;0.045197818457417584;0.0591414295911083;2.6850244870574023;0.46800208801007637;0.2190259543817913;3.7560417875426264;1.359712408652738;-0.9319873559702252;0.003963416298073531;0.18864076679922515;0.0509839910268175;0.0005631962572215584;0.06423982869379;60.0;53.756604728571425;86.86467147142858
0.7315851001239535;1.5447543529489496;0.7315851001239535;-0.0805547058223717;0.04406152465871919;0.0591414295911083;2.3963293788898885;0.6281163106059633;0.39453009964924696;3.8801598116594516;1.483830432769563;-0.9319873559702252;0.003999361835017958;0.18864076679922515;0.0509839910268175;0.0007121771396813118;0.06423982869379;0.0;53.75662604285714;86.86502192857142
-0.184043785527888;1.1813310188247461;0.7315851001239535;-0.0428265524625267;0.04397294455944304;0.0591414295911083;2.4534600280188217;0.5290827661921363;0.27992857348152284;3.8801598116594516;1.483830432769563;-0.9319873559702252;0.00409527848990168;0.18864076679922515;0.0448659121035994;0.00041974831381626785;0.0581217497705719;0.0;53.756645985714286;86.86537832857142
-0.9383313075205328;1.2367104533838233;0.8649991240442466;0.0591414295911083;0.04417094914343431;0.0591414295911083;2.7879568785642057;0.542875586681398;0.2947139026146721;3.8801598116594516;1.483830432769563;-0.9319873559702252;0.004617949372482738;0.18864076679922515;0.0448659121035994;0.0004543570332710259;0.0591414295911083;0.0;53.756655214285715;86.8657496142857
-2.6269255123659634;1.2432627210720666;0.8649991240442466;-0.0448659121035994;0.04889858250940077;0.0591414295911083;3.8801598116594516;0.6100331842468545;0.37214048588235676;3.8801598116594516;1.483830432769563;-0.9319873559702252;0.00495601566209231;0.196798205363516;0.0448659121035994;0.00047695915119820467;0.0591414295911083;60.0;53.75665358571428;86.86612101428571
-0.7027804794285424;1.1480105017276965;0.8649991240442466;-0.0571020699500356;0.06453971461457876;0.0591414295911083;3.1636360964301455;0.6009454287126503;0.36113540829063107;4.062545659380507;1.609085631361685;-0.9319873559702252;0.004764108084686529;0.196798205363516;0.0448659121035994;0.00040120616011697576;0.0591414295911083;60.0;53.75664534285715;86.86649311428572
0.8649991240442466;3.0151340841012244;0.8649991240442466;-0.0224329560517997;0.06665685058438567;0.0591414295911083;3.408369418607432;2.2451113184521727;5.040524832242053;9.342659672981176;6.55470279441697;-0.9319873559702252;0.0054557626003134746;0.196798205363516;0.1651881309268889;0.003353344783135519;0.1794636484143978;60.0;53.75662705714285;86.86685882857144
-1.577840154059402;3.6015980154814664;3.007285164730502;0.0244723156928724;0.05144031921948141;0.0244723156928724;3.8217443407187743;2.1376153060166785;4.569399196516778;9.342659672981176;6.17902357655103;-0.945243193637198;0.00403064088868823;0.1835423676965432;0.1651881309268889;0.004636095432111019;0.21923116141531548;60.0;53.75659041428571;86.86719521428572
-1.8310453546063052;3.71970765981287;3.007285164730502;-0.1437748546956255;0.06229154471644453;0.0244723156928724;4.062545659380507;2.137031326473902;4.566902890330805;9.342659672981176;6.17902357655103;-0.945243193637198;0.0035353500087659446;0.1835423676965432;0.1651881309268889;0.004975944145040145;0.21923116141531548;60.0;53.756539014285714;86.86749490000001
-8.572838051655753;3.769091047547002;3.007285164730502;-0.0764759865402263;0.06430482641231478;0.0244723156928724;9.342659672981176;2.0401767288266375;4.162321084845758;9.342659672981176;5.934290254373744;-0.945243193637198;0.0035908031787077626;0.1835423676965432;0.1651881309268889;0.005064495925790982;0.21923116141531548;60.0;53.75648174285714;86.86775579999998
3.007285164730502;3.748291174320992;3.007285164730502;-0.0622004690527174;0.0626160865572182;0.0244723156928724;4.796437810407788;1.942819410620748;3.77454726228475;9.342659672981176;5.520915332262401;-1.0018354236769655;0.0023734823190877073;0.12695013765677565;0.1651881309268889;0.004954431285808254;0.21923116141531548;60.0;53.75643844285714;86.86793924285715
1.250579035844512;4.257081337334258;3.1881058292109823;-0.1498929336188437;0.052087505498938355;-0.0270215152442133;3.8900795190857376;1.8963380291495082;3.596097920798641;9.342659672981176;5.452580153895438;-1.0018354236769655;0.0009335813474378248;0.09126134393800345;0.1651881309268889;0.006307785702941815;0.22229020087692447;60.0;53.75640987142857;86.86805695714285
-2.8112786277136523;4.278321077282278;3.1881058292109823;-0.0270215152442133;0.0494259300460013;-0.0270215152442133;4.515736238300968;1.9574948627238902;3.8317861375904214;9.342659672981176;5.808021631175068;-1.0018354236769655;0.0008983784868765465;0.09126134393800345;0.1651881309268889;0.006358956105740803;0.22229020087692447;60.0;53.75638894285714;86.86810551428572
-4.158845956078743;2.961506924065064;3.1881058292109823;-0.040787192821454;0.056888260909187194;-0.0020393596410727;5.298908555494762;1.1110802346555395;1.2344992878422087;5.298908555494762;3.418935490457848;-0.9895992658305292;0.00015712556679494264;0.03721831344957682;0.0729071071683491;0.002769452610703516;0.1300091771183847;60.0;53.756372271428575;86.8680925
3.1881058292109823;2.6279820889049526;3.1881058292109823;-0.1396961354134801;0.06383323271000006;0.0101967982053635;4.323332893706432;1.5162760047062425;2.299092922447925;5.298908555494762;4.262869605817161;-0.9895992658305292;0.00011850639487118087;0.030080554705822382;0.0729071071683491;0.0021717466575449456;0.1300091771183847;60.0;53.756368771428576;86.86805242857143
-2.5746172145021577;2.6279820889049526;3.1881058292109823;-0.0397675130009177;0.06383323271000006;0.0101967982053635;3.534638041806108;1.5162760047062425;2.299092922447925;5.298908555494762;4.262869605817161;-0.9895992658305292;0.00011850639487118087;0.030080554705822382;0.0729071071683491;0.0021717466575449456;0.1300091771183847;60.0;53.756368771428576;86.86805242857143
0.5903516770829329;2.6279820889049526;3.1881058292109823;-0.0020393596410727;0.06383323271000006;0.0101967982053635;1.8799730650369144;1.5162760047062425;2.299092922447925;5.298908555494762;4.262869605817161;-0.9895992658305292;0.00011850639487118087;0.030080554705822382;0.0729071071683491;0.0021717466575449456;0.1300091771183847;60.0;53.756368771428576;86.86805242857143
0.2900878603467696;2.6279820889049526;3.1881058292109823;0.0101967982053635;0.06383323271000006;0.0101967982053635;1.0360389496776008;1.5162760047062425;2.299092922447925;5.298908555494762;4.262869605817161;-0.9895992658305292;0.00011850639487118087;0.030080554705822382;0.0729071071683491;0.0021717466575449456;0.1300091771183847;60.0;53.756368771428576;86.86805242857143
6.79944442154528;2.905831923946195;6.79944442154528;-0.1876210869786886;0.06752251710469376;0.0275313551544814;9.231071471122048;1.8399918835683375;3.3855701315973583;9.231071471122048;5.383691376338566;-0.921790557764862;0.0016108155632919953;0.12847965738757994;0.0163148771285816;0.00267749689652992;0.1396961354134801;30.0;53.72324354285714;86.83602068571429
-0.8874194271698296;2.905831923946195;6.79944442154528;-0.0795350260018354;0.06752251710469376;0.0275313551544814;5.488480364221237;1.8399918835683375;3.3855701315973583;9.231071471122048;5.383691376338566;-0.921790557764862;0.0016108155632919953;0.12847965738757994;0.0163148771285816;0.00267749689652992;0.1396961354134801;30.0;53.72324354285714;86.83602068571429
4.52741238468414;2.905831923946195;6.79944442154528;-0.0591414295911083;0.06752251710469376;0.0275313551544814;6.5758899436501155;1.8399918835683375;3.3855701315973583;9.231071471122048;5.383691376338566;-0.921790557764862;0.0016108155632919953;0.12847965738757994;0.0163148771285816;0.00267749689652992;0.1396961354134801;0.0;53.72324354285714;86.83602068571429
-0.7978107136543718;2.905831923946195;6.79944442154528;0.0275313551544814;0.06752251710469376;0.0275313551544814;4.3571706805729855;1.8399918835683375;3.3855701315973583;9.231071471122048;5.383691376338566;-0.921790557764862;0.0016108155632919953;0.12847965738757994;0.0163148771285816;0.00267749689652992;0.1396961354134801;0.0;53.72324354285714;86.83602068571429
1.8622039434736557;2.1882693991312614;4.52741238468414;-0.0499643112062812;0.049834825426114594;0.0275313551544814;4.360955527003948;1.0247203723683966;1.0500518415468256;6.5758899436501155;2.7285098488666337;-0.921790557764862;0.0016718140502279919;0.12847965738757994;0.0163148771285816;0.0014240076970505001;0.0968695829509533;0.0;53.72313427142857;86.83604672857143
4.451889124931976;1.8499939610848255;4.52741238468414;-0.1223615784643621;0.06243048661325346;0.0275313551544814;5.809982761023875;1.0129117341901475;1.0259901812600918;6.5758899436501155;2.7285098488666337;-0.921790557764862;0.0015778902436390466;0.12134189864382572;0.0142755174875089;0.0010035043289113568;0.0948302233098806;90.0;53.72301232857143;86.83606009999998
1.2706056152699017;1.723317686283809;4.451889124931976;-0.0428265524625267;0.07269925868290407;0.0275313551544814;3.8473800947834818;0.7262868857797521;0.5274926404556506;5.809982761023875;1.962602666240393;-0.921790557764862;0.0017640544570151472;0.12134189864382572;0.0142755174875089;0.0008230339678060734;0.0866727847455898;0.0;53.72288271428572;86.83605848571429
1.9187948650096456;1.2822432038501659;4.451889124931976;-0.1111451004384623;0.06294544457180944;0.023452635872336;4.104623520894582;0.8306370854886844;0.689957967789136;5.809982761023875;1.962602666240393;-0.921790557764862;0.0016478998706905964;0.12134189864382572;-0.0224329560517997;0.0004237711442250008;0.049964311206281205;0.0;53.72274511428571;86.83603791428571
2.268218360472125;1.817762115731113;6.569091073341641;-0.1611094116447435;0.06273270791659928;0.023452635872336;4.3440257682484535;1.3704437189375982;1.8781159867755146;7.81521029430337;3.967830199519888;-0.921790557764862;0.001905460040366785;0.12134189864382572;-0.0224329560517997;0.0008592641973640423;0.0871826246558581;60.0;53.722596028571424;86.83600585714285
3.85702239131046;1.77310070120593;6.569091073341641;0.023452635872336;0.06300991129019705;0.023452635872336;5.441454976756423;1.3691727202948356;1.87463393799956;7.81521029430337;3.967830199519888;-0.9503415927398796;0.0012677485860358992;0.09279086366880807;-0.0224329560517997;0.0008413161847712672;0.0871826246558581;0.0;53.72243017142857;86.83595702857143
4.120688668746962;1.5637399108350278;6.569091073341641;-0.0356887937187723;0.06167286946997777;0.023452635872336;5.757672460531969;1.2902433329720355;1.6647278582787868;7.81521029430337;3.710586773408788;-0.9503415927398796;0.0012618071749707054;0.09279086366880807;-0.0346691138982359;0.0006374515175967783;0.07494646680942191;0.0;53.722259314285715;86.83587759999999
6.569091073341641;1.2999629882132615;6.569091073341641;-0.0540430304884266;0.06306096613161315;0.023452635872336;7.81521029430337;1.096412583295947;1.202120552809692;7.81521029430337;3.471184526054916;-0.9493219129193432;0.0014549030345895365;0.09381054348934448;-0.0418068726419904;0.00042749690408046547;0.0678087080656674;0.0;53.72210222857143;86.83575342857141
3.6903118551695338;1.024364711856616;6.569091073341641;-0.1244009381054349;0.05454095695040818;0.023452635872336;5.789010244912459;0.8744711057374731;0.7646997147697189;7.81521029430337;2.373755317546947;-0.9493219129193432;0.0009381488071942451;0.08667278474559004;-0.0652595085143265;0.00027524824553485516;0.04435607219333129;30.0;53.72193604285714;86.83559090000001
4.830343612093337;0.992242207821699;6.569091073341641;-0.0805547058223717;0.03493231754798424;-0.0356887937187723;6.7262260937776235;0.7843097861305768;0.6151418406201911;7.81521029430337;2.0575378337714003;-0.9493219129193432;0.0008899367319881332;0.08667278474559004;-0.0672988681553992;0.0002507399248909276;0.04231671255225859;30.0;53.72177385714286;86.83540311428571
4.08145577127745;1.0319106585586375;6.569091073341641;-0.1244009381054349;0.027038687682137786;-0.0540430304884266;6.503133682078878;0.6866659213093717;0.47151008748764817;7.81521029430337;2.0262000493909103;-0.9493219129193432;0.000887584923441494;0.08667278474559004;-0.0672988681553992;0.0002776743217198095;0.04231671255225859;30.0;53.721612214285706;86.83519392857144
5.304678510317778;1.1145089369717918;6.906601311633196;-0.1111451004384623;0.02073786723851642;-0.0734169470786173;7.296446899829808;0.741098822031785;0.5492274640168994;8.063340975694873;2.274330730782413;-0.9472825532782706;0.0009250900807905336;0.08871214438666264;-0.0672988681553992;0.00032097235485741465;0.0479249515652085;30.0;53.72145442857143;86.83495568571428
5.376802378854344;0.9223236730369953;6.906601311633196;-0.0734169470786173;0.01846450572380463;-0.0734169470786173;7.287265980067024;0.5064763186182221;0.2565182613210668;8.063340975694873;1.5602072936159948;-0.9472825532782706;0.00044455370501348757;0.05098399102681761;-0.0683185479759355;0.00023987209381750945;0.0469052717446722;30.0;53.72130692857143;86.83469481428571
6.112406832220049;0.8744303872547845;6.906601311633196;-0.1019679820536351;0.029873892510871403;-0.0326297542571632;7.456129949743649;0.5193603195883967;0.2697351415629615;8.063340975694873;1.5602072936159948;-0.9472825532782706;0.000498793836862828;0.05812174977057227;-0.0683185479759355;0.0002194484932809031;0.0469052717446722;0.0;53.721166;86.83442588571428
6.906601311633196;0.731462524406084;7.095784182633091;-0.0866727847455898;0.02604915843946009;-0.0326297542571632;8.063340975694873;0.47761995520612605;0.22812082161110184;8.063340975694873;1.4109055012049279;-0.9472825532782706;0.0003230518487302584;0.05812174977057227;-0.092790863668808;0.00012891624217500102;0.029570714795554107;0.0;53.72103595714286;86.83416052857145
5.987761015511364;0.6827549817646056;7.095784182633091;-0.0836137452839808;0.022821353851671007;-0.0326297542571632;7.291046207822481;0.4740381016133796;0.2247121217812168;8.063340975694873;1.4109055012049279;-0.9472825532782706;0.0003815747477224259;0.05812174977057227;-0.0933007035790761;0.00012119240779024856;0.029060874885285998;0.0;53.720926485714294;86.83391574285714
5.442967933658915;0.5988030819569711;7.095784182633091;-0.0326297542571632;0.02337015644295111;-0.0326297542571632;6.652435474489945;0.47101489495164767;0.22185503126631168;8.063340975694873;1.4109055012049279;-0.9472825532782706;0.00047046073284567983;0.06322014887325389;-0.095849903130417;9.872644719998177e-05;0.026511675333945106;0.0;53.72082458571429;86.83367852857143
7.095784182633091;0.6781958336029004;7.095784182633091;-0.0632201488732537;0.01835828267222077;-0.0326297542571632;7.982130105096118;0.7225857779347992;0.522130206473639;8.063340975694873;2.0421092263513483;-0.9472825532782706;0.0005182890919204948;0.06322014887325389;-0.095849903130417;0.00012156374598182319;0.026511675333945106;0.0;53.72073492857144;86.83345355714286
6.642280809138731;0.6337925637417494;7.095784182633091;-0.0560823901294993;0.022189125900062893;-0.014785357397777;7.492841026175609;0.6626535987391079;0.43910979192189065;7.982130105096118;1.9608983557525939;-0.979912307535434;0.00018081694341744224;0.030590394616090477;-0.095849903130417;0.00011755329351281683;0.026511675333945106;0.0;53.720642500000004;86.83318192857143
6.8365299002792925;1.025326233021205;8.480870473288974;-0.0571020699500356;0.022889321844316128;-0.0071377587437544;7.344873918508795;0.9099011188266929;0.8279200460420676;8.687279522491778;2.6660477731482537;-0.9778729478943612;0.00022587264399516788;0.0326297542571633;-0.095849903130417;0.00028705680002692925;0.0499643112062812;0.0;53.720559085714285;86.83292297142857
5.56404127284563;1.365346759949321;9.58736214477698;-0.0571020699500356;0.02686024892681387;-0.0040787192821454;6.021231749343524;1.2542389911126905;1.57311544682738;9.742813950019825;3.7215822006763;-0.9778729478943612;0.00022067390931312329;0.0326297542571633;-0.0983991026817579;0.0005279067510822537;0.0678087080656674;0.0;53.7204827;86.8326747
6.352561786874936;1.7041465652043266;9.94608033689031;-0.014785357397777;0.024501886750182163;-0.0040787192821454;6.593577425503951;1.5582829494936397;2.428245750682597;10.11654726903824;4.095315519694715;-0.9778729478943612;0.00019839361781864224;0.0326297542571633;-0.0983991026817579;0.0008690427697421732;0.0769858264504945;0.0;53.72040930000001;86.83243307142857
8.480870473288974;1.6952034325768233;9.94608033689031;-0.0071377587437544;0.022560878954317937;-0.0040787192821454;8.687279522491778;1.5869703469566458;2.518474882119697;10.11654726903824;4.095315519694715;-0.9778729478943612;0.00019611607691031785;0.0326297542571633;-0.0983991026817579;0.0008595117561584234;0.0769858264504945;0.0;53.72033831428572;86.83220482857143
9.58736214477698;1.6686902219675461;9.94608033689031;-0.0040787192821454;0.03346592840082122;-0.0040787192821454;9.742813950019825;1.586604215971838;2.5173129381396113;10.11654726903824;4.095315519694715;-0.9778729478943612;0.00015066428226157938;0.030590394616090477;-0.0983991026817579;0.0008386177939124893;0.0769858264504945;0.0;53.72026711428572;86.831991
9.94608033689031;1.9698154648963182;9.94608033689031;-0.0418068726419904;0.03893346729932332;0.0265116753339451;10.11654726903824;1.8938059707456598;3.586501054831911;10.11654726903824;5.277995028406438;-0.9778729478943612;0.00017759867909046147;0.034669113898235904;-0.078515346181299;0.0011644670570192539;0.0968695829509534;0.0;53.720192485714286;86.83178105714285
8.85049783347913;2.4570962254057442;9.94608033689031;-0.0254919955134087;0.03946443826057831;0.0265116753339451;9.075109729616644;2.3154950784451636;5.361517458303774;10.11654726903824;5.731935154726101;-0.9778729478943612;0.00016175491624994287;0.034669113898235904;-0.066789028245131;0.0018024632039636763;0.1085959008871214;0.0;53.72012374285714;86.83163185714285
7.105852315649455;3.929640492830271;9.94608033689031;-0.0978892627714897;0.03928714256878183;0.0265116753339451;7.348838036081364;2.9776432065246126;8.866359065362177;10.11654726903824;7.606601276706899;-0.962577750586316;0.00027686975563808624;0.04996431120628109;0.0152951973080452;0.004669540625232179;0.1906801264402976;0.0;53.720035442857146;86.83149601428572
4.432489242913199;4.254638424089431;9.94608033689031;0.0265116753339451;0.03871587514483989;0.0265116753339451;4.838552240631802;3.0767406824608345;9.466333227109562;10.11654726903824;7.67658573481765;-0.9350463954318344;0.0007450529475754164;0.07749566636076266;0.0152951973080452;0.0055188405811223;0.1906801264402976;0.0;53.71992001428572;86.83138424285714
3.819840031900269;3.707349034165855;8.85049783347913;-0.0050983991026817;0.04663426312162241;0.0265116753339451;4.384612114312138;2.569877921115674;6.604272529437819;9.075109729616644;6.635148195396054;-0.9350463954318344;0.0007206931622081193;0.07749566636076266;0.0152951973080452;0.004152910177234075;0.1682471703884979;0.0;53.71975932857142;86.83129670000001
-0.9102925491047916;3.0369326055335075;7.105852315649455;-0.0101967982053635;0.061567209097671216;0.0265116753339451;2.5099459923313403;1.7871817246780883;3.1940185170233466;7.348838036081364;4.9088765018607745;-0.9350463954318344;0.0026110521161175158;0.1641684511063526;0.0152951973080452;0.0028591679177879625;0.1407158152340164;60.0;53.719571442857145;86.83124047142857
-0.3748475817663645;2.4662969297061244;4.432489242913199;-0.0132558376669725;0.05754257890147889;0.0265116753339451;2.4399615342205894;0.949422697007072;0.9014034575921824;4.838552240631802;2.398590706411212;-0.9100642398286938;0.0037787003036446015;0.18915060670949324;0.0336494340776996;0.0018203121930386965;0.1121647802589986;60.0;53.71935621428571;86.8312081
1.1712400561812149;2.207549256099977;3.819840031900269;-0.092790863668808;0.05767493396933303;-0.0050983991026817;2.8331613852521946;0.8184829624674179;0.6699143598494407;4.384612114312138;1.9446505800915488;-0.9100642398286938;0.003684751741176214;0.18915060670949324;0.0499643112062812;0.0014553610183591227;0.1167533394514122;60.0;53.719115699999996;86.8312053
-0.3163892781586764;1.345940955908311;1.1712400561812149;-0.1386764555929438;0.05801986285765834;-0.003059039461609;2.9243712950231555;0.6844216599238281;0.4684330085728882;4.2658496356721285;1.8258881014515391;-0.9100642398286938;0.004013980181826302;0.18915060670949324;0.0499643112062812;0.0005405693834149501;0.07035790761700819;60.0;53.718856942857144;86.83122448571429
-2.1143535020120976;1.507554695009363;1.1712400561812149;-0.0499643112062812;0.053568671077143755;-0.003059039461609;3.7328541268390456;0.6250926383279577;0.390740806491807;4.2658496356721285;1.8258881014515391;-0.9100642398286938;0.004975052933380377;0.18915060670949324;0.0499643112062812;0.0006884610071794173;0.07035790761700819;60.0;53.71857775714285;86.83127078571428
-2.844034502380256;1.5126167233617966;1.1712400561812149;-0.130519017028653;0.050758190323374086;-0.003059039461609;4.2658496356721285;0.5534365245902145;0.3062919867504951;4.2658496356721285;1.4345913170480684;-0.9100642398286938;0.003972068477937215;0.18915060670949324;0.0499643112062812;0.0006917875784789406;0.07035790761700819;60.0;53.71829217142857;86.83132897142858
-1.8075430282703904;1.4985780222465395;1.1051485450080922;-0.003059039461609;0.0541122703081575;-0.003059039461609;3.558962129608469;0.5299576132017849;0.28085507179053265;4.2658496356721285;1.4345913170480684;-0.9100642398286938;0.00456786822837904;0.18915060670949324;0.0499643112062812;0.0006695320428638994;0.0683185479759355;60.0;53.718008728571434;86.83139295714285
0.754293488438423;1.4847051648886103;1.1051485450080922;-0.0550627103089629;0.043656821049366155;-0.003059039461609;3.03063524683758;0.51417581032834;0.26437676392680515;4.2658496356721285;1.4345913170480684;-0.9100642398286938;0.003100042624722736;0.1728357295809113;0.0499643112062812;0.000659221219077843;0.0683185479759355;60.0;53.71770717142857;86.83145345714286
-0.2747672119262189;1.3784126891217081;1.1051485450080922;-0.0316100744366268;0.04449927710032279;-0.003059039461609;2.83125831862406;0.49494700557660154;0.24497253832924445;4.2658496356721285;1.4345913170480684;-0.951361272560416;0.0016683977388655014;0.13153869684918906;0.0499643112062812;0.000590375118359901;0.0683185479759355;0.0;53.71739148571429;86.83151445714286
1.1051485450080922;1.0205407037594079;1.1051485450080922;-0.0127459977567043;0.029956026035167012;-0.003059039461609;3.026318926817682;0.29621924431090046;0.08774584070012093;3.558962129608469;0.727703810984409;-0.951361272560416;0.001626065185025988;0.13153869684918906;0.0326297542571632;0.0003282722448067871;0.0509839910268175;0.0;53.71706558571429;86.83157621428572
-0.765205352539363;0.7551045626442185;1.1051485450080922;-0.0820842255531763;0.02446852194710225;-0.0127459977567043;3.063834429121976;0.2822085600148353;0.07964167134564688;3.530422710574293;0.6991643919502328;-0.951361272560416;0.001561217158837335;0.13153869684918906;0.0152951973080452;0.0001747610364098232;0.033649434077699505;30.0;53.71674652857143;86.83163750000001
-0.8561778618239785;0.9135342067688579;1.4917266833228873;-0.07545630671969;0.02443815077925345;-0.0127459977567043;3.530422710574293;0.29381501395856613;0.08632726242747242;3.532478081780447;0.701219763156387;-0.951361272560416;0.0006764172718326918;0.06933822779647192;0.0152951973080452;0.00024651595296176586;0.040787192821453905;0.0;53.716445314285714;86.83168371428572
0.3445547707982833;1.0776036599182353;1.7369382691743034;-0.0387478331803813;0.023233371972502075;-0.0127459977567043;3.4776831846393983;0.22075764079522267;0.048733935969472564;3.532478081780447;0.5061591549627651;-0.951361272560416;0.0009442511314757727;0.08973182420719905;0.0152951973080452;0.0003593563459265148;0.046905271744672;0.0;53.71615211428571;86.83171234285714
-0.3437658682058327;1.1089321886617853;1.7369382691743034;-0.0560823901294993;0.030877751905658144;0.0122361578464362;3.480058707316493;0.17713477028173577;0.031376726842763304;3.532478081780447;0.46864365265847097;-0.9778729478943612;0.0005281047981177618;0.06322014887325389;0.0152951973080452;0.00038846926014596793;0.046905271744672;0.0;53.71587902857142;86.83172085714286
1.4917266833228873;1.3116624449007581;2.935900515861595;-0.0448659121035994;0.027445799306067126;0.0122361578464362;3.532478081780447;0.3073746446326844;0.09447917216306902;4.217895942172844;0.9817693787360544;-0.9778729478943612;0.0004098707179203882;0.06322014887325389;0.0152951973080452;0.0005437381359830528;0.0672988681553991;0.0;53.71560497142857;86.83169548571429
1.7369382691743034;1.0431080507818542;2.935900515861595;-0.0520036708473539;0.024393284284393378;0.0122361578464362;3.440171676055521;0.3403388884657909;0.11583055900213006;4.217895942172844;1.041888486656008;-0.9778729478943612;0.0004240805927179806;0.06322014887325389;0.0061180789232181;0.00034341355956824454;0.058121749770571995;0.0;53.715357014285715;86.83165232857142
1.354430032024563;1.0734743349138314;2.935900515861595;0.0122361578464362;0.031980687971248596;0.0122361578464362;3.2361265634367897;0.37708947479930244;0.14219647200441374;4.217895942172844;1.041888486656008;-0.9778729478943612;0.00045193095708608304;0.06322014887325389;0.0061180789232181;0.00036079218693393916;0.058121749770571995;0.0;53.715129171428565;86.83159271428573
2.935900515861595;0.8305506568112513;2.935900515861595;-0.0295707147955541;0.03761051649612204;0.0122361578464362;4.217895942172844;0.4945648590339186;0.24459439979123979;4.217895942172844;1.4805350881956278;-0.9778729478943612;0.00045694402267234353;0.06322014887325389;-0.0101967982053635;0.00021582175694319266;0.0418068726419904;0.0;53.71490824285714;86.83151807142859
1.1009880572500437;1.2833589308548952;4.318505021318569;-0.058121749770572;0.040385230581919174;0.0122361578464362;3.176007455516836;0.7589956467002821;0.5760743917099794;4.983801699534715;2.246440845557499;-1.0013255837666972;0.0002489946353905303;0.03976751300091785;-0.0101967982053635;0.0005128923102029199;0.0662791883348628;0.0;53.71470384285714;86.83143070000001
2.612556930916313;1.3542154776347428;4.318505021318569;-0.092790863668808;0.04360220771181778;0.0122361578464362;3.944910456527334;0.7585919029795721;0.5754616752661686;4.983801699534715;2.246440845557499;-1.0013255837666972;0.0003617329103525952;0.05098399102681772;-0.0101967982053635;0.000590130654050449;0.0662791883348628;30.0;53.71452995714286;86.83130801428571
0.5789202123858888;1.3197045623350747;4.318505021318569;-0.0978892627714897;0.03126199943166827;-0.0295707147955541;2.7373608539772163;0.725244001574142;0.5259788618192741;4.983801699534715;2.246440845557499;-1.0013255837666972;0.00034014578348238897;0.05098399102681772;-0.0101967982053635;0.000564879657023372;0.0662791883348628;30.0;53.714407885714294;86.83117131428571
4.318505021318569;1.5747105001946635;4.849841439428139;-0.092790863668808;0.03941610688271352;0.0010196798205363;4.983801699534715;0.8645654118319688;0.7474733513361819;5.083279480197798;2.345918626220582;-1.0013255837666972;0.0003468793826896103;0.05098399102681772;-0.0101967982053635;0.0007887223189045771;0.07545630671969;30.0;53.71436747142857;86.83104678571428
3.366368529365412;1.4201711118843219;4.849841439428139;-0.1040073416947078;0.052046021251772406;0.020393596410727;3.983975585748992;0.8041824082446338;0.6467093457301388;5.083279480197798;2.345918626220582;-1.0013255837666972;0.00035816806371348004;0.05098399102681772;-0.0101967982053635;0.0006312749256769215;0.07545630671969;30.0;53.71438142857143;86.83092542857142
3.281437790398756;1.3869006307426892;4.849841439428139;-0.0356887937187723;0.057942155171394234;0.0275313551544814;3.7025305786711233;0.8194229686628668;0.6714540015722656;5.083279480197798;2.345918626220582;-0.986030386458652;0.00046511346288698375;0.0662791883348629;-0.0101967982053635;0.0005978544884352023;0.07545630671969;0.0;53.71445381428572;86.83080764285714
4.849841439428139;0.7660351210013928;5.280887596232652;0.0010196798205363;0.05208310902137391;0.0275313551544814;5.083279480197798;0.6876335867412826;0.47283994961468107;5.335607377232279;1.6516783399746249;-0.986030386458652;0.000448774582457697;0.0662791883348629;-0.0591414295911083;0.0001756182087353776;0.034669113898236;0.0;53.714577000000006;86.83068945714287
4.184055038616888;0.8155951491392461;5.280887596232652;0.020393596410727;0.045253788467428925;0.0275313551544814;4.386661350699561;0.6772035150360256;0.45860460077714854;5.335607377232279;1.6516783399746249;-0.9829713469970428;0.0005973098590875658;0.06933822779647214;-0.0591414295911083;0.0001908678304693771;0.034669113898236;0.0;53.714740899999995;86.83057907142857
3.549132520298393;0.7288988608085891;5.280887596232652;0.0275313551544814;0.02346635425935993;0.0275313551544814;3.683929037257654;0.6494300025410593;0.4217593282004803;5.335607377232279;1.6516783399746249;-0.9829713469970428;0.0002727107678924423;0.047924951565208596;-0.0591414295911083;0.00016314124549846932;0.034669113898236;0.0;53.71493148571428;86.83049537142857
5.280887596232652;0.5626437444840535;5.280887596232652;-0.0265116753339451;0.017258700455183535;0.0275313551544814;5.335607377232279;0.5534520405772435;0.30630916121911483;5.335607377232279;1.6516783399746249;-0.9829713469970428;0.0001430394713945768;0.03161007443662711;-0.061180789232181;0.0001069949109323807;0.032629754257163295;0.0;53.71512789999999;86.83042481428572
4.861875884751335;0.5534820118777432;5.280887596232652;0.0071377587437544;0.022052593353750753;0.0453757520138676;4.897607564198689;0.522316383611626;0.27281440458912726;5.335607377232279;1.6516783399746249;-0.9829713469970428;0.00013480814148133916;0.03161007443662711;-0.061180789232181;0.00010147125533270751;0.032629754257163295;0.0;53.71532415714286;86.83034678571428
4.3408288697095125;0.5583606294255042;5.280887596232652;0.0101967982053635;0.026357387327608738;0.0453757520138676;4.36001028623346;0.5434524266513449;0.29534054003323534;5.335607377232279;1.6516783399746249;-0.9829713469970428;0.0001365905648008988;0.03161007443662711;-0.061180789232181;0.00010269667136490399;0.032629754257163295;0.0;53.71555862857143;86.83023748571428
4.416240826458898;0.39054624196588567;5.280887596232652;0.0112164780258998;0.025371046474578697;0.0453757520138676;4.419807104025906;0.40687020709193655;0.16554336541903533;5.335607377232279;1.1211488488006216;-0.9829713469970428;0.0001412694260147397;0.03161007443662711;-0.072652187213215;4.6872163231513505e-05;0.021158356276129303;0.0;53.715796;86.83012742857143
4.126834702417843;0.28178630371485824;4.861875884751335;0.0453757520138676;0.021288342042945302;0.0453757520138676;4.214458528431657;0.31355594489377;0.0983173305782249;4.999274645035577;0.7848161166039196;-0.9829713469970428;0.00011146334717101732;0.024472315692872892;-0.072652187213215;1.7425044639642883e-05;0.010961558070765806;0.0;53.716037057142856;86.83001739999999
4.742533061257212;0.29432966029332636;4.851147205458862;-0.0265116753339451;0.02225040347829795;0.0453757520138676;4.894382146489278;0.32846254640235045;0.10788764438911623;4.999274645035577;0.7848161166039196;-0.9850107066381156;8.789574994574381e-05;0.022432956051800068;-0.0713775874375446;2.2326708768428137e-05;0.012236157846436196;0.0;53.71627872857143;86.82990798571429
4.851147205458862;0.4229547457401055;4.851147205458862;0.0183542367696543;0.022267086278411077;0.0453757520138676;4.999274645035577;0.4548779624884269;0.20691396075762267;4.999274645035577;1.2719354110399679;-0.9850107066381156;7.051712258004939e-05;0.02090343632099534;-0.0642398286937901;4.921159383843339e-05;0.019373916590190707;0.0;53.71652294285715;86.82980842857144
4.669564663972476;0.4335379191740321;4.851147205458862;0.0193739165901906;0.02229708386358789;0.0453757520138676;4.792160140949188;0.46037810869358575;0.21194800296428307;4.999274645035577;1.2719354110399679;-0.9839910268175792;7.28689311266916e-05;0.02192311614153175;-0.0642398286937901;5.077121424304699e-05;0.019373916590190707;0.0;53.71677297142857;86.82971834285715
4.11907366964791;0.46892905110177424;4.851147205458862;-0.0050983991026817;0.016302733563721805;0.0193739165901906;4.2289073476365635;0.49822647628516625;0.2482296216715333;4.999274645035577;1.2719354110399679;-0.9839910268175792;8.506120175005817e-05;0.02447231569287245;-0.0642398286937901;5.881996954542769e-05;0.019373916590190707;0.0;53.71702464285714;86.82963355714286
3.670646432699429;0.43970623669249903;4.851147205458862;0.0081574385642908;0.008417323027687875;0.0193739165901906;3.727339233995609;0.46269903163537646;0.21409039387631512;4.999274645035577;1.2719354110399679;-0.9839910268175792;8.86260483891744e-05;0.02447231569287245;-0.0642398286937901;4.990785294763586e-05;0.019373916590190707;0.0;53.717240728571426;86.82957535714286
4.620697719493436;0.5735441166488608;4.669564663972476;0.0132558376669725;0.009193289531086902;0.0224329560517997;4.672060788334706;0.560688233911502;0.31437129564679916;4.792160140949188;1.6233996573108778;-0.9839910268175792;9.06065187442365e-05;0.02447231569287245;-0.0530233506678902;9.001237763769906e-05;0.027531355154481504;0.0;53.71745757142857;86.82951791428572
3.875353257076136;1.6247602853711576;4.620697719493436;0.0112164780258998;0.01959499145414964;0.0560823901294993;3.945604749029703;1.254356966670749;1.5734113998354424;4.672060788334706;3.73812359477175;-0.9839910268175792;9.179480095727125e-05;0.026511675333945273;0.003059039461609;0.0007964461532893287;0.0825940654634444;0.0;53.71768241428571;86.8294757857143
4.206158371868905;2.8364029119350493;4.620697719493436;0.0050983991026817;0.02393844391847587;0.0632201488732537;4.2884743417683735;1.2238258815566434;1.4977497883678954;4.672060788334706;3.73812359477175;-0.9839910268175792;0.0003266290733090771;0.05914142959110846;0.0550627103089629;0.0025216338795863145;0.1345977363107983;0.0;53.71798352857143;86.8294441
3.018137547292972;3.334152613337717;4.620697719493436;0.0224329560517997;0.02387709206592325;0.0632201488732537;3.1687604836383105;1.2225021745522826;1.4945115667850597;4.672060788334706;3.73812359477175;-0.9839910268175792;0.00033217439030325664;0.05914142959110846;0.0550627103089629;0.003464337768597182;0.1345977363107983;0.0;53.718302814285714;86.82941595714284
-0.1731813347098404;3.1433800469585593;4.206158371868905;0.0560823901294993;0.04393549045205421;0.0632201488732537;0.9339371935629559;1.1479488214010034;1.317786496555953;4.2884743417683735;3.3545371482054174;-0.9982665443050882;0.00021552468638993158;0.04486591210359947;0.0550627103089629;0.0031047462418159998;0.12847965738758022;0.0;53.7186392;86.82939394285715
-3.016082454591373;2.9543540525271386;4.206158371868905;0.0632201488732537;0.04627896424581819;0.0632201488732537;3.195820047256465;1.0653242206977331;1.1349156952052326;4.2884743417683735;3.3545371482054174;-0.9962271846640156;0.0002642442571245285;0.04690527174467207;0.0550627103089629;0.0027181089167484657;0.12847965738758022;30.0;53.718999728571426;86.82939972857143
-2.810760452047045;2.144784164163167;3.018137547292972;0.0086672784745589;0.04695604353257853;0.0632201488732537;3.0405518271089993;0.8590730760950147;0.738006550071351;3.195820047256465;2.2618828536935087;-0.9788926277148976;0.0004157007275281158;0.06423982869379008;0.0550627103089629;0.001440631270093323;0.1080860609768531;0.0;53.71936968571429;86.82945517142856
-1.509826060211222;1.1162589060898334;-0.1731813347098404;-0.0708677475272763;0.048942734623135316;0.0632201488732537;1.9782108904565525;0.9448322571509831;0.8927079941530215;3.195820047256465;2.2618828536935087;-0.9788926277148976;0.00043946637178889574;0.06423982869379008;0.0550627103089629;0.000400364460216076;0.0520036708473539;0.0;53.71974717142858;86.82955837142858
-2.75334383461908;0.8938196254003528;-0.6436292227390873;-0.0244723156928724;0.04627949916998448;0.0632201488732537;3.0955568895519168;0.8488553736750489;0.7205554454170069;3.195820047256465;2.092291897635623;-0.9788926277148976;0.00044837848838668893;0.06423982869379008;0.0550627103089629;0.00026123641777277046;0.0438462322830631;0.0;53.720129171428574;86.82969899999999
-1.848631718691126;0.7725800021526993;-0.6436292227390873;0.0305903946160905;0.045374660850592094;0.058121749770572;2.145847090979139;0.7666519740472499;0.5877552493105451;3.0955568895519168;1.992028739931075;-0.9788926277148976;0.00022022830348322463;0.04384623228306317;0.0499643112062812;0.00018548342669154013;0.0387478331803814;0.0;53.72051064285714;86.82986104285715
-0.6436292227390873;0.635452952946534;-0.6436292227390873;0.0489446313857448;0.0462717421643154;0.058121749770572;1.1035281496208418;0.6347389259230599;0.40289350408195973;3.0955568895519168;1.992028739931075;-0.9788926277148976;0.0001959675416336805;0.04384623228306317;0.0479249515652085;0.00012151423422294532;0.0367084735393087;0.0;53.7208946;86.83002191428571
-1.341128403360756;0.6494577549471511;-0.6436292227390873;0.0295707147955541;0.030986796218620508;0.058121749770572;1.4151847735116596;0.6580048502326723;0.4329703829297215;3.0955568895519168;1.992028739931075;-0.9788926277148976;9.941961182426991e-05;0.03364943407769949;0.0479249515652085;0.00012752991292645473;0.0367084735393087;0.0;53.72127568571428;86.83017625714285
-1.6714706729226674;0.4311525671220478;-0.6436292227390873;0.058121749770572;0.025519900045324555;0.058121749770572;1.6750945923668517;0.3403728927601324;0.11585370612590058;2.145847090979139;1.0423189413582974;-0.9788926277148976;0.0001010039881083215;0.03364943407769949;0.0326297542571632;5.601017722917518e-05;0.0214132762312634;30.0;53.72166128571429;86.83030585714286
-1.845616252600476;0.7614486028569816;0.4143182249370945;-0.0122361578464362;0.026253396301844922;0.058121749770572;1.860664448810542;0.24229834165688405;0.058708486369676106;1.860664448810542;0.7571362991897002;-0.9870500662791885;6.020629879398523e-05;0.02549199551340864;0.0326297542571632;0.00017736349823577313;0.0397675130009176;0.0;53.722056214285715;86.83038627142857
-1.2886340107503151;1.6959845347539664;2.8912603932373333;0.0040787192821454;0.02380596500966775;0.058121749770572;1.4139554724694094;0.6654171630240705;0.44278000084700236;3.2308285229282245;1.8876538592899;-0.9870500662791885;7.624810867000978e-05;0.02549199551340864;0.0326297542571632;0.0008886246703778735;0.08361374528398069;0.0;53.72247561428571;86.83040338571428
-1.1679295243862462;1.664238972009228;2.8912603932373333;0.0056082390129499;0.03212762075287619;0.058121749770572;1.503570133199046;0.6491990962109134;0.42145946652106686;3.2308285229282245;1.8876538592899;-0.9870500662791885;0.00016279466318634198;0.03772815335984492;0.0326297542571632;0.0008562192241931252;0.08361374528398069;0.0;53.72290244285715;86.83036575714287
0.4143182249370945;1.8021245810401885;2.8912603932373333;0.0040787192821454;0.0278160499335308;0.0056082390129499;1.3431746636383246;0.6870381702602008;0.47202144739448465;3.2308285229282245;1.8876538592899;-0.9819516671765066;0.0002228029149448081;0.04282655246252676;0.0326297542571632;0.0009970182884985166;0.08361374528398069;0.0;53.72329928571428;86.83028351428571
2.8912603932373333;1.6014900682985838;2.8912603932373333;-0.0025491995513408;0.04096947812306542;0.0056082390129499;3.2308285229282245;0.6992523455851507;0.4889538428063351;3.2308285229282245;1.8876538592899;-0.9819516671765066;0.0002612240398330655;0.04282655246252676;0.0224329560517997;0.0007857021016130981;0.0734169470786172;0.0;53.72370565714285;86.83019982857142
