acc_X;acc_X_std;acc_X_max;acc_Z;acc_Z_std;acc_Z_max;acc;acc_std;acc_var;acc_max;acc_range;fb_tilt_max;fb_tilt_var;fb_tilt_range;tilt_max;tilt_var;tilt_range;class;lat;lon
2.0069201717516;1.0257013521714147;4.600830715630059;-0.023452635872336;0.08861560737843235;0.0499643112062812;2.0975664946282433;1.129484987423447;1.2757363368149441;5.8443810468147745;3.7468145521865313;-0.9890894259202612;0.0012407646774481305;0.09890894259202598;-0.0346691138982359;0.0003803493316902047;0.0530233506678903;0.0;53.72241734285715;86.83606122857142
3.75187292529395;1.0257013521714147;4.600830715630059;0.0499643112062812;0.08861560737843235;0.0499643112062812;3.774731186799941;1.129484987423447;1.2757363368149441;5.8443810468147745;3.7468145521865313;-0.9890894259202612;0.0012407646774481305;0.09890894259202598;-0.0346691138982359;0.0003803493316902047;0.0530233506678903;30.0;53.72241734285715;86.83606122857142
2.9021593749044965;1.0257013521714147;4.600830715630059;0.003059039461609;0.08861560737843235;0.0499643112062812;3.1779869359707584;1.129484987423447;1.2757363368149441;5.8443810468147745;3.7468145521865313;-0.9890894259202612;0.0012407646774481305;0.09890894259202598;-0.0346691138982359;0.0003803493316902047;0.0530233506678903;0.0;53.72241734285715;86.83606122857142
3.264354020094657;1.0257013521714147;4.600830715630059;0.0280411950647496;0.08861560737843235;0.0499643112062812;3.8537276395493234;1.129484987423447;1.2757363368149441;5.8443810468147745;3.7468145521865313;-0.9890894259202612;0.0012407646774481305;0.09890894259202598;-0.0346691138982359;0.0003803493316902047;0.0530233506678903;30.0;53.72241734285715;86.83606122857142
1.8810614505999133;1.229135857907644;5.160251538299986;-0.1804833282349342;0.08825912216943411;0.0499643112062812;3.278083835486714;1.3007755197599475;1.692016952806762;6.476457274306954;3.2984703383361955;-1.0043846232283062;0.0010402420539978154;0.08361374528398091;-0.0346691138982359;0.0004838289077423434;0.0560823901294994;30.0;53.72226222857143;86.83596462857143
2.046389423165263;1.227805865542065;5.160251538299986;-0.1519322932599164;0.07799487396411044;0.0280411950647496;3.7967891206975897;1.301466447421161;1.6938149137630576;6.476457274306954;3.2984703383361955;-1.0043846232283062;0.001049797823461;0.08361374528398091;-0.0346691138982359;0.0004912556715738368;0.0560823901294994;0.0;53.72211342857143;86.83585971428572
4.600830715630059;1.3099378921227856;5.160251538299986;-0.061180789232181;0.07286431083897447;0.0280411950647496;5.8443810468147745;1.164505182050503;1.3560723190224753;6.476457274306954;3.19837343882024;-1.0043846232283062;0.001032270660818676;0.08361374528398091;-0.0346691138982359;0.0005603245752067236;0.0560823901294994;0.0;53.721979757142854;86.83574432857144
5.160251538299986;1.355913253045795;5.160251538299986;-0.0326297542571632;0.061377126732086514;-0.0275313551544814;6.476457274306954;1.1711923945390847;1.3716916250261952;6.476457274306954;3.19837343882024;-1.0043846232283062;0.0009617164044194897;0.08361374528398091;-0.0346691138982359;0.0006004290998967869;0.0560823901294994;0.0;53.721847942857146;86.8356052
2.893111961138111;1.9408280292062976;7.462837569908064;-0.0275313551544814;0.04391900616265599;-0.0275313551544814;5.044323963808939;1.5368663534354587;2.361958188322004;8.622593591772548;4.825804471074958;-0.913633119200571;0.0032701526502830814;0.17436524931171615;-0.0367084735393086;0.0009539430582758615;0.0836137452839808;0.0;53.7217181;86.83544975714287
2.033521193812098;1.7988348175374034;7.462837569908064;-0.0632201488732537;0.027946350110878995;-0.0275313551544814;4.7274277698694815;1.305951825883953;1.7055101715296308;8.622593591772548;3.895165821903066;-0.913633119200571;0.0029092119280725074;0.17436524931171615;-0.0367084735393086;0.0008284802612825034;0.0836137452839808;0.0;53.721592471428565;86.83527292857143
4.042810667666476;1.948865308581725;7.462837569908064;-0.0387478331803813;0.033607473030465816;-0.0091771183848271;5.921632455648122;1.4084070377951374;1.9836103841108734;8.622593591772548;3.895165821903066;-0.913633119200571;0.0022305047373917812;0.12440093810543484;-0.0367084735393086;0.000917304356707162;0.0836137452839808;0.0;53.72147332857143;86.83508795714286
7.462837569908064;1.9564639655867937;7.462837569908064;-0.0948302233098807;0.03318121429573411;-0.0091771183848271;8.622593591772548;1.4148988269893865;2.0019386906159418;8.622593591772548;3.895165821903066;-0.913633119200571;0.0021774776436349207;0.12440093810543484;-0.0367084735393086;0.000917304356707162;0.0836137452839808;30.0;53.72135784285714;86.83489932857142
3.076565721717939;1.8494317507741898;7.462837569908064;-0.0948302233098807;0.033223713705656036;-0.0091771183848271;5.247097618544081;1.3147627463439944;1.7286010791740025;8.622593591772548;3.895165821903066;-0.913633119200571;0.0022842249957729143;0.12440093810543484;-0.0367084735393086;0.000834124601794438;0.0836137452839808;30.0;53.72124732857143;86.83470104285713
6.154874827139243;1.4562985929967154;7.462837569908064;-0.0091771183848271;0.04278201947538311;-0.0091771183848271;7.411228532254663;1.0954468084983773;1.2000037102492807;8.622593591772548;3.3754959732284666;-0.913633119200571;0.0019237793911511126;0.12440093810543484;-0.0530233506678902;0.0005071984579321076;0.0672988681553992;30.0;53.721143385714285;86.83450567142857
5.270943468431763;1.3401307956227926;7.462837569908064;-0.037728153359845;0.040479521489535694;-0.0091771183848271;6.63876637108948;1.0805500348184114;1.16758837774607;8.622593591772548;3.3754959732284666;-0.913633119200571;0.0013015651173486165;0.10604670133578076;-0.0530233506678902;0.0004439224300877858;0.0672988681553992;0.0;53.72104677142857;86.83430665714286
5.238070667508069;1.0786130827711589;6.196705012455879;-0.0856531049250535;0.03953901600355423;-0.0091771183848271;6.388877236412241;0.7219019595024961;0.5211424391335436;7.411228532254663;2.164130913710582;-0.9360660752523708;0.00063107687864141;0.08361374528398091;-0.0530233506678902;0.0003361848427722585;0.05608239012949941;0.0;53.7209578;86.83410797142857
6.196705012455879;1.2703099655220076;8.872307347738385;-0.1315386968491893;0.0394431044343773;-0.0091771183848271;7.164096265273015;1.1009284027435444;1.212043347967452;9.37854350480021;3.334844941097419;-0.9360660752523708;0.0006319680903011891;0.08361374528398091;-0.0907515040277353;0.00047204510912970564;0.062200469052717394;0.0;53.72087462857143;86.83390777142857
5.347234172911524;1.2755814664912306;8.872307347738385;-0.0713775874375446;0.034647685430957136;-0.0326297542571632;6.04369856370279;1.0927816575925624;1.1941717511707481;9.37854350480021;3.334844941097419;-0.971754868971143;0.000278454131922115;0.04792495156520871;-0.0907515040277353;0.00046848026249058885;0.062200469052717394;0.0;53.72079501428572;86.83370381428573
6.007264611725636;1.232684803579405;8.872307347738385;-0.0744366268991536;0.03435781359656642;-0.0326297542571632;6.71843040019582;1.1362806023969874;1.2911336073836606;9.37854350480021;3.334844941097419;-0.971754868971143;0.0002990510236147889;0.04792495156520871;-0.0917711838482716;0.00042971255529019475;0.06118078923218109;0.0;53.72072095714286;86.83350175714286
8.872307347738385;1.154546652837001;8.872307347738385;-0.0428265524625267;0.0343866227694938;-0.0326297542571632;9.37854350480021;1.1313068693697008;1.2798552326830734;9.37854350480021;3.334844941097419;-0.971754868971143;0.00011016366350047602;0.02753135515448135;-0.0917711838482716;0.0003921331303028391;0.06118078923218109;0.0;53.72064934285714;86.83329482857143
6.4619253372472425;1.216696530675865;8.872307347738385;-0.0326297542571632;0.025633387447850913;0.0020393596410727;7.016526576494986;1.162008436183367;1.3502636057613138;9.37854350480021;3.334844941097419;-0.9666564698684612;0.00010872782249305223;0.03262975425716319;-0.0917711838482716;0.000428326226041649;0.06118078923218109;0.0;53.72057971428571;86.83308257142858
5.706106342257495;1.1024963994160097;8.872307347738385;-0.0397675130009177;0.029353085493197494;0.0112164780258998;6.165080890142624;1.09917352081765;1.2081824288666692;9.37854350480021;3.213462614657585;-0.9666564698684612;0.00019755191791771205;0.03772815335984503;-0.0999286224125624;0.0003451464711289253;0.053023350667890295;0.0;53.72051255714286;86.83287278571429
6.0861661550356745;1.0983986700246946;8.872307347738385;-0.0448659121035994;0.022501272103424008;0.0112164780258998;6.4484711310471745;1.1025055052156858;1.2155183890308945;9.37854350480021;3.213462614657585;-0.9666564698684612;0.00022488240881760835;0.03772815335984503;-0.0999286224125624;0.00034960252942782126;0.053023350667890295;0.0;53.72044784285714;86.83266544285713
7.452061045802876;1.1461960841515393;9.032843884467074;0.0020393596410727;0.024220398368109602;0.0112164780258998;7.692398229705765;1.038715978081412;1.078930883121624;9.173561882452155;3.008480992309531;-0.9666564698684612;0.00022245633263265387;0.03772815335984503;-0.0999286224125624;0.00038450831943583974;0.05608239012949939;0.0;53.720384342857145;86.83246662857142
6.371717358140552;1.3317183784518327;9.032843884467074;0.0112164780258998;0.025164812218089434;0.0112164780258998;6.582062902754359;1.2228474940146408;1.4953559936178868;9.173561882452155;3.008480992309531;-0.9666564698684612;0.0001808664551762938;0.03772815335984503;-0.0999286224125624;0.0005271021850005089;0.05608239012949939;0.0;53.72032062857142;86.8322749142857
7.6032745833935005;1.1354909063622007;9.032843884467074;-0.0275313551544814;0.024845527398990604;0.0112164780258998;7.758631137716991;1.0634317255525683;1.1308870349117128;9.173561882452155;2.7250907514049807;-0.9666564698684612;0.00023532938994057933;0.04384623228306328;-0.1050270215152442;0.0003963911415662284;0.05098399102681758;0.0;53.720255457142855;86.8320854
9.032843884467074;1.1871187618094683;9.032843884467074;-0.0535331905781584;0.04328008774990515;0.0713775874375446;9.173561882452155;1.167092915268483;1.3621058728698863;9.173561882452155;3.169927659260825;-0.9666564698684612;0.00024741025910647384;0.04384623228306328;-0.1009483022330988;0.00043659468977404496;0.055062710308962995;0.0;53.72018667142857;86.8319069
8.92736055892624;2.0456224466360284;9.032843884467074;-0.0448659121035994;0.050940150223414124;0.0713775874375446;9.03462550460206;1.9731765893929012;3.8934258529282015;9.173561882452155;5.61975684192514;-0.979912307535434;0.0001938880477608505;0.034669113898235904;-0.0571020699500356;0.0012580937930549462;0.09890894259202619;0.0;53.72011191428572;86.83174802857141
7.923042160060471;3.412905973666841;9.032843884467074;-0.0346691138982359;0.05181206840564507;0.0713775874375446;8.030487689699974;2.9016817221456543;8.41975681663417;9.173561882452155;7.583893413227889;-0.979912307535434;0.00034613670630646436;0.0499643112062812;0.003059039461609;0.003546378753055747;0.15907005200367078;0.0;53.719998714285715;86.83159094285713
5.866297263500064;3.9407332552602004;9.032843884467074;0.0713775874375446;0.05178387044918063;0.0713775874375446;6.00363422319133;3.3019570337368886;10.902920252644511;9.173561882452155;7.583893413227889;-0.979912307535434;0.0005143900409089432;0.05557255021923091;0.003059039461609;0.004719213297325151;0.15907005200367078;30.0;53.7198659;86.83146178571428
3.209894413510556;3.799339714673131;8.92736055892624;-0.0856531049250535;0.05288263114320424;0.0713775874375446;3.553805040527015;3.1255464501997863;9.769040612356486;9.03462550460206;7.444957035377794;-0.954420312022025;0.0008294086067614469;0.08106454573263988;0.003059039461609;0.00444828495275228;0.15907005200367078;0.0;53.71970638571428;86.83136809999999
-0.1701579630736669;3.063022065660266;7.923042160060471;0.0183542367696543;0.05670748828221605;0.0713775874375446;1.5896684692242664;2.4465934744168263;5.985819629058997;8.030487689699974;6.440819220475708;-0.9432038339961252;0.0013391816761551356;0.09228102375853975;0.003059039461609;0.002920550120855254;0.14377485469562548;0.0;53.71952297142858;86.83130171428571
0.2820185244036852;2.187732302602691;5.866297263500064;-0.0254919955134087;0.05689054548873523;0.0713775874375446;1.7907035004781566;1.5540908764804897;2.415198452359897;6.00363422319133;4.413965753967064;-0.9432038339961252;0.001619616278432312;0.09228102375853975;0.003059039461609;0.0014323256725417722;0.1040073416947078;60.0;53.71931142857143;86.8312657142857
0.5496994297691665;1.253217048153097;3.209894413510556;-0.0632201488732537;0.03771552007576733;0.0183542367696543;1.9219499084196987;0.6962038817337656;0.484699844941163;3.553805040527015;1.9641365713027488;-0.9432038339961252;0.0016947751284070228;0.09228102375853975;0.003059039461609;0.00048031357286209804;0.0601611094116446;60.0;53.719075371428566;86.8312564
2.28251800398209;1.7723458122903493;2.28251800398209;-0.0795350260018354;0.03253763301346722;0.0183542367696543;2.9423957298770893;0.9317926546673864;0.8682375512920952;4.295050553423543;2.705382084199277;-0.9432038339961252;0.0016743762837498532;0.09228102375853975;0.0637299887835219;0.0009467514752990262;0.1014581421433669;60.0;53.71881335714286;86.83126867142857
0.3090053444068459;1.8009950965486128;2.28251800398209;-0.0132558376669725;0.023694956588294628;-0.0132558376669725;2.164346523729274;0.8559454205854115;0.732642563021137;4.295050553423543;2.504347052945387;-0.9432038339961252;0.0013071970799208214;0.09228102375853975;0.0637299887835219;0.000978389489221187;0.1014581421433669;60.0;53.718543957142856;86.8313211
0.4241164201777087;1.803584757453601;2.28251800398209;-0.0474151116549403;0.022193030423196147;-0.0132558376669725;2.271613153003396;0.7858563978987743;0.6175702781184366;4.295050553423543;2.3731006450038445;-0.9432038339961252;0.0007967803576617315;0.06933822779647192;0.0637299887835219;0.000981731532945359;0.1014581421433669;60.0;53.718245814285716;86.83138501428571
-3.598920438977642;1.8672701458646415;2.28251800398209;-0.0382379932701131;0.021628100238499898;-0.0132558376669725;4.295050553423543;0.7186357668750336;0.5164373654320676;4.295050553423543;2.1307040296942694;-0.9432038339961252;0.0009292243126566986;0.06933822779647192;0.0637299887835219;0.0010485724074287969;0.1014581421433669;60.0;53.71793467142857;86.83144324285715
0.9139742727082424;1.6002363593651108;0.9139742727082424;-0.0662791883348628;0.01888571769903015;-0.0122361578464362;2.5356035726188915;0.7331271506724641;0.5374754190531259;4.295050553423543;2.1307040296942694;-0.945243193637198;0.001168366108030785;0.09177118384827165;0.0637299887835219;0.0007927946610721712;0.0790251860915671;60.0;53.71761144285714;86.83150035714286
0.4359464071922367;1.550080923912213;0.9139742727082424;-0.037728153359845;0.016326632593771737;-0.0122361578464362;2.6656804719869105;0.6583707387069347;0.4334520295855149;4.295050553423543;2.023437400420147;-0.9564596716630978;0.0012385490262384025;0.09584990313041719;0.0637299887835219;0.0007439265550609462;0.0790251860915671;60.0;53.71728698571428;86.8315599
-1.219253157678203;1.6126809014187409;0.9139742727082424;-0.037728153359845;0.01642037334844614;-0.0122361578464362;3.1040937649743996;0.5921388883324494;0.350628463075589;4.295050553423543;1.7594469808046518;-0.9564596716630978;0.0009315142315047539;0.09584990313041719;0.0637299887835219;0.000810866453062138;0.0790251860915671;60.0;53.7169644;86.83161765714284
-1.4643679673596826;1.1303570805011172;0.9139742727082424;-0.0122361578464362;0.017924335506522844;-0.0122361578464362;3.2367327601278704;0.2844720175307094;0.08092432875799221;3.2367327601278704;0.7011291875089789;-0.9564596716630978;0.001167091180239718;0.09584990313041719;0.0285510349750178;0.00039066015547625446;0.043846232283063;60.0;53.71664801428572;86.8316743
-0.8872764307932623;1.2788958485624813;1.5722215649121618;-0.0489446313857448;0.014332630169620013;-0.0122361578464362;3.046073081166048;0.22547911057091494;0.050840829303850886;3.2367327601278704;0.5710522881409599;-0.92790863668808;0.0017701444033569648;0.12440093810543496;0.0285510349750178;0.0004839898209586851;0.0540430304884265;60.0;53.71634732857143;86.83171372857143
0.8546909504736354;1.581943753198471;2.154558666692741;-0.0316100744366268;0.016396610951658678;-0.0122361578464362;2.714889446059053;0.18512255914676348;0.034270361905046946;3.2367327601278704;0.5218433140688172;-0.92790863668808;0.002227521653919478;0.12440093810543496;0.0285510349750178;0.0007270306673442996;0.06423982869379011;60.0;53.71606585714285;86.83173214285713
-1.6781634816758422;1.7445636522364736;2.154558666692741;-0.058121749770572;0.02197809635979233;-0.0122361578464362;3.205669562782637;0.19793282800562953;0.03917740440230612;3.253289043909972;0.5383995978509191;-0.92790863668808;0.0028049525418180755;0.12440093810543496;0.0367084735393086;0.0008577417107785796;0.0723972672580809;60.0;53.715795542857144;86.8317288
1.5722215649121618;1.8983642019378717;2.154558666692741;-0.0397675130009177;0.02170950097875486;-0.0132558376669725;2.9648384917986155;0.2526893246070885;0.06385189477038654;3.5155088406486357;0.8006193945895825;-0.92790863668808;0.0024609448411433105;0.12440093810543496;0.0438462322830631;0.001027765090760897;0.0795350260018354;60.0;53.71553125714286;86.83170222857142
2.154558666692741;2.0734425476097393;2.154558666692741;-0.0591414295911083;0.027979106840609825;-0.0132558376669725;3.2132537091094857;0.2503785359547565;0.0626894112668473;3.5155088406486357;0.8006193945895825;-0.92790863668808;0.002638221693801051;0.1315386968491894;0.0438462322830631;0.0012646293452266528;0.0805547058223717;60.0;53.71527165714286;86.83164377142857
-2.2545283130772744;2.0466122515373613;2.154558666692741;-0.0805547058223717;0.027366308935765773;-0.0132558376669725;3.253289043909972;0.34938637766137015;0.12207084089533356;3.5155088406486357;1.1185659253387739;-0.92790863668808;0.002295476542977644;0.1315386968491894;0.0438462322830631;0.0012301691610485245;0.0805547058223717;60.0;53.715026671428575;86.83156335714285
-2.479324860121119;2.064564310924917;2.154558666692741;-0.0132558376669725;0.0277632682188398;-0.0132558376669725;3.5155088406486357;0.3492927695102303;0.12200543883212689;3.5155088406486357;1.1185659253387739;-0.92790863668808;0.002446091313480324;0.1315386968491894;0.0438462322830631;0.0012608664515520297;0.0805547058223717;60.0;53.71480795714286;86.83144704285714
1.9767025630557624;2.6358693341310335;4.7048436425466384;-0.0938105434893443;0.03915648908076832;0.020393596410727;3.1050120666446404;0.8605380925388083;0.7405258087103306;5.155136222551571;2.758193307241709;-0.9289283165086164;0.0019129982056557383;0.13051901702865298;0.0438462322830631;0.0020954366591763563;0.1264402977465075;60.0;53.7146216;86.83131920000001
-0.5334258954171316;3.268378652427006;5.918048214739414;-0.0367084735393086;0.04122608575838573;0.020393596410727;2.396942915309862;1.3776414559418944;1.8978959811297027;6.247408931314913;3.8504660160050515;-0.9289283165086164;0.001513178374787297;0.13051901702865298;0.0438462322830631;0.0032498528291436558;0.14785357397777088;0.0;53.71446442857143;86.83119494285714
1.9653584629535;2.9512323520003565;5.918048214739414;-0.040787192821454;0.03741186859384605;0.020393596410727;2.945706534895392;1.365330027656487;1.864126084420464;6.247408931314913;3.8504660160050515;-0.9850107066381156;0.0005394306129607816;0.07443662689915376;0.0438462322830631;0.002689280695142552;0.14785357397777088;0.0;53.71432772857143;86.83108384285713
4.7048436425466384;2.1647326647521874;5.918048214739414;0.020393596410727;0.03713424290964845;0.020393596410727;5.155136222551571;1.3712673732823435;1.8803742090286582;6.247408931314913;3.8504660160050515;-0.9850107066381156;0.0005402228011028075;0.07443662689915376;0.0091771183848271;0.0014322266490240168;0.1131844600795349;0.0;53.71420604285714;86.83099872857143
5.918048214739414;2.1019557514378833;5.918048214739414;-0.0020393596410727;0.027798912434595393;0.020393596410727;6.247408931314913;1.2999599325682099;1.6898958262827446;6.247408931314913;3.8504660160050515;-0.9850107066381156;8.100123752214862e-05;0.028551034975017875;0.0091771183848271;0.0013616723926248315;0.1131844600795349;0.0;53.71409025714286;86.8309451142857
3.839482656582416;1.3314829974458806;5.918048214739414;-0.0540430304884266;0.027605886919803035;0.020393596410727;4.312003186994278;1.1228910589695966;1.2608843303138622;6.247408931314913;3.3017023964195213;-1.0013255837666972;1.797276847220742e-05;0.01223615784643628;-0.0346691138982359;0.0005480951707641935;0.06933822779647189;0.0;53.71396424285714;86.83091784285715
4.252053942473404;1.1150763414000904;5.918048214739414;-0.0520036708473539;0.027276605372351333;0.020393596410727;4.6397305448153014;0.978521551947777;0.957504427626286;6.247408931314913;2.980866269018733;-1.0013255837666972;4.520423585434807e-05;0.01835423676965431;-0.0438462322830631;0.00038173566093874597;0.060161109411644695;0.0;53.71381324285714;86.83093507142857
3.5373969355255115;1.0737798242068837;5.918048214739414;-0.0397675130009177;0.01741896771728031;-0.0020393596410727;4.0506875457137825;0.9399781046524813;0.8835588372260711;6.247408931314913;2.980866269018733;-0.9870500662791885;0.00010461834650629453;0.03262975425716308;-0.0438462322830631;0.0003534149348613188;0.060161109411644695;0.0;53.7136325;86.83098107142857
2.4987126191348006;0.6330165068349837;4.252053942473404;-0.0275313551544814;0.010088795681874724;-0.0275313551544814;3.2665426622961804;0.4989413299974252;0.24894245077959953;4.656575916720514;1.3900332544243335;-0.9870500662791885;0.0001066978403791121;0.03262975425716308;-0.0438462322830631;0.00012051162110569288;0.0316100744366269;0.0;53.713414057142856;86.83104788571428
3.1461735317184;0.6747302605734566;4.252053942473404;-0.0356887937187723;0.012110582468744888;-0.0163148771285816;3.8040803674503065;0.507387201919294;0.25744177267149043;4.656575916720514;1.3900332544243335;-0.9870500662791885;0.00011432265124610981;0.03262975425716308;-0.0438462322830631;0.0001365039192228414;0.0316100744366269;0.0;53.71317101428571;86.83113032857143
4.133769082859426;0.9632237244450355;4.133769082859426;-0.0331395941674314;0.011380262882795;-0.0163148771285816;4.656575916720514;0.6607807770995373;0.43663123538426846;4.656575916720514;2.1237794166312685;-0.9839910268175792;0.00018324301960237033;0.035688793718772316;-0.0183542367696543;0.00028345481956865295;0.0530233506678903;0.0;53.71291171428572;86.83121845714287
3.0609834721642724;2.21157791383204;4.133769082859426;-0.0479249515652085;0.010838774186895054;-0.0163148771285816;3.844593304846959;0.6474089897655604;0.41913840002926345;4.656575916720514;2.1237794166312685;-0.9839910268175792;0.0002682051978346498;0.04384623228306317;0.0458855919241358;0.001532537472508052;0.1172631793616804;0.0;53.712635771428566;86.83130457142856
2.7013643021663043;2.362322698914221;4.133769082859426;-0.0163148771285816;0.013411332598181483;-0.0163148771285816;3.681098733469419;0.8280514899396966;0.6856692699913515;4.656575916720514;2.4230704613089187;-0.9839910268175792;0.00027949387885851734;0.04384623228306317;0.0458855919241358;0.0017436061005990878;0.1172631793616804;0.0;53.712335714285715;86.83139948571429
1.0684198368876443;2.4742019387357135;4.133769082859426;-0.0183542367696543;0.022861184325443283;-0.0163148771285816;2.5327965000892454;0.8738285891419673;0.763576403201841;4.656575916720514;2.4230704613089187;-0.9839910268175792;0.00029692201798308776;0.04384623228306317;0.0458855919241358;0.001901944705486521;0.1172631793616804;0.0;53.712011042857135;86.83148807142858
-2.554783173727065;2.2615372171665604;3.0609834721642724;-0.0336494340776996;0.025768240108598156;-0.0163148771285816;3.399147329969947;0.6399291067695997;0.4095092616909377;3.844593304846959;1.6110878494353638;-0.9839910268175792;0.00020324577018851963;0.04384623228306317;0.0458855919241358;0.0016105680044976045;0.0999286224125624;0.0;53.711660900000005;86.83156581428571
-0.3443547145910863;1.9766398174210031;2.7013643021663043;-0.0520036708473539;0.026503036528724513;-0.0163148771285816;2.233505455411595;0.563496185378809;0.317527950936469;3.681098733469419;1.4475932780578238;-0.9839910268175792;0.00020324577018851963;0.04384623228306317;0.0458855919241358;0.0012322486549213418;0.0938105434893443;0.0;53.71130231428572;86.83161682857144
-1.3080745580267903;1.759190801091839;1.6956810346864992;-0.0825940654634444;0.022391811097002046;-0.0183542367696543;2.545266732045972;0.3915177135523949;0.15328612002529515;3.399147329969947;1.1656418745583519;-0.9839910268175792;0.00023176454330145477;0.04384623228306317;0.0458855919241358;0.0009693412152864821;0.07545630671968989;0.0;53.710931085714286;86.8316296
-2.134571440686538;1.8741792925342913;1.81271164012124;-0.0744366268991536;0.02322697790629217;-0.0152951973080452;2.669558656514235;0.39248682767444015;0.15404590989794567;3.399147329969947;1.1656418745583519;-0.9972468644845518;0.00014294044787679287;0.0336494340776996;0.0458855919241358;0.0011121331278866574;0.07851534618129899;0.0;53.71054987142857;86.83160312857142
1.5014987777258724;1.750379255758977;2.3177737776787146;-0.0627103089629856;0.03731065518742333;0.023452635872336;2.245069103167739;0.3153153439053585;0.09942376610215449;3.1591082434842934;0.9256027880726982;-0.9972468644845518;0.00012511621468120907;0.0336494340776996;0.037728153359845;0.0009606271457241966;0.078515346181299;0.0;53.71016671428571;86.8315418
1.6956810346864992;1.9341094676638364;3.0396665338208457;-0.0571020699500356;0.03815730487528016;0.023452635872336;2.504391827844856;0.4586363861563405;0.2103473347065479;3.6060924759280724;1.3610233727603331;-0.9972468644845518;0.000154526199453923;0.0336494340776996;0.037728153359845;0.0011645165687781227;0.0907515040277352;0.0;53.709792285714286;86.83144897142857
1.81271164012124;1.6501172827845543;3.0396665338208457;-0.0152951973080452;0.03475879114939974;0.023452635872336;2.698315617410215;0.498579983635481;0.24858200008195652;3.6060924759280724;1.375199369378897;-0.9972468644845518;0.00012580937930548337;0.0336494340776996;0.037728153359845;0.0008438289065342491;0.0907515040277352;0.0;53.70943187142858;86.83134455714286
2.3177737776787146;0.7967971502492476;3.562739745439868;0.023452635872336;0.03712374154460278;0.0367084735393086;3.1591082434842934;0.6302298166562775;0.39718962180260525;3.763047443627954;1.532154337078779;-0.9819516671765066;0.00023409159596865604;0.048944631385744786;-0.0265116753339451;0.00018106450221179872;0.034669113898235904;0.0;53.70908551428572;86.8312468857143
3.0396665338208457;0.7540244416822514;3.562739745439868;-0.0224329560517997;0.032274268128748514;0.0367084735393086;3.6060924759280724;0.6538400393485518;0.42750679705531586;3.763047443627954;1.6483717407226415;-0.9778729478943612;0.0003353926546302254;0.05302335066789021;-0.0285510349750178;0.00016373538660498148;0.032629754257163204;0.0;53.70874831428571;86.83117665714288
1.6134401930123523;1.2909117630729114;3.562739745439868;-0.0112164780258998;0.024311959556339743;0.0367084735393086;2.2308931065491753;1.0418694837953322;1.0854920212639518;3.763047443627954;3.0220342625287113;-0.9615580707657796;0.0005624040690795357;0.06933822779647181;0.0081574385642908;0.0004934837007232775;0.06933822779647181;0.0;53.70841755714286;86.83114944285714
3.562739745439868;2.215222940588533;3.562739745439868;0.0367084735393086;0.03409888774518266;0.0367084735393086;3.763047443627954;1.0439710748273325;1.0898756050761358;3.763047443627954;3.0220342625287113;-0.9615580707657796;0.00033009489643043337;0.05200367084735391;0.0479249515652085;0.0014635180806340387;0.1091057407973895;0.0;53.70808932857143;86.83117595714286
1.851134970637004;2.3091327116508515;3.562739745439868;0.0183542367696543;0.03205877556552808;0.0367084735393086;2.1146757029053127;1.1804279421012138;1.3934101264933065;3.763047443627954;3.0220342625287113;-0.9615580707657796;0.000605479299302197;0.07341694707861723;0.0479249515652085;0.0015961600826645056;0.1091057407973895;0.0;53.70770392857143;86.83125501428572
-0.4859402261365037;2.4269018622306198;3.562739745439868;-0.0214132762312633;0.03223896465983406;0.0367084735393086;0.7410131810992427;1.0657391573786068;1.135799951570063;3.763047443627954;3.0220342625287113;-0.9615580707657796;0.0006376619425719998;0.07341694707861723;0.0489446313857448;0.0017694512387326788;0.1101254206179258;0.0;53.707305014285716;86.83134249999999
-2.782822715523137;2.323349015001807;3.562739745439868;-0.0622004690527174;0.06257465892035458;0.0367084735393086;2.8021492940952237;1.3119302447875334;1.7211609671882773;3.763047443627954;3.5941597699593135;-0.9615580707657796;0.0006091926812179423;0.07341694707861723;0.0489446313857448;0.001613551087969918;0.1101254206179258;30.0;53.706895114285714;86.83142265714285
-0.9592759495339456;1.7896885919199335;1.851134970637004;-0.0244723156928724;0.06173676033176683;0.032119914346895;0.9604623512457221;1.0361459557178112;1.0735984415503763;2.8021492940952237;2.633261620426583;-0.9615580707657796;0.0005901801658093196;0.07341694707861723;0.0489446313857448;0.0009629665763311164;0.08055470582237159;30.0;53.706480042857144;86.83146838571429
-2.777719807397034;1.5991766430660292;1.181783460005622;-0.0254919955134087;0.06556973933050642;0.0418068726419904;2.77946330077116;1.0257397144539566;1.0521419618080843;2.8021492940952237;2.633261620426583;-0.9615580707657796;0.0005388859836131387;0.07341694707861723;0.0489446313857448;0.0007748218925999564;0.06933822779647181;30.0;53.706063400000005;86.83148328571428
0.0286303566458301;1.8815962824540744;1.897454637650185;-0.1549913327215254;0.07381267560929188;0.058121749770572;0.16888767366864058;1.002711273389545;1.0054298977824825;2.8021492940952237;2.633261620426583;-0.9523809523809524;0.0006587539518534388;0.08259406546344439;0.0489446313857448;0.0010557763683453425;0.08055470582237159;30.0;53.705640371428565;86.83147717142857
1.181783460005622;1.6113213483060147;1.897454637650185;0.032119914346895;0.08357221055011033;0.1029876618741715;1.1822377817464065;0.8303985786646899;0.6895617994483372;2.77946330077116;2.6105756271025196;-0.9523809523809524;0.0006421180008708926;0.08259406546344439;0.0489446313857448;0.0007881157998583287;0.08055470582237159;0.0;53.70521981428571;86.83148084285713
0.8824324879148278;1.5830345757302984;1.897454637650185;0.0418068726419904;0.08304102665092725;0.1029876618741715;0.8855970780522577;0.8523671659113126;0.7265297855236831;2.77946330077116;2.6105756271025196;-0.9523809523809524;0.00038624123099651847;0.05608239012949923;0.0489446313857448;0.0007567996123688663;0.08055470582237159;0.0;53.70488221428571;86.83151992857142
1.897454637650185;0.9680202543600417;1.897454637650185;0.058121749770572;0.08380619414758898;0.1029876618741715;1.9041232299385342;0.5680144335272794;0.3226403966953161;1.9041232299385342;1.7352355562698936;-0.9523809523809524;0.00043773346022820244;0.06423982869378986;0.0122361578464362;0.00027455508091057745;0.043846232283063;0.0;53.704584728571426;86.83167592857144
1.2137617320678495;0.9830646930485675;1.897454637650185;0.1029876618741715;0.04652198553193981;0.1029876618741715;1.2419534321224734;0.5752910300992978;0.33095976931271115;1.9041232299385342;1.7670363918228014;-0.9523809523809524;0.0004480319060745399;0.06423982869378986;0.0122361578464362;0.0002834053078097732;0.043846232283063;0.0;53.70432945714286;86.83196191428571
-0.7033459476196114;1.005820204270192;1.897454637650185;0.0316100744366268;0.04745047138769375;0.1029876618741715;0.7133008159791654;0.584938214309066;0.34215271455907886;1.9041232299385342;1.7670363918228014;-0.9523809523809524;0.00044045660696641564;0.06423982869378986;0.0122361578464362;0.0002958822710466814;0.043846232283063;0.0;53.704120257142854;86.83237077142857
-0.4594685215392993;1.056761722126618;1.897454637650185;-0.0346691138982359;0.05582666644182392;0.1029876618741715;0.4844921604274968;0.5854898449957486;0.3427983585931457;1.9041232299385342;1.7670363918228014;-0.9523809523809524;0.0006430587242895557;0.06423982869378986;0.0142755174875089;0.0003231632501876995;0.0458855919241357;0.0;53.7039535;86.83289155714286
-0.1156085511535117;0.8347523999148302;1.2137617320678495;-0.020393596410727;0.05205838677745146;0.1029876618741715;0.13708683811573297;0.3895634613838889;0.15175969044539672;1.2419534321224734;1.1048665940067406;-0.9584990313041704;0.00043075230222659635;0.06220046905271759;0.0142755174875089;0.00021374226307036733;0.0356887937187722;0.0;53.70383395714286;86.83359852857143
-0.4686605556484779;0.867713381412575;1.3413764131533497;0.0050983991026817;0.029304128479723014;0.0316100744366268;0.4929452404438916;0.42011190933377546;0.17649401636407036;1.3722404323240291;1.2351535942082963;-0.9584990313041704;0.0004267913615164668;0.06220046905271759;0.0142755174875089;0.00022938797887537958;0.037728153359844904;0.0;53.70375694285714;86.83436631428572
-0.8518216669001291;0.8764315228411388;1.3413764131533497;-0.0560823901294993;0.02259240408321091;0.0061180789232181;0.916873277185078;0.4208810265744795;0.17714083853038773;1.3722404323240291;1.2351535942082963;-0.9584990313041704;0.0004469921591381297;0.06220046905271759;0.0142755174875089;0.00023354696662101552;0.037728153359844904;0.0;53.70369742857143;86.83516622857144
1.030164207753291;0.906351737092911;1.3413764131533497;0.0061180789232181;0.022853873728308598;0.0061180789232181;1.111139814116719;0.40262079598847833;0.1621035053623959;1.3722404323240291;1.2351535942082963;-0.9584990313041704;0.00041639389215238033;0.06220046905271759;0.0142755174875089;0.00024879658835501496;0.037728153359844904;0.0;53.70365387142857;86.83595284285715
1.3413764131533497;0.9086489128771991;1.3413764131533497;-0.0224329560517997;0.023362740204348215;0.0061180789232181;1.3722404323240291;0.29578393197155683;0.08748813441255456;1.3722404323240291;0.8792951918801375;-0.9584990313041704;0.0003905487540187851;0.06220046905271759;0.0142755174875089;0.00024934121770265775;0.037728153359844904;0.0;53.703621;86.83671722857143
-0.7686213687518592;0.8613204340056816;1.3413764131533497;-0.0040787192821454;0.022640566239598692;0.0061180789232181;0.830318138314934;0.2538629663542212;0.06444640568616443;1.3722404323240291;0.7638718170641445;-0.9584990313041704;0.0004657076039934929;0.06220046905271759;0.0142755174875089;0.00022300096198029536;0.037728153359844904;0.0;53.70359075714286;86.83747692857143
0.809357071828327;1.1153001901063273;1.3413764131533497;0.0061180789232181;0.01079815688691544;0.0061180789232181;0.8376603584348313;0.4273227445184299;0.1826047279827633;1.825443573158463;1.2170749578985784;-0.9880697460997246;0.00018141108452392811;0.0326297542571633;0.0305903946160905;0.0003766854615333271;0.0540430304884265;0.0;53.703563700000004;86.8382325
0.5250925609279765;1.4370843655673646;1.3413764131533497;0.0050983991026817;0.015333993051552803;0.0254919955134087;0.6083686152598846;0.6904241557791295;0.4766855148833238;2.4718258403074844;1.8634572250475998;-0.9880697460997246;0.00025221289971749536;0.04282655246252676;0.0438462322830631;0.0006454848004745031;0.0672988681553991;0.0;53.70354065714286;86.83888968571428
0.6302168133761551;1.4604347439302396;0.809357071828327;-0.0061180789232181;0.012134577491576171;0.0254919955134087;0.7362019615039477;0.8386903160367302;0.7034014462137903;2.487439885213813;1.8790712699539285;-0.9880697460997246;0.0002633530454647333;0.04282655246252676;0.0438462322830631;0.0006716270091613593;0.058121749770571995;0.0;53.70352017142857;86.8395530857143
-1.7731608407162238;1.5885305836024106;0.809357071828327;-0.0122361578464362;0.012340914484124835;0.0254919955134087;1.825443573158463;0.8785708405607762;0.7718867218836688;2.487439885213813;1.8790712699539285;-0.9574793514836342;0.0005990427706482269;0.07341694707861723;0.0438462322830631;0.0007745619558658542;0.058121749770571995;0.0;53.703504571428574;86.8402104
-2.434701261847509;1.6030008298362777;0.6302168133761551;0.0254919955134087;0.014473570803605422;0.0254919955134087;2.4718258403074844;1.0538947124662208;1.1106940649642583;3.5609522784324654;2.9525836631725806;-0.9574793514836342;0.0007820382314562192;0.08157438564290831;0.0642398286937901;0.0008164984156343518;0.07545630671968989;0.0;53.703499557142855;86.84086001428571
-2.469590235856591;1.3407057148695067;0.6302168133761551;0.003059039461609;0.014846762290772782;0.0254919955134087;2.487439885213813;0.9007360421362355;0.8113254176032502;3.5609522784324654;2.824750316928518;-0.934026715611298;0.0015695722681477629;0.10502702151524446;0.0642398286937901;0.0005596809223413181;0.07545630671968989;0.0;53.703504457142856;86.84150125714284
-2.4390066042818885;0.645655877334041;-1.6991911204599863;0.0132558376669725;0.014680759053602343;0.0254919955134087;2.4539280220311923;0.6433043821580522;0.4138405281037533;3.5609522784324654;1.8390012796662005;-0.934026715611298;0.001495403653350585;0.10502702151524446;0.0642398286937901;0.00013669887177341486;0.0344141939431019;30.0;53.70352261428571;86.84213015714285
-3.537444533823236;0.6449839628584616;-1.6991911204599863;-0.0152951973080452;0.014831747863580436;0.0254919955134087;3.5609522784324654;0.6479026155866083;0.41977779928396836;3.5609522784324654;1.8390012796662005;-0.934026715611298;0.0015916545126067336;0.10502702151524446;0.0642398286937901;0.00014226894464703453;0.0344141939431019;30.0;53.7035622;86.84276951428572
-2.9995411207969664;0.8778148878822435;-1.151509591613723;-0.0081574385642908;0.009823360832756303;0.0132558376669725;3.0427270872114693;0.8563979746505459;0.733417490985557;3.5609522784324654;2.2899429446767856;-0.934026715611298;0.0014680731624506897;0.10502702151524446;0.0642398286937901;0.0002495980599518301;0.04384623228306309;30.0;53.703649157142856;86.84348550000001
-1.6991911204599863;1.34931126426667;0.1716218731913962;-0.003059039461609;0.01426337327647402;0.0132558376669725;1.721950998766265;1.0498564330098574;1.1021985299321813;3.5609522784324654;2.5876369671341144;-0.934026715611298;0.0014946114652085597;0.10502702151524446;0.0642398286937901;0.0005690231723443504;0.0672988681553991;30.0;53.70376158571428;86.84418307142856
-3.4163030683791518;1.345920895402951;0.1716218731913962;-0.0132558376669725;0.010295857213211716;-0.003059039461609;3.4464697654539047;1.055715358798145;1.1145349188022957;3.5609522784324654;2.5876369671341144;-0.934026715611298;0.001152534723129977;0.10502702151524446;0.0642398286937901;0.0005690231723443504;0.0672988681553991;30.0;53.70390294285715;86.8448803142857
-1.151509591613723;1.3634790025820693;0.1716218731913962;-0.0040787192821454;0.01662451918249961;-0.003059039461609;1.27100933375568;1.1350294444942748;1.2882918398689818;3.948322236707182;2.975006925408831;-0.934026715611298;0.001163823404153854;0.09075150402773535;0.061180789232181;0.0005430666327532813;0.06423982869379;0.0;53.704065414285715;86.84556941428572
0.1716218731913962;1.376473604436205;0.1716218731913962;-0.0336494340776996;0.01835288793726079;-0.003059039461609;0.9733153112983511;1.1136387729647201;1.2401913166503673;3.948322236707182;2.975006925408831;-0.9615580707657796;0.0005881006719364953;0.06322014887325378;0.061180789232181;0.0005712512014937983;0.06423982869379;0.0;53.70428104285714;86.84633361428573
-2.322954137858236;1.996457613352113;0.1716218731913962;-0.0112164780258998;0.017378772371700716;-0.0040787192821454;2.652685779452919;1.763624195008148;3.1103703012181376;6.046415617428755;5.073100306130404;-0.9615580707657796;0.0005968147414987805;0.06322014887325378;0.1009483022330988;0.0012369027602557438;0.1040073416947078;0.0;53.7045076;86.84708314285714
-3.636322942269509;2.3671725952677654;0.1716218731913962;-0.0469052717446721;0.016238830862376864;-0.0040787192821454;3.948322236707182;2.164645107931264;4.685688443290754;6.18620936476388;5.212894053465529;-0.9615580707657796;0.0005143281512103317;0.05914142959110835;0.1029876618741715;0.0017484582529689952;0.1060467013357805;30.0;53.70472755714286;86.84778584285714
-0.8999721968767719;2.3041243618071316;0.1716218731913962;-0.0418068726419904;0.018239229914994104;0.003059039461609;1.9315353683127838;2.0042255601739853;4.016920096054726;6.18620936476388;5.212894053465529;-0.9615580707657796;0.0005068642535596803;0.05914142959110835;0.1029876618741715;0.0016587800797037153;0.1060467013357805;30.0;53.70490847142857;86.84836172857145
-5.705968336784267;3.183961144025785;3.439381266469256;-0.040787192821454;0.020465091456852484;0.003059039461609;6.046415617428755;1.6685603627728556;2.7840936842166832;6.18620936476388;4.254673996451096;-0.9615580707657796;0.0004439595639069342;0.051493830937085594;0.1029876618741715;0.0031525993567702547;0.16365861119608438;30.0;53.70506554285714;86.84886622857142
-5.8165097613573264;4.023267067617091;4.101815757266907;-0.0316100744366268;0.020465091456852484;0.003059039461609;6.18620936476388;1.5786657887140334;2.492185672456101;6.18620936476388;4.254673996451096;-0.9615580707657796;0.0004571296917681143;0.051493830937085594;0.1029876618741715;0.005021173136773937;0.1753849291322524;30.0;53.70519498571429;86.8492919
-1.8160084744627876;4.097832162686766;4.101815757266907;0.003059039461609;0.018124859175904767;0.003059039461609;2.700659412042112;1.677600477564025;2.814343362323045;6.18620936476388;4.254673996451096;-0.9727745487916796;0.00020402558039082103;0.040277352911185615;0.1029876618741715;0.005246897245492454;0.1753849291322524;0.0;53.7053055;86.84970961428571
3.439381266469256;4.170406358102958;4.101815757266907;-0.003059039461609;0.03828441716971302;0.003059039461609;3.9171198115945263;1.637822744395236;2.682463342058343;6.18620936476388;4.054028122923194;-0.9941878250229428;3.9225690969986216e-05;0.018864076679922404;0.1029876618741715;0.005433061458868549;0.1753849291322524;0.0;53.70536378571428;86.85007144285714
4.101815757266907;3.576345568977277;4.101815757266907;-0.0112164780258998;0.042809352027319635;0.003059039461609;4.460350176833435;1.3727030517324386;1.8843136682355501;6.18620936476388;4.054028122923194;-0.9941878250229428;3.9398982126054756e-05;0.018864076679922404;0.1029876618741715;0.003996428263304507;0.1753849291322524;0.0;53.70538851428571;86.850418
2.137990306508489;2.15258734537248;4.475371000888577;-0.0142755174875089;0.044513739094599755;0.003059039461609;2.6832231704102476;0.9617500814439427;0.9249632191574304;4.638150007797865;2.5059687659571788;-0.9941878250229428;4.339705665534332e-05;0.018864076679922404;0.032119914346895;0.0014406312700933196;0.110635260528194;0.0;53.705373;86.8507352857143
1.4600387550200948;1.1620366201361518;4.475371000888577;-0.1091057407973896;0.04537711593106379;0.0081574385642908;2.1321812418406862;0.9765101461930014;0.9535720656178769;4.638150007797865;2.5059687659571788;-0.9941878250229428;3.627974131683143e-05;0.016314877128581706;-0.0254919955134087;0.0004166290730070424;0.0530233506678903;0.0;53.70532112857143;86.85102352857143
3.296477924957835;1.236824888746186;4.475371000888577;-0.0800448659121035;0.04705347701951035;0.0081574385642908;3.565599238849569;1.0199491988134552;1.040296368160209;4.638150007797865;2.5059687659571788;-0.9941878250229428;3.949800564381362e-05;0.016314877128581706;-0.0254919955134087;0.0004680965463592903;0.0530233506678903;30.0;53.70522415714286;86.85130690000001
4.475371000888577;1.2271444148761752;4.475371000888577;-0.0683185479759355;0.050516803679157354;0.0152951973080452;4.638150007797865;0.9827758521857703;0.9658483756394672;4.638150007797865;2.5059687659571788;-0.9829713469970428;7.940448329837497e-05;0.027531355154481685;-0.0254919955134087;0.0004551244655336156;0.0530233506678903;0.0;53.70510092857143;86.85159327142857
4.454325866297397;1.0988491757052912;4.475371000888577;0.0081574385642908;0.052539668011023236;0.0152951973080452;4.540401718242478;0.8799545868412442;0.7743200749029447;4.638150007797865;2.5059687659571788;-0.9829713469970428;0.00012059826668372186;0.035688793718772316;-0.0254919955134087;0.00037177141946482406;0.0530233506678903;0.0;53.70493974285714;86.85181242857144
4.447884026421955;0.42267124088119074;4.475371000888577;0.0081574385642908;0.049145902731952;0.058121749770572;4.487386301539433;0.3724263230332759;0.13870136608808595;4.638150007797865;1.0725507689482958;-0.9829713469970428;0.00011480539089515612;0.035688793718772316;-0.058121749770572;5.5168477328268516e-05;0.020393596410727;0.0;53.7047405;86.85193135714285
3.975302374625647;0.20454035890535263;4.475371000888577;0.0152951973080452;0.037467411165289184;0.058121749770572;3.9850379092212798;0.2501882079789404;0.06259413941171355;4.638150007797865;0.6531120985765853;-0.9829713469970428;0.00012787649523858332;0.035688793718772316;-0.0683185479759355;1.429652037561757e-05;0.010196798205363497;0.0;53.70452461428572;86.8520117
4.236291181921021;0.18580150966070633;4.454325866297397;0.0071377587437544;0.019086517332254624;0.058121749770572;4.2366212321810695;0.20866028456243935;0.04353911435367816;4.540401718242478;0.5553638090211983;-0.9829713469970428;0.0001455150593383816;0.035688793718772316;-0.0683185479759355;1.2365561779429439e-05;0.009686958295095388;0.0;53.70430615714285;86.85206387142856
4.293562949658432;0.24522919851902003;4.6912815270009;0.058121749770572;0.02168240135393756;0.058121749770572;4.295544237665963;0.2538295584745562;0.06442944475538814;4.713624362275982;0.7285864530547022;-0.9829713469970428;0.0001502186764316595;0.035688793718772316;-0.0683185479759355;2.13890798346935e-05;0.014275517487508896;0.0;53.70408722857143;86.85211557142857
4.035898508548855;0.23168344036999206;4.6912815270009;0.0152951973080452;0.02155816556748556;0.058121749770572;4.040646894116104;0.23728163490278284;0.05630257426213753;4.713624362275982;0.7285864530547022;-0.9829713469970428;0.0001699738682234332;0.035688793718772316;-0.0683185479759355;2.0002750586148088e-05;0.014275517487508896;0.0;53.70388235714285;86.85215572857143
4.17776081499512;0.21361183111660953;4.6912815270009;0.0015295197308045;0.022428817359062568;0.058121749770572;4.184280517660648;0.23278655255508177;0.05418957905047985;4.713624362275982;0.6729774681598784;-0.9890894259202612;0.00013194883740618474;0.029570714795553954;-0.0713775874375446;1.4209874797583379e-05;0.011216478025899798;0.0;53.70367467142857;86.85218210000001
4.6912815270009;0.21131287242971658;4.6912815270009;-0.0112164780258998;0.02380232507309848;0.058121749770572;4.713624362275982;0.2363646668077383;0.055868255715133146;4.713624362275982;0.6729774681598784;-0.9850107066381156;0.00010253885263348216;0.026511675333945273;-0.0713775874375446;1.4358410074213253e-05;0.011216478025899798;0.0;53.70346935714286;86.85218889999999
4.244592109949853;0.24203629872127316;4.6912815270009;0.0152951973080452;0.015477411520819882;0.0346691138982359;4.297576571779331;0.2761726526821952;0.07627133408952042;4.776592193666869;0.7359452995507656;-0.980422147445702;0.00012760418056477813;0.031100234526358905;-0.0713775874375446;1.6933021535797578e-05;0.011216478025899798;0.0;53.7032674;86.85218077142858
4.470811409677238;0.1931413782809071;4.6912815270009;-0.0020393596410727;0.020276421473517915;0.0448659121035994;4.579512630221572;0.21320124705696464;0.04545477174664487;4.776592193666869;0.5923116760062213;-0.979912307535434;8.079081254694018e-05;0.02651167533394505;-0.0723972672580809;1.2972080825667931e-05;0.010196798205363497;0.0;53.70306742857143;86.85215268571427
4.318927095427132;0.3162613022251285;5.194256435793755;0.0346691138982359;0.01970082936918719;0.0448659121035994;4.510078230777493;0.3091591551421975;0.09557938320823733;5.2864651140555505;0.9888885422762197;-0.979912307535434;9.309448462777866e-05;0.02651167533394505;-0.0734169470786173;3.5252372320147654e-05;0.017334556949117993;0.0;53.70286998571429;86.8521125
4.636864807961163;0.334548665841218;5.194256435793755;0.020393596410727;0.018201186187813915;0.0448659121035994;4.776592193666869;0.32594852418752984;0.10624244042002873;5.2864651140555505;0.9888885422762197;-0.979912307535434;8.767294703078978e-05;0.02549199551340886;-0.0734169470786173;3.564846639116071e-05;0.017334556949117993;0.0;53.7026762;86.85205402857142
4.457878118616635;0.3155305368525483;5.194256435793755;0.0448659121035994;0.01856745478136164;0.0448659121035994;4.5798251877163425;0.29144828748765134;0.08494210427948466;5.2864651140555505;0.8911977063814929;-0.979912307535434;0.00010215513650220345;0.02549199551340886;-0.0744366268991536;3.2232155028673905e-05;0.016314877128581692;0.0;53.7024836;86.85198942857143
5.194256435793755;0.396627337471432;5.194256435793755;0.0081574385642908;0.019452978514716227;0.0448659121035994;5.2864651140555505;0.38605033395152116;0.149034860344081;5.37641111264483;0.9811437049707727;-0.9763434281635566;0.00012082106959869379;0.029060874885286303;-0.0744366268991536;4.6392518067387464e-05;0.016314877128581692;0.0;53.70228922857143;86.85192671428571
4.234219625414532;0.48845017803553553;5.194256435793755;-0.0040787192821454;0.017675383970694257;0.0448659121035994;4.395267407674058;0.4594286048976041;0.21107464299815884;5.37641111264483;1.2729114783417312;-0.9763434281635566;0.00014300233757541555;0.029060874885286303;-0.0672988681553992;6.718745679556817e-05;0.02345263587233609;0.0;53.702095400000005;86.85187551428571
4.462411495556879;0.5173375196667568;5.194256435793755;0.0071377587437544;0.01868839070427632;0.0448659121035994;4.630560235482364;0.496666491012049;0.24667760329422175;5.37641111264483;1.2729114783417312;-0.9763434281635566;0.00026621234953987615;0.044356072193331375;-0.0672988681553992;8.35263372248532e-05;0.02345263587233609;0.0;53.7018622;86.85182882857143
5.191593263314999;0.6445888511768638;5.696726370099758;-0.0071377587437544;0.02087825483965959;0.0520036708473539;5.37641111264483;0.6225025977123274;0.3875094841585957;5.862733266123768;1.7592336318206687;-0.9763434281635566;0.00026621234953987615;0.044356072193331375;-0.0672988681553992;0.00011991747999916974;0.03059039461609049;0.0;53.70162881428571;86.85179658571428
3.852859335443955;0.6653228264105107;5.696726370099758;0.003059039461609;0.023162405774170863;0.0520036708473539;4.103499634303099;0.6480842070202815;0.4200131393891071;5.862733266123768;1.7592336318206687;-0.9763434281635566;0.0002636377380782935;0.044356072193331375;-0.0672988681553992;0.00012691101594049229;0.03059039461609049;0.0;53.70140335714285;86.85177958571428
5.022120954539064;0.6473139247218879;5.696726370099758;0.0285510349750178;0.024281647444984452;0.0520036708473539;5.230186273826504;0.6178567136340654;0.38174691858268744;5.862733266123768;1.7592336318206687;-0.9727745487916796;0.00028423462977097486;0.047924951565208374;-0.0672988681553992;0.00011891486688191793;0.03059039461609049;0.0;53.70117937142857;86.8517786857143
5.696726370099758;0.6689710197855026;5.888946732279188;0.0520036708473539;0.023134600396733703;0.0520036708473539;5.862733266123768;0.6324501693514547;0.3999932167126837;6.037230199806139;1.9337305655030397;-0.9727745487916796;0.00027888735981229526;0.047924951565208374;-0.0672988681553992;0.00012856965986285913;0.03568879371877229;0.0;53.70096267142857;86.85178872857144
5.37058553567353;0.7351772372635047;6.029221238623486;0.0402773529111858;0.01821648116214629;0.0520036708473539;5.526730465839978;0.6923031000562165;0.4792835823474477;6.143968675357084;2.040469041053985;-0.9727745487916796;0.0002355645707952466;0.047924951565208374;-0.0672988681553992;0.00015669233890478008;0.037728153359845;0.0;53.70075264285715;86.85180178571429
5.500539533182477;0.5826452836957199;6.029221238623486;0.0520036708473539;0.015176991804496592;0.0540430304884266;5.631413849957429;0.5726767194054593;0.32795862494899913;6.143968675357084;1.6759429674307924;-0.9727745487916796;0.0003656814731230011;0.05098399102681739;-0.0774956663607627;8.465272973929635e-05;0.027531355154481504;0.0;53.70054615714285;86.8518183857143
5.888946732279188;0.5989392440741611;6.029221238623486;0.020393596410727;0.01457795757430282;0.0540430304884266;6.037230199806139;0.6020260035165321;0.3624353089100876;6.143968675357084;1.6759429674307924;-0.9727745487916796;0.0002661628377809974;0.05098399102681739;-0.0774956663607627;9.326777578382845e-05;0.027531355154481504;0.0;53.70038255714286;86.85183764285715
6.029221238623486;0.61909403154671;6.029221238623486;0.0198837565004588;0.017256190072658422;0.0540430304884266;6.143968675357084;0.6226504152797401;0.3876935396480328;6.143968675357084;1.6759429674307924;-0.9727745487916796;0.00022618209248812202;0.05098399102681739;-0.0774956663607627;0.00010262549821150992;0.027531355154481504;0.0;53.70022024285714;86.85185818571429
4.322878919550464;0.9383084680060025;6.029221238623486;0.0540430304884266;0.027395467124901134;0.0540430304884266;4.468025707926292;0.9383969630044979;0.880588860176065;6.143968675357084;2.6491947702441885;-0.9727745487916796;0.0002278531143502054;0.05098399102681739;-0.0591414295911083;0.00025107412926334027;0.04588559192413591;30.0;53.70004744285715;86.85189384285715
4.890472907620839;1.1990165366195762;6.029221238623486;0.0387478331803813;0.025205604772849225;0.0540430304884266;4.9896892653709095;1.2002589872029001;1.4406216363613318;6.143968675357084;3.217416269671148;-0.9941878250229428;9.833035312895971e-05;0.029570714795554176;-0.0489446313857448;0.0004340695900713329;0.05608239012949941;0.0;53.69986598571428;86.85193547142856
4.782794352927245;1.0818949547048;6.029221238623486;0.0091771183848271;0.032315470602885706;0.0540430304884266;4.888192801776301;1.0828593347860531;1.1725843389332933;6.143968675357084;3.217416269671148;-0.9941878250229428;0.00016012102820697725;0.030590394616090588;-0.0489446313857448;0.00035029569405208954;0.05608239012949941;0.0;53.69966194285714;86.8519984
3.365466129214979;1.0504605758096728;5.911453348167378;-0.0244723156928724;0.033214025644748214;0.0540430304884266;3.4947739051128957;1.0266539467846252;1.054018326448448;5.931209723541907;3.0046573178559712;-0.974813908432752;0.000292763030237452;0.04996431120628142;-0.0489446313857448;0.00031207261619933786;0.052003670847353994;0.0;53.699445942857146;86.85207862857143
2.8097846728848777;1.0507106106249298;5.911453348167378;0.0040787192821454;0.027278420485004902;0.0387478331803813;2.926552405685936;1.0253688329443618;1.0513812435736825;5.931209723541907;3.0046573178559712;-0.974813908432752;0.0002214660974551249;0.04996431120628142;-0.0489446313857448;0.0003106862869507924;0.052003670847353994;0.0;53.69922325714286;86.85217777142857
3.698177770724437;1.0318486459660656;5.911453348167378;-0.0367084735393086;0.026569506168968606;0.0356887937187723;3.7554503450213526;1.008744862263174;1.0175661971423502;5.931209723541907;3.0046573178559712;-0.974813908432752;0.00024325127136083665;0.04996431120628142;-0.0489446313857448;0.00029509008290465674;0.052003670847353994;0.0;53.698987228571426;86.85228917142857
5.911453348167378;1.0595404899829548;5.911453348167378;-0.0163148771285816;0.028362255666086578;0.0356887937187723;5.931209723541907;1.0234345480422613;1.0474182741264675;5.931209723541907;3.0046573178559712;-0.974813908432752;0.00026473937471328726;0.04996431120628142;-0.0489446313857448;0.00031984596234296706;0.052003670847353994;0.0;53.69875115714286;86.85240418571428
4.343295656442658;1.0089147668516756;5.911453348167378;0.0254919955134087;0.0259250198519785;0.0356887937187723;4.348935627893153;0.9818386637860705;0.9640071617052165;5.931209723541907;3.0046573178559712;-0.974813908432752;0.0002954985549153923;0.04996431120628142;-0.0489446313857448;0.0002881584366619292;0.052003670847353994;0.0;53.6985203;86.85251344285714
3.6316102219419326;1.1178236085450863;6.602350658570244;0.0356887937187723;0.03385877916322134;0.0356887937187723;3.633177994305569;1.1116124555884022;1.2356822514192771;6.603854297386918;2.970676303081349;-0.974813908432752;0.0003495901514880961;0.04996431120628142;-0.0642398286937901;0.0003891624247702355;0.05404303048842661;0.0;53.69829588571428;86.85262548571428
5.000373062519188;1.0690332389203505;6.602350658570244;0.0265116753339451;0.029900967699547327;0.0356887937187723;5.000613491880866;1.0709287966622008;1.1468884875203496;6.603854297386918;2.970676303081349;-0.974813908432752;0.000264850776170763;0.04588559192413599;-0.0642398286937901;0.0003671792038290154;0.05404303048842661;30.0;53.698070085714285;86.85273248571427
4.368978269116875;1.2713304407704944;7.023542010416772;0.0119812378913021;0.028425847575429028;0.0356887937187723;4.37037562118807;1.2711240017148582;1.615756227735595;7.025926162605194;3.3927481682996254;-0.9875599061894564;0.00015478613618802894;0.03313959416743151;-0.0642398286937901;0.0005137835218626904;0.05812174977057201;0.0;53.69785715714285;86.85282675714286
6.602350658570244;1.348081138694313;7.029001429699009;-0.0499643112062812;0.02813368551854613;0.0356887937187723;6.603854297386918;1.3481401971984783;1.8174819913023519;7.029258257328083;3.396080263022514;-0.9875599061894564;0.00015837573870658425;0.03313959416743151;-0.0642398286937901;0.0005593343400291818;0.05812174977057201;0.0;53.69764637142857;86.85290122857144
5.918057317758568;1.1812665680660952;7.606022485490357;0.0010196798205363;0.02526146448122353;0.0265116753339451;5.920137401674329;1.181203424445813;1.3952415299225152;7.606288732794007;3.235913111605937;-0.9875599061894564;0.00014503231968933673;0.03313959416743151;-0.07545630671969;0.0004347627546956023;0.058121749770571995;0.0;53.6974568;86.85297131428572
7.023542010416772;1.064555210239877;7.606022485490357;0.0050983991026817;0.02310401601245201;0.0224329560517997;7.025926162605194;1.0643151151204593;1.1327666642738763;7.606288732794007;3.235913111605937;-0.9875599061894564;0.00012475725442936473;0.03313959416743151;-0.07545630671969;0.0003634658219132674;0.058121749770571995;0.0;53.697273571428575;86.85303311428572
7.029001429699009;0.7885923910611226;7.606022485490357;0.0224329560517997;0.022486689740093126;0.0224329560517997;7.029258257328083;0.7855666246433407;0.6171149217535313;7.606288732794007;2.2508847932956497;-0.99214846538187;0.0001110548751602589;0.028551034975017986;-0.0927908636688079;0.00019849264133636608;0.0407871928214541;0.0;53.69709558571429;86.8530891857143
7.606022485490357;1.168128879189565;7.606022485490357;0.0050983991026817;0.010062997805942622;0.0224329560517997;7.606288732794007;1.1504914231946022;1.3236305148443412;7.606288732794007;3.3462007092585155;-0.971754868971143;0.00010154861745595798;0.031610074436627;-0.0713775874375446;0.00044446705943542017;0.062200469052717394;0.0;53.69691855714286;86.85314255714286
5.984432390738405;1.2881725205653567;7.606022485490357;-0.0040787192821454;0.01312587303576105;0.0224329560517997;5.98514822821163;1.2632389687204488;1.5957726920939033;7.606288732794007;3.3462007092585155;-0.971754868971143;0.0001297703200156306;0.03772815335984503;-0.0713775874375446;0.000525666343993079;0.062200469052717394;0.0;53.696758085714286;86.8531868857143
5.342802578449739;1.2352179978813196;7.606022485490357;-0.0096869582950953;0.01364193254922103;0.0224329560517997;5.355403939498357;1.2075798533317383;1.4582491021727026;7.606288732794007;3.3462007092585155;-0.971754868971143;0.00013046348463990293;0.03772815335984503;-0.0713775874375446;0.0004848191429198671;0.062200469052717394;0.0;53.69659395714286;86.85323121428573
4.200877092207626;1.2121780977739711;7.606022485490357;0.0061180789232181;0.01080102225963057;0.0112164780258998;4.260088023535491;1.1938248539706187;1.4252177819579688;7.606288732794007;3.3462007092585155;-0.9697155093300704;0.00021106862809104631;0.03976751300091763;-0.0713775874375446;0.0004496657941174664;0.062200469052717394;0.0;53.6964314;86.85328808571428
4.734123918886635;0.8727602386017593;6.894576471882586;-0.0183542367696543;0.016985799860877504;0.0316100744366268;4.799955157974045;0.8668301273206858;0.7513944696307963;6.95006474169219;2.6899767181566983;-0.9697155093300704;0.00021106862809104631;0.03976751300091763;-0.0713775874375446;0.00021616833925532127;0.0458855919241358;0.0;53.696261057142856;86.85334448571429
5.093523299225903;0.849005211856857;6.894576471882586;0.0112164780258998;0.01762453963234777;0.0316100744366268;5.172063182780354;0.8534732890141419;0.728416655060617;6.95006474169219;2.6899767181566983;-0.9697155093300704;0.00021621785101421441;0.03976751300091763;-0.0713775874375446;0.00020428551712493227;0.0458855919241358;0.0;53.69609002857142;86.8534075142857
6.894576471882586;0.8595552881343685;6.894576471882586;-0.0112164780258998;0.019683229237336952;0.0336494340776996;6.95006474169219;0.8624287406158166;0.7437833326401835;6.95006474169219;2.6899767181566983;-0.9697155093300704;0.0002224068208737909;0.03976751300091763;-0.0713775874375446;0.0002112171633676591;0.0458855919241358;30.0;53.69591832857143;86.85347352857141
5.5285307049882615;0.6867912193263439;6.894576471882586;0.0316100744366268;0.019910817495148236;0.0336494340776996;5.66765991041802;0.6872586069262328;0.47232439279418603;6.95006474169219;2.1501095837181445;-0.9697155093300704;0.00014903039421863208;0.03976751300091763;-0.0836137452839808;0.00011714482150207873;0.0336494340776996;0.0;53.695747371428574;86.85354394285716
5.727341305350232;0.8243413398755642;6.894576471882586;0.0152951973080452;0.01565829588291853;0.0336494340776996;5.837215920494102;0.8414510644709747;0.7080398938993365;6.95006474169219;2.7849024492684453;-0.9697155093300704;0.00012630449689426913;0.030590394616090366;-0.0713775874375446;0.00019260074203004943;0.0458855919241358;0.0;53.695583057142855;86.85362099999999
5.718960693950706;0.9786449713083798;6.894576471882586;0.0336494340776996;0.01633459116678794;0.0346691138982359;5.78859235875746;1.0080436203116603;1.0161519404510388;6.95006474169219;2.86944393387022;-0.9697155093300704;0.00013670196625835816;0.030590394616090366;-0.0713775874375446;0.00027256223261579263;0.0458855919241358;0.0;53.69542308571429;86.85370971428571
5.251485260378326;0.7551872708022719;5.727341305350232;0.0193739165901906;0.011132848261244652;0.049454471296013;5.277615652054257;0.802206344894349;0.6435350197887514;5.837215920494102;1.756595112672132;-0.9819516671765066;5.084857636629355e-05;0.018354236769654197;-0.0713775874375446;0.00018314399608461535;0.02855103497501779;0.0;53.69527221428571;86.85381484285715
4.155612875366919;0.8980771324115304;5.727341305350232;0.0295707147955541;0.019719355371747335;0.0734169470786173;4.165162292423744;0.930240541537138;0.8653474651193077;5.837215920494102;2.385669210911742;-0.9819516671765066;5.7186081502504884e-05;0.018354236769654197;-0.0591414295911083;0.00025642139922201564;0.0407871928214541;0.0;53.69513561428572;86.85395984285715
4.079025236833814;0.9758825630928966;5.718960693950706;0.0346691138982359;0.034133536762909984;0.0734169470786173;4.08062080782197;0.986199340397074;0.9725891389996238;5.78859235875746;2.859339776095988;-0.9676761496889976;0.00013482051942105298;0.03262975425716319;-0.0489446313857448;0.0003084087460424689;0.050983991026817596;0.0;53.695035114285716;86.85415191428571
4.307313459141329;1.0528308587821944;5.251485260378326;0.049454471296013;0.046887455631324765;0.0734169470786173;4.310318701392015;1.0240300308390742;1.0486375040602753;5.277615652054257;3.1404900245065335;-0.9503415927398796;0.0003056360875454071;0.0499643112062812;-0.0336494340776996;0.00035990097527415535;0.058121749770571995;120.0;53.69497962857143;86.85440362857143
3.430035257543411;1.4201181734925092;4.307313459141329;0.0734169470786173;0.05352185960320276;0.0734169470786173;3.45154670958236;1.2536187155509286;1.5715598839795604;4.310318701392015;3.4011832886066213;-0.9503415927398796;0.00047991747879110844;0.0683185479759355;-0.0071377587437544;0.0006105790104664901;0.0672988681553992;120.0;53.69497918571428;86.85470672857141
2.89333315359057;1.5113376827567426;4.307313459141329;-0.037728153359845;0.05832318571683804;0.0734169470786173;2.9292525826614715;1.277292557731454;1.6314762780361598;4.310318701392015;3.4011832886066213;-0.8417456918527583;0.0033970884221030603;0.17691444886305685;-0.0071377587437544;0.0007131673748588495;0.0672988681553992;120.0;53.69502801428571;86.8550335
2.024218367942302;1.3618011221841035;4.307313459141329;-0.0571020699500356;0.05520762616474467;0.0734169470786173;2.1371256275477233;1.148991170957842;1.320180710939073;4.310318701392015;3.4011832886066213;-0.8417456918527583;0.0038464076339084184;0.17691444886305685;-0.0071377587437544;0.0005689891330101284;0.0672988681553992;120.0;53.695131814285716;86.85538964285715
0.4009226102611805;1.122509141209953;3.430035257543411;-0.0530233506678902;0.06836717744041648;0.0734169470786173;0.9091354127853938;1.015342941756761;1.0309212893752735;3.708088973951579;2.798953561166185;-0.8417456918527583;0.005111383561447203;0.20444580401753842;-0.0071377587437544;0.00040322376429120094;0.0520036708473539;120.0;53.69528798571429;86.85574695714287
0.9686581978231352;1.016348708738492;3.034978209018291;-0.0657693484245946;0.047334377005555095;-0.0132558376669725;1.6100252858793962;0.9298035183973267;0.8645345828240477;3.708088973951579;2.798953561166185;-0.8417456918527583;0.005219071637003852;0.20444580401753842;-0.0071377587437544;0.0003262824909969324;0.048944631385744904;120.0;53.69548074285715;86.85609697142857
2.497839036941058;1.0272564968812643;3.034978209018291;-0.0132558376669725;0.05364959884951928;0.0096869582950953;2.9315415853172473;0.8987089924924954;0.8076778531868761;3.708088973951579;2.798953561166185;-0.8417456918527583;0.015313281477974968;0.3808504129703273;-0.0071377587437544;0.00032048961520836843;0.048944631385744904;120.0;53.69568851428572;86.85644371428573
3.034978209018291;1.3378639389478302;3.772504601605631;-0.1560110125420618;0.05516074698500375;0.0096869582950953;3.708088973951579;1.182133166973657;1.397438824459168;4.33004236337177;3.420906950586376;-0.8417456918527583;0.017232481031429967;0.3808504129703273;-0.0071377587437544;0.0006650914569896516;0.0672988681553992;120.0;53.69589962857143;86.85675357142857
1.233586155020264;1.380078521353006;3.772504601605631;-0.0214132762312633;0.05615793239912759;0.0096869582950953;2.427194585338848;1.0316658677607642;1.0643344627025704;4.33004236337177;2.7200170774923738;-0.8417456918527583;0.0174400590805202;0.3808504129703273;-0.003059039461609;0.0007007399233808189;0.0713775874375446;120.0;53.69611895714286;86.85703141428573
0.4300551681865293;1.3412341975443136;3.772504601605631;0.0096869582950953;0.05494828206481433;0.0096869582950953;2.1677978150782975;0.9716636832420548;0.9441303133315161;4.33004236337177;2.685666680795239;-0.8881411236871622;0.012143105446803451;0.3344549811359233;-0.003059039461609;0.0006518223056107171;0.0713775874375446;120.0;53.69634317142857;86.85729951428571
3.772504601605631;2.5871567907317154;3.772504601605631;-0.0152951973080452;0.057955932398070356;0.0163148771285816;4.33004236337177;1.1601149140563085;1.3458666138158761;4.405081212311137;2.760705529734606;-0.9615580707657796;0.0075092875556007225;0.26103803405730597;0.0774956663607627;0.0023564131402150318;0.1519322932599163;120.0;53.69656211428571;86.85755502857144
0.1655792177476672;2.562820463521628;3.772504601605631;-0.0142755174875089;0.01796925234946654;0.0163148771285816;1.6443756825765303;1.1164045805836578;1.2463591875481728;4.405081212311137;2.760705529734606;-0.9615580707657796;0.008556238452926326;0.26103803405730597;0.0774956663607627;0.0022690743975566714;0.1519322932599163;120.0;53.69677007142857;86.85780321428571
1.638981760242421;2.6131311208404098;3.772504601605631;-0.0346691138982359;0.026504262476560746;0.0163148771285816;2.0070649796361835;1.1163958083485073;1.2463396008981171;4.405081212311137;2.760705529734606;-0.9615580707657796;0.008913465793221147;0.26103803405730597;0.0774956663607627;0.0023403713303390065;0.1519322932599163;120.0;53.69697177142857;86.85804514285714
-4.193135189483566;2.6086513581850452;3.772504601605631;0.0163148771285816;0.025116993434351455;0.0163148771285816;4.405081212311137;1.288932273632587;1.6613464060116703;4.405081212311137;3.309693913564866;-0.9615580707657796;0.0034968793721188124;0.1672274905679616;0.0774956663607627;0.0023376481836007925;0.1519322932599163;120.0;53.6971701;86.85826541428571
2.854981858567516;2.436763210206375;2.854981858567516;-0.0007647598654022;0.029593675885299882;0.0163148771285816;3.1023489604604513;1.0836960911966307;1.174397218074856;4.405081212311137;3.309693913564866;-0.9615580707657796;0.0023887071849422793;0.12847965738758016;0.0774956663607627;0.0019184816329513169;0.1264402977465075;120.0;53.697370571428564;86.85848417142857
2.203029841296866;2.4366831286844732;2.854981858567516;-0.0601611094116447;0.03504653854301227;0.0224329560517997;2.4273275631684132;1.0956976488493233;1.200553337693935;4.405081212311137;3.309693913564866;-0.9595187111247068;0.0025471943251063607;0.13051901702865298;0.0774956663607627;0.0019184816329513169;0.1264402977465075;120.0;53.697557585714286;86.8587041
0.5731803280177068;2.64972476172941;3.210591376208124;-0.0346691138982359;0.03506189875922882;0.0224329560517997;1.0953872987462705;1.14387386590887;1.3084474211093036;4.405081212311137;3.309693913564866;-0.945243193637198;0.002830797679951648;0.14479453451616175;0.0774956663607627;0.0022205033620987056;0.1305190170286529;120.0;53.69772821428571;86.85892958571428
-1.551342061954854;1.988259835615276;3.210591376208124;-0.0632201488732537;0.06193380857886991;0.1172631793616804;2.076169190991481;0.8328329996622085;0.6936108053263522;3.413724619939808;2.3183373211935376;-0.945243193637198;0.004674615580517012;0.17946364841439777;0.0316100744366268;0.0012357144780427078;0.08463342510451699;120.0;53.69789601428572;86.85917052857143
0.1826140270848933;1.8982370504248234;3.210591376208124;0.0224329560517997;0.06227485085721184;0.1172631793616804;1.5453054715592072;0.7559079435784397;0.5713968191649855;3.413724619939808;2.3183373211935376;-0.9319873559702252;0.005561903433405234;0.19271948608137057;0.0316100744366268;0.001094308894691079;0.08463342510451699;120.0;53.698057857142864;86.85943111428571
3.210591376208124;1.8324900132486899;3.210591376208124;-0.0050983991026817;0.057729849415212565;0.1172631793616804;3.413724619939808;0.7310332856451821;0.5344096647211903;3.413724619939808;2.3183373211935376;-0.9319873559702252;0.005408317957369951;0.19271948608137057;0.0316100744366268;0.0010292504435271978;0.08463342510451699;120.0;53.698214271428576;86.8597009
-1.601208904845573;1.8943149284933645;3.210591376208124;0.1172631793616804;0.05568147215056379;0.1172631793616804;1.801204992645864;0.6859455410454052;0.4705212852800737;3.413724619939808;2.0467459368789385;-0.9319873559702252;0.0057582670691099175;0.19271948608137057;0.0316100744366268;0.001082723143113949;0.08463342510451699;120.0;53.69835912857143;86.85997375714285
-1.2532062940176003;2.599025828739564;3.210591376208124;-0.0214132762312633;0.0802807272309404;0.1172631793616804;1.5789170925859313;1.302438857653964;1.6963469779269627;4.868948036378326;3.501969353317456;-0.9319873559702252;0.004323861902695342;0.19271948608137057;0.0836137452839808;0.0019959180238343518;0.136637095951871;120.0;53.69848857142857;86.86024217142858
1.7880512621321845;2.6138337451740843;3.210591376208124;-0.0081574385642908;0.1032258405783856;0.1172631793616804;1.9117564362256367;1.4593794207083584;2.1297882935870636;4.868948036378326;4.360363763066403;-0.9319873559702252;0.004178990496222342;0.19271948608137057;0.0836137452839808;0.0020214165796558115;0.136637095951871;120.0;53.698606042857136;86.86050592857144
-1.2160902130452436;2.8147140866883675;1.7880512621321845;0.0173345569491179;0.10654463386148759;0.1172631793616804;1.3669786830608694;2.1017200885037024;4.417227330420011;6.2479488273215855;5.739364554009663;-0.9319873559702252;0.007192177117935734;0.22432956051799757;0.1264402977465075;0.0029102516750089172;0.1580503721831343;120.0;53.69872071428572;86.86077785714285
-4.832928403171139;3.0115543078461324;1.7880512621321845;-0.1539716529009891;0.0864202102084188;0.0387478331803813;4.868948036378326;2.174396948138539;4.728002088074192;6.2479488273215855;5.739364554009663;-0.9075150402773527;0.006569962844133269;0.24880187621087002;0.1264402977465075;0.003272380679432523;0.1580503721831343;120.0;53.69882591428571;86.86102934285715
0.4604699403961547;3.8891507422422347;1.7880512621321845;-0.1835423676965432;0.09157594216411571;0.0387478331803813;0.508584273311922;2.954496760387575;8.729051107140675;8.049331753068177;7.540747479756255;-0.9075150402773527;0.006569962844133268;0.24880187621087002;0.1315386968491893;0.004756495651759244;0.16314877128581612;120.0;53.698936728571425;86.86126084285715
-6.23688098679836;3.439164978780009;0.9654483704362532;0.0387478331803813;0.09157594216411571;0.0387478331803813;6.2479488273215855;2.941182187370135;8.65055265930337;8.049331753068177;7.540747479756255;-0.9075150402773527;0.007031610483898895;0.24880187621087002;0.1315386968491893;0.0037302654255235196;0.14683389415723452;120.0;53.69905617142857;86.86146805714286
0.9654483704362532;3.443594204693259;0.9654483704362532;-0.0142755174875089;0.11940997824135766;0.1651881309268889;0.9949592146306563;2.953626708479472;8.72391073304328;8.049331753068177;7.540747479756255;-0.9075150402773527;0.006965066679968713;0.24880187621087002;0.1315386968491893;0.0037302654255235196;0.14683389415723452;120.0;53.699180399999996;86.86166177142857
-8.028061325494425;3.884722428775988;2.555600276736929;0.0346691138982359;0.11325748951376519;0.1651881309268889;8.049331753068177;2.8942416951526777;8.376634989960245;8.049331753068177;7.540747479756255;-0.9075150402773527;0.006973533190736615;0.24880187621087002;0.1315386968491893;0.004751445452353831;0.1753849291322524;120.0;53.69930644285714;86.86184632857143
-2.01610252607379;4.245487290081994;2.995863081758083;-0.0081574385642908;0.07958014555245381;0.1651881309268889;2.0753699969261015;2.6666115217360913;7.110817007855672;8.049331753068177;7.054372538437521;-0.9075150402773527;0.007396413123301849;0.24880187621087002;0.1315386968491893;0.005560133388025404;0.179973488324666;120.0;53.69944379999999;86.86202391428571
-1.1650570567619425;4.2558902919024195;2.995863081758083;0.1651881309268889;0.08170750305305333;0.1651881309268889;1.2632706794179467;2.674776766925162;7.1544307528826225;8.049331753068177;7.054372538437521;-0.9075150402773527;0.0008996286587882653;0.08157438564290842;0.1315386968491893;0.004957575282496925;0.179973488324666;120.0;53.69959221428571;86.86217232857143
2.555600276736929;4.129437827149431;2.995863081758083;0.1294993372081166;0.08170750305305333;0.1651881309268889;2.5668250257942002;2.6981032819367856;7.279761319998053;8.049331753068177;7.2028756874961655;-0.9238299174059346;0.000687520283760806;0.0652595085143266;0.1315386968491893;0.004673996683531078;0.179973488324666;120.0;53.699747342857144;86.86230551428571
2.995863081758083;3.101446018985693;2.995863081758083;-0.0550627103089629;0.08881533602066934;0.1651881309268889;2.9980979309341484;1.9948133199738451;3.9792801815450747;6.294489163025605;6.026627893235703;-0.9238299174059346;0.0006536047289303179;0.0652595085143266;0.1060467013357805;0.002696620813396016;0.1544814928112572;120.0;53.69990012857143;86.86242172857143
-6.2933348041544255;3.3978010907552956;2.995863081758083;-0.0071377587437544;0.08800582604323473;0.1651881309268889;6.294489163025605;2.1447737449205606;4.600054416900566;6.294489163025605;6.026627893235703;-0.9238299174059346;0.0014760445556298532;0.1182828591822167;0.1060467013357805;0.0033727533926151566;0.1544814928112572;120.0;53.70005442857143;86.8625358
-0.8415495229824562;3.757576357570891;3.195799333639701;-0.0142755174875089;0.06509314327287845;0.1294993372081166;0.8464560655720117;2.0556501149685675;4.225697395170284;6.294489163025605;6.026627893235703;-0.8942592026103804;0.00219896574698741;0.14785357397777088;0.1060467013357805;0.0040508911980687975;0.15601101254206168;120.0;53.7002093;86.86263581428571
-0.2489198715911324;4.217226764509886;3.195799333639701;-0.0571020699500356;0.0546629184018205;0.0418068726419904;0.26786126978990255;2.579355865348023;6.65307668010525;7.161205989691545;6.893344719901643;-0.8942592026103804;0.00511605004472129;0.20495564392780663;0.1376567757724074;0.005553523568215376;0.1876210869786886;120.0;53.70036435714286;86.86272138571428
-4.4722827648381545;3.642989889565282;3.195799333639701;0.0418068726419904;0.06887539939257578;0.0968695829509534;4.478517115804753;2.5675000761329314;6.592056640942608;7.161205989691545;6.893344719901643;-0.8942592026103804;0.005214281374332487;0.20495564392780663;0.1376567757724074;0.004199438852638382;0.1876210869786886;120.0;53.700514171428566;86.86277977142856
3.195799333639701;3.6206571463626;3.195799333639701;0.0326297542571632;0.08602801677268766;0.0968695829509534;3.2036044217404083;2.2944028416539277;5.264284399789618;7.161205989691545;6.893344719901643;-0.8942592026103804;0.0051479356174378085;0.20495564392780663;0.1376567757724074;0.0044298170666913;0.1876210869786886;120.0;53.7006518;86.86281134285716
-7.100940730167519;3.689087274078373;3.195799333639701;-0.113184460079535;0.091392744364561;0.0968695829509534;7.161205989691545;2.068833177924187;4.280070718079892;7.161205989691545;6.893344719901643;-0.8942592026103804;0.005049704287826583;0.20495564392780663;0.1376567757724074;0.004609544751413434;0.1876210869786886;120.0;53.70077595714286;86.86281115714284
-2.7674389671065125;3.7269340850947783;3.195799333639701;0.0968695829509534;0.09147938284294728;0.0968695829509534;3.429763567339783;1.5326371909054228;2.3489767589464656;7.161205989691545;4.341859249877926;-0.8942592026103804;0.003948562770410517;0.20495564392780663;0.1376567757724074;0.0047075780339891436;0.1876210869786886;120.0;53.700897757142855;86.86278667142857
2.079267303487436;3.4550437361486988;3.195799333639701;-0.1386764555929438;0.0861844189321406;0.0968695829509534;2.9327016875753356;1.5252424926655455;2.3263646614326063;7.161205989691545;4.341859249877926;-0.8942592026103804;0.003902516834655261;0.20495564392780663;0.1376567757724074;0.004098583399806702;0.1876210869786886;120.0;53.70100298571429;86.86274195714284
0.4492757552471113;3.247233244113159;2.079267303487436;-0.1050270215152442;0.0774502913805892;0.0968695829509534;2.8193467398136196;1.5052731624842797;2.265847293695425;7.161205989691545;4.341859249877926;-0.9972468644845518;0.0010071186873093097;0.10196798205363522;0.1376567757724074;0.003792600729949183;0.1753849291322524;120.0;53.70110272857143;86.8626881
0.4007904686826775;1.9332027092071593;2.079267303487436;-0.0591414295911083;0.074852185392253;0.0968695829509534;3.338987642148467;0.7191738585487257;0.5172110388198625;4.4717451156395205;1.6523983758259009;-0.9972468644845518;0.00036836748604203825;0.0530233506678901;0.0509839910268175;0.0012169990331873468;0.0887121443866625;120.0;53.70119877142857;86.8626342
-1.6921783580227308;1.3734102830084256;2.079267303487436;-0.0856531049250535;0.03109048196069465;-0.0530233506678902;4.346191034754222;0.7992550878233216;0.6388086954114655;4.690126650559863;1.8707799107462435;-0.9972468644845518;0.0002473731252873056;0.03772815335984503;0.0305903946160905;0.0006005776351734135;0.0683185479759355;120.0;53.70128388571429;86.86258765714287
1.9859994552762013;1.349316344842768;2.0398876448738203;-0.0713775874375446;0.018345804940191474;-0.0530233506678902;4.4717451156395205;0.8073396347549933;0.651797285846326;5.138860878706733;2.3195141388931138;-0.9972468644845518;0.00023961525156832944;0.03772815335984503;0.0305903946160905;0.0005717246576880617;0.0662791883348628;120.0;53.70135925714286;86.862546
2.0398876448738203;1.3756065167172145;2.0398876448738203;-0.058121749770572;0.010744721669757795;-0.0530233506678902;4.42465465128912;0.6864194020274188;0.47117159547967913;5.5151589675301995;2.1761713253817323;-0.9972468644845518;0.00015251168976464;0.034669113898236015;0.0305903946160905;0.0005958616401404142;0.0662791883348628;120.0;53.70142546428571;86.86252077857144
1.4482106734702784;1.5287303470586935;3.2293109411242256;-0.0530233506678902;0.010393376733721793;-0.0530233506678902;4.690126650559863;0.6817533918974729;0.4647876873637092;6.174163029692112;1.82797199493789;-0.9737942286122158;0.000290302914718286;0.05812174977057205;0.0305903946160905;0.0007203589578356778;0.0856531049250534;120.0;53.70148152142857;86.86251100714286
1.8899178234807483;0.7793109960521634;3.554436190993599;-0.0667890282451309;0.014416587176732843;-0.0530233506678902;5.138860878706733;0.8076098530773146;0.6522336747875617;6.423646037627385;1.9989913863382656;-0.9737942286122158;0.00015451072702929607;0.039257673090649425;-0.0254919955134087;0.00018513684437940353;0.037728153359844994;120.0;53.701539649999994;86.86249965
1.916674770755423;1.3115584237662905;5.160640200257434;-0.0657693484245946;0.015420525281088632;-0.0530233506678902;5.5151589675301995;0.9464748633995079;0.8958146670471171;6.993317031161606;2.568662379872486;-0.9737942286122158;0.00016724762700030848;0.039257673090649425;-0.0254919955134087;0.0005180043993069282;0.06423982869379019;120.0;53.70159445;86.86248862142857
3.2293109411242256;1.4392570933996278;5.160640200257434;-0.0642398286937901;0.01730132122782344;-0.0469052717446721;6.174163029692112;0.8524562694239373;0.7266816912801763;6.993317031161606;2.303190380601743;-0.9737942286122158;0.00020023483635185472;0.03976751300091774;-0.0193739165901906;0.0006229693281253657;0.0703579076170083;120.0;53.70164729285714;86.86247197857143
3.554436190993599;1.5324653723232735;5.160640200257434;-0.0978892627714897;0.06357188797231442;-0.0469052717446721;6.423646037627385;0.9261402272845572;0.8577357205946914;6.993317031161606;2.6441317639540527;-0.9737942286122158;0.0007082935610944341;0.08565310492505362;-0.0163148771285816;0.0006967170929720926;0.0734169470786173;120.0;53.70170402142857;86.86244824999999
5.160640200257434;1.6208056075386366;5.160640200257434;-0.0825940654634444;0.06298466313548629;-0.0469052717446721;6.993317031161606;0.9744238691224696;0.9495018767156037;6.993317031161606;2.6441317639540527;-0.9401447945345162;0.0013767858570219373;0.11930253900275323;-0.0163148771285816;0.0007914949774016649;0.0734169470786173;120.0;53.701774564285714;86.86243102142858
1.0938871667226495;2.0655364385568507;5.160640200257434;-0.0469052717446721;0.06177474253621448;-0.0469052717446721;4.944953382698968;1.030791136772413;1.0625303676485636;6.993317031161606;2.6441317639540527;-0.9401447945345162;0.0017286164155992014;0.11930253900275323;0.0173345569491179;0.0013064172697185236;0.1070663811563168;120.0;53.70185691428571;86.86241097142859
0.8615767184478567;2.481294773757634;5.160640200257434;-0.2335066789028245;0.06067655954573136;-0.0469052717446721;4.349185267207553;1.0046011540715942;1.0092234787619792;6.993317031161606;2.6441317639540527;-0.9401447945345162;0.0017232691456405163;0.11930253900275323;0.0387478331803813;0.0019304634785994573;0.12847965738758022;120.0;53.7019441;86.86239575714285
1.052833316110244;2.44141782302547;5.160640200257434;-0.0764759865402263;0.061112367683001954;-0.0469052717446721;4.735483835798006;0.9204714559622328;0.8472677012412327;6.993317031161606;2.7007584804050646;-0.9401447945345162;0.0017473689942737092;0.11930253900275323;0.0387478331803813;0.0018547104875182281;0.12847965738758022;120.0;53.7020336;86.86239017142857
-0.944037848902595;1.334323681808487;1.0938871667226495;-0.0887121443866625;0.06166885527616156;-0.0469052717446721;4.709592238937979;0.4261490757016125;0.18160303472133865;4.944953382698968;1.235221261134103;-0.9401447945345162;0.0016146774804843597;0.11930253900275323;0.0387478331803813;0.0005779012496079214;0.0581217497705719;120.0;53.70212251428571;86.86238765714286
-2.11310741323116;1.2100030300661924;1.052833316110244;-0.078515346181299;0.0634683164298773;-0.0346691138982359;4.820149721776681;0.5306140398301196;0.28155125926483976;4.820149721776681;1.3630894959612148;-0.9401447945345162;0.0016696355328374055;0.11930253900275323;0.0387478331803813;0.00047506532642118006;0.0560823901294992;120.0;53.70220955714286;86.86238692857141
-1.5830355134715504;2.6720721958884988;5.815679053145204;-0.0815743856429081;0.02451274578105597;-0.0265116753339451;4.292558550756541;1.0071270514164155;1.014304897694723;6.5530616456658315;3.0960014198503654;-0.9401447945345162;0.0017945537004831296;0.10808606097685336;0.0387478331803813;0.002131382196120789;0.1376567757724074;120.0;53.7022921;86.86239267142857
0.2306719897041773;3.0563336286058873;5.815679053145204;-0.0723972672580809;0.042675994874374436;0.0295707147955541;3.7097321215648646;1.014787798237181;1.0297942754510652;6.5530616456658315;3.0960014198503654;-0.9676761496889976;0.0012344271723119108;0.0805547058223719;0.0387478331803813;0.002780184284440032;0.1376567757724074;120.0;53.70236632857143;86.86239741428571
-0.6710344284643882;2.9693591783731903;5.815679053145204;-0.0346691138982359;0.04298694993591958;0.0295707147955541;3.457060225815466;1.2881232908154345;1.6592616123411847;6.5530616456658315;4.023204001491182;-0.9676761496889976;0.0010536102288944919;0.07953502600183548;0.0387478331803813;0.0026259551555393567;0.1376567757724074;120.0;53.70244202857143;86.86241094285712
5.815679053145204;3.0285141757699177;5.815679053145204;-0.0265116753339451;0.052916793506657116;0.0418068726419904;6.5530616456658315;1.336318676700321;1.785747605698097;6.5530616456658315;4.023204001491182;-0.9676761496889976;0.0007917425361960461;0.07647598654022647;0.0428265524625267;0.0027027974053158727;0.1417354950545528;120.0;53.70252342857143;86.86243017142858
4.156616832996754;2.829872924707521;5.815679053145204;0.0295707147955541;0.06595118274566648;0.0418068726419904;4.950201880114996;1.4294967954038202;2.0434610880697917;6.5530616456658315;4.023204001491182;-0.9676761496889976;0.0007003933410686834;0.07647598654022647;0.0428265524625267;0.002350323193873206;0.1417354950545528;120.0;53.70259685714286;86.86247068571429
1.0437171279073514;2.950383350910339;5.815679053145204;-0.0907515040277353;0.06499532890225418;0.0418068726419904;2.52985764417465;1.630586968945854;2.6588138632960274;6.5530616456658315;4.747452455322575;-0.9676761496889976;0.0007662934921334654;0.07647598654022647;0.0428265524625267;0.0025624315689006505;0.1417354950545528;120.0;53.70265954285714;86.86253337142855
-2.4419517953135084;2.8541189980733987;5.815679053145204;0.0418068726419904;0.06495722902975877;0.0418068726419904;3.1478798144462927;1.8269898761869057;3.337892007689445;6.5530616456658315;5.125412369204948;-0.9676761496889976;0.0003796561670659341;0.054043030488426735;0.0428265524625267;0.0023921111183650735;0.1417354950545528;120.0;53.70270685714286;86.8626136
2.055369306002228;2.43889814049966;4.156616832996754;-0.1437748546956255;0.07777786453294058;0.0713775874375446;2.69450369293323;1.1323311003851493;1.2821737208994428;4.950201880114996;3.5225526036541126;-0.9676761496889976;0.00030558657578650745;0.054043030488426735;0.0438462322830631;0.0017613313102769201;0.1142041399000713;120.0;53.70274031428572;86.86270191428572
-0.9705301360292864;1.8623048213911282;2.055369306002228;-0.0560823901294993;0.07578439344367083;0.0713775874375446;1.8056091903432565;0.5971066585309414;0.35653636166198616;3.1478798144462927;1.7202305379854095;-0.9839910268175792;0.00017725209677830252;0.03772815335984514;0.0438462322830631;0.001051431711503927;0.0795350260018354;120.0;53.702765007142865;86.86279243571428
0.4736321608241566;1.9012070588940766;2.055369306002228;-0.0387478331803813;0.07079074501806211;0.0713775874375446;1.4276492764608832;0.6966547827337499;0.4853278863058083;3.3566301206484646;1.9289808441875813;-0.9839910268175792;0.00017101361515984895;0.03772815335984514;0.0550627103089629;0.0010906450245342116;0.0907515040277352;120.0;53.70277603571429;86.86287295000001
-2.534274869261484;1.8406979707675926;2.055369306002228;0.0713775874375446;0.06653945669660137;0.0713775874375446;2.81147535097322;0.6640581091604797;0.4409731723417915;3.3566301206484646;1.9289808441875813;-0.9676761496889976;0.0002663237509973484;0.054043030488426735;0.0550627103089629;0.0010178627389855783;0.0907515040277352;120.0;53.70277023571429;86.86293663571428
-2.2295292970289977;1.7329592590985243;1.6748262831130678;0.0104517181604976;0.04664696865418822;0.0713775874375446;2.5010444994625067;0.6544648786578129;0.4283242773965857;3.3566301206484646;1.9289808441875813;-0.9676761496889976;0.0003049429229211108;0.054043030488426735;0.0550627103089629;0.0009100261281522957;0.08463342510451699;120.0;53.70276347857142;86.86296645
-3.169400639289348;1.8447508950895932;1.6748262831130678;-0.020393596410727;0.044232801212480195;0.0713775874375446;3.3566301206484646;0.7061357714744256;0.4986277277557823;3.3566301206484646;1.9289808441875813;-0.9676761496889976;0.0002747036161872139;0.050474151116549404;0.0550627103089629;0.0010313299374000164;0.08463342510451699;120.0;53.70275985;86.86297379285715
-1.6264369458955694;2.0277678284461147;1.6748262831130678;-0.061180789232181;0.04394242750228664;0.0713775874375446;1.9846787369662817;0.6118098281842301;0.3743112658628172;3.3566301206484646;1.8907838974172686;-0.9676761496889976;0.0002792339421244245;0.050474151116549404;0.0550627103089629;0.0012406285201112118;0.08463342510451699;120.0;53.702768492857146;86.86296415000001
1.6748262831130678;1.9263605477395602;1.6748262831130678;-0.040787192821454;0.021799471465674118;0.0104517181604976;2.0781895410815374;0.5846707690331391;0.34183990816180226;3.3566301206484646;1.8907838974172686;-0.9676761496889976;0.00032974831411829446;0.050474151116549404;0.0550627103089629;0.001123656989765194;0.08463342510451699;120.0;53.70279244285714;86.86294055714286
0.4588379537626172;2.56646814415922;4.376511838778927;-0.0305903946160904;0.012784783689661967;-0.020393596410727;1.465846223231196;1.1673883577204067;1.3627955777411485;4.960722118005776;3.49487589477458;-0.9115937595594984;0.0014036088523933373;0.10655654124604863;0.0550627103089629;0.0018460583076545347;0.1249107780157029;120.0;53.702818207142855;86.86291512142859
1.5711956317357765;2.089711478624262;4.376511838778927;-0.0351789538085041;0.011371558215390565;-0.0275313551544814;2.2620508777137416;1.13160359305126;1.280526691806522;4.960722118005776;3.49487589477458;-0.9115937595594984;0.0017679906418458285;0.12440093810543484;0.0285510349750178;0.0011917109023411104;0.0983991026817578;120.0;53.70284852142857;86.86289789285715
-1.6102776865027326;2.089711478624262;4.376511838778927;-0.0326297542571632;0.011371558215390565;-0.0275313551544814;2.5212868173875616;1.13160359305126;1.280526691806522;4.960722118005776;3.49487589477458;-0.9115937595594984;0.0017679906418458285;0.12440093810543484;0.0285510349750178;0.0011917109023411104;0.0983991026817578;120.0;53.70284852142857;86.86289789285715
4.376511838778927;2.089711478624262;4.376511838778927;-0.0438462322830631;0.011371558215390565;-0.0275313551544814;4.960722118005776;1.13160359305126;1.280526691806522;4.960722118005776;3.49487589477458;-0.9115937595594984;0.0017679906418458285;0.12440093810543484;0.0285510349750178;0.0011917109023411104;0.0983991026817578;120.0;53.70284852142857;86.86289789285715
0.281865632169012;2.089711478624262;4.376511838778927;-0.0275313551544814;0.011371558215390565;-0.0275313551544814;2.8320123685066494;1.13160359305126;1.280526691806522;4.960722118005776;3.49487589477458;-0.9115937595594984;0.0017679906418458285;0.12440093810543484;0.0285510349750178;0.0011917109023411104;0.0983991026817578;120.0;53.70284852142857;86.86289789285715
0.8133401739455745;1.8338588729490277;4.1079096070947605;0.0183542367696543;0.03713307623796797;0.0224329560517997;0.8652289121146578;1.2874208507984874;1.6574524470707015;4.226098799462851;3.5024866963743944;-0.99214846538187;0.00014941411034992413;0.03568879371877243;0.0224329560517997;0.0010451932298854729;0.09483022330988061;30.0;53.7230302;86.83638882857143
0.6393408812558928;1.8338588729490277;4.1079096070947605;0.0224329560517997;0.03713307623796797;0.0224329560517997;0.7236121030884567;1.2874208507984874;1.6574524470707015;4.226098799462851;3.5024866963743944;-0.99214846538187;0.00014941411034992413;0.03568879371877243;0.0224329560517997;0.0010451932298854729;0.09483022330988061;30.0;53.7230302;86.83638882857143
-1.2551044755510403;1.8338588729490277;4.1079096070947605;-0.0173345569491179;0.03713307623796797;0.0224329560517997;1.321981973389143;1.2874208507984874;1.6574524470707015;4.226098799462851;3.5024866963743944;-0.99214846538187;0.00014941411034992413;0.03568879371877243;0.0224329560517997;0.0010451932298854729;0.09483022330988061;30.0;53.7230302;86.83638882857143
0.7472308658499148;1.8338588729490277;4.1079096070947605;-0.07545630671969;0.03713307623796797;0.0224329560517997;0.9142762349479813;1.2874208507984874;1.6574524470707015;4.226098799462851;3.5024866963743944;-0.99214846538187;0.00014941411034992413;0.03568879371877243;0.0224329560517997;0.0010451932298854729;0.09483022330988061;30.0;53.7230302;86.83638882857143
-0.79560367645944;2.091667336983071;4.1079096070947605;-0.0178443968593861;0.03526926497783178;0.0224329560517997;1.0306664224519935;1.458605323381742;2.127529489397556;4.226098799462851;3.5024866963743944;-0.99214846538187;0.00016590152605584026;0.03568879371877243;0.0224329560517997;0.0013769220143588356;0.09483022330988061;30.0;53.722955014285716;86.83635752857143
2.412865636526575;2.0962498412934343;4.1079096070947605;0.0040787192821454;0.032371727704331846;0.0091771183848271;2.54597752313601;1.3405769375951935;1.7971465256121075;4.226098799462851;3.31182256451487;-0.99214846538187;0.00017759867909044173;0.03568879371877243;0.0224329560517997;0.0013813780726577313;0.09483022330988061;30.0;53.72286992857143;86.83631632857143
4.1079096070947605;1.6916076306238221;4.1079096070947605;-0.0571020699500356;0.03192432337037214;0.0091771183848271;4.226098799462851;1.2657788856850678;1.602196187446132;4.226098799462851;3.31182256451487;-0.99214846538187;0.00016036858700137704;0.03568879371877243;0.0142755174875089;0.0008996781705470845;0.0866727847455898;30.0;53.722781371428574;86.83627165714286
3.642701689327292;1.6318082853239775;4.1079096070947605;-0.0520036708473539;0.026187305975612682;0.0091771183848271;3.831592608203963;1.0705105704990907;1.1459928815502889;4.226098799462851;3.1954323770108575;-0.99214846538187;0.00020789987552293223;0.03568879371877243;0.0142755174875089;0.0008402640598951389;0.0866727847455898;0.0;53.722701785714285;86.83622132857144
2.3906974672199226;1.127600058187302;4.1079096070947605;0.0091771183848271;0.026938705422767363;0.0091771183848271;2.769532742836776;0.8014955702280517;0.6423951490951898;4.226098799462851;2.0614202605010536;-0.99214846538187;0.00013922706596105738;0.031610074436627;-0.023452635872336;0.0004042635112276136;0.048944631385744904;0.0;53.72262802857143;86.83617317142856
1.4342734402816717;1.2033704657186595;4.1079096070947605;-0.0316100744366269;0.02741421142378951;0.0091771183848271;2.1646785389617973;0.9141789333294056;0.8357231221432898;4.226098799462851;2.0614202605010536;-0.9931681452024064;0.0001049154170595588;0.030590394616090588;-0.023452635872336;0.0004569440226723384;0.048944631385744904;0.0;53.72256324285714;86.83613032857143
1.352694100651615;1.6718695232679195;5.850490015291113;-0.0071377587437544;0.024892562390017487;0.0183542367696543;2.2939489348865325;1.5133335895891868;2.2901785533788934;6.390084313309892;4.225405774348094;-0.9850107066381156;0.00017977719648100927;0.03874783318038133;-0.023452635872336;0.0008367982367737774;0.0774956663607628;0.0;53.72250705714286;86.83608877142856
1.3322028350879456;1.6404242461933767;5.850490015291113;-0.0050983991026817;0.0369738985548236;0.0183542367696543;2.478533207901651;1.5350699412043256;2.3564397243890514;6.390084313309892;4.225405774348094;-0.9850107066381156;0.00012056113286457024;0.0326297542571633;-0.023452635872336;0.0007984761354032723;0.0774956663607628;0.0;53.7224455;86.83604915714285
3.48923683609861;1.691700500419898;5.850490015291113;0.0071377587437544;0.043987157502383335;0.0183542367696543;4.195767685984919;1.5752333397327012;2.4813600746054396;6.390084313309892;4.225405774348094;-0.9850107066381156;0.00014036583641521838;0.0326297542571633;-0.023452635872336;0.0008486810589041664;0.0774956663607628;0.0;53.72238012857143;86.83600938571429
5.850490015291113;1.5767955325873808;5.850490015291113;0.0183542367696543;0.055012670207814404;0.0183542367696543;6.390084313309892;1.4004561152369384;1.9612773307045366;6.390084313309892;4.096135378423359;-0.9850107066381156;0.0005998349587902651;0.07341694707861735;-0.023452635872336;0.0007301499081535348;0.0774956663607628;0.0;53.72230785714286;86.83596637142857
3.1642025939925897;1.4515900368279284;5.850490015291113;-0.0897318242071989;0.055271936135302874;0.0183542367696543;4.198105596967536;1.290086721526747;1.6643237490596305;6.390084313309892;3.9115511054082406;-0.9850107066381156;0.0006782615848508322;0.07341694707861735;-0.023452635872336;0.0006279081260733118;0.0774956663607628;30.0;53.72221165714286;86.8358921142857
3.92821898682033;1.3583434345634322;5.850490015291113;-0.0866727847455898;0.05149286941955568;0.0183542367696543;4.884328009934148;0.9383349687346878;0.8804725135503276;6.390084313309892;2.3702176957198926;-0.9177118384827164;0.002009038639936656;0.14071581523401655;-0.0275313551544814;0.0005766139438771323;0.0734169470786174;30.0;53.72210641428571;86.83579784285715
2.522705050680319;1.4073716590431031;5.850490015291113;-0.1147139798103395;0.04505930618854806;0.0183542367696543;4.019866617589999;0.9992903508978479;0.9985812053975439;6.390084313309892;2.3702176957198926;-0.9177118384827164;0.0021144986863438566;0.14071581523401655;-0.0275313551544814;0.0006060734404087217;0.0734169470786174;30.0;53.72199031428572;86.8356854
4.5897063236121225;1.0839683908135695;4.6123776394803375;-0.0856531049250535;0.02630897206573163;-0.0295707147955541;5.84249782210115;0.8219490313127416;0.6756002100759543;6.093831870330137;2.0739652527401375;-0.9177118384827164;0.0021504442232882837;0.14071581523401655;-0.0275313551544814;0.0003779232555052505;0.0560823901294994;0.0;53.72186332857143;86.83555475714286
1.7141659388966286;1.173851284573376;4.6123776394803375;-0.0642398286937901;0.02584618015690315;-0.0295707147955541;4.227173075990416;0.8942916872868238;0.7997576219503144;6.2596540661699045;2.2397874485799054;-0.9177118384827164;0.002133115107681466;0.14071581523401655;-0.0275313551544814;0.00043971393058327363;0.0560823901294994;60.0;53.72173502857142;86.83540451428571
4.6123776394803375;1.3260821308848554;5.180497518566415;-0.0295707147955541;0.02599421765179653;-0.0295707147955541;6.093831870330137;1.0171141655750942;1.03452122581352;6.579642056113424;2.559775438523425;-0.9177118384827164;0.002247041664856572;0.14071581523401655;-0.0275313551544814;0.0005820602373535598;0.0662791883348629;60.0;53.721600585714285;86.83522984285715
2.9138450496728616;1.5593313714101606;6.5224931648807605;-0.078515346181299;0.021574523058439037;-0.0295707147955541;5.0408499180718405;1.0859854306483998;1.1793643555805902;7.610398418220723;3.3832253422303067;-0.9177118384827164;0.001815200103934678;0.12032221882328942;-0.0275313551544814;0.0007598569634795067;0.08361374528398091;60.0;53.72146698571429;86.83504504285713
4.591457332399425;1.7386812158385094;6.5224931648807605;-0.0744366268991536;0.026192268534712015;-0.0295707147955541;6.2596540661699045;1.203392561333072;1.4481536566717714;7.610398418220723;3.3832253422303067;-0.9177118384827164;0.0014084114930043568;0.11318446007953498;-0.0275313551544814;0.000923245767772357;0.08361374528398091;60.0;53.72134818571429;86.83486407142856
5.180497518566415;1.215545927364936;6.5224931648807605;-0.0887121443866625;0.02620738672848728;-0.0295707147955541;6.579642056113424;0.8943690063802786;0.7998959195736468;7.610398418220723;2.5695485001488825;-0.9676761496889976;0.0009267611026525915;0.0805547058223719;-0.0520036708473539;0.000409610781186287;0.05914142959110841;60.0;53.72123384285714;86.83467658571429
6.5224931648807605;1.4444311247057835;7.137762913474801;-0.092790863668808;0.022144174401274443;-0.0295707147955541;7.610398418220723;1.0066027131561248;1.0132490221332715;7.69462110959369;2.65377119152185;-0.9676761496889976;0.0007627781572532251;0.0805547058223719;-0.0520036708473539;0.0005872589720356034;0.0734169470786173;60.0;53.721123214285704;86.83448184285713
6.31783803373308;0.980900786951437;7.137762913474801;-0.0295707147955541;0.023154121125969266;-0.0295707147955541;7.346061981053436;0.7430748295389401;0.5521602022943249;7.69462110959369;1.9647474648674725;-0.962577750586316;0.000991522483263208;0.08565310492505351;-0.0805547058223717;0.00024518222995702693;0.0448659121035995;0.0;53.72101648571429;86.83428002857143
4.661531639676297;0.9430228293138975;7.162419451880081;-0.0683185479759355;0.025358602569730805;-0.0295707147955541;5.729873644726218;0.7340218748011246;0.5387881126865578;7.69462110959369;1.9647474648674725;-0.962577750586316;0.0011561490815279695;0.08565310492505351;-0.0856531049250535;0.00020359235250066456;0.0397675130009177;0.0;53.72091782857143;86.83407165714286
7.137762913474801;0.8663003223668696;7.162419451880081;-0.092790863668808;0.02555310306136775;-0.0295707147955541;7.69462110959369;0.7110502212353925;0.5055924171189007;7.69462110959369;1.9647474648674725;-0.962577750586316;0.0009129596998657219;0.08565310492505351;-0.0856531049250535;0.00018814468373115837;0.0397675130009177;0.0;53.7208307;86.83386384285714
6.036755153388556;0.9558168529106456;7.162419451880081;-0.0560823901294993;0.02902486136548648;-0.0020393596410727;6.526062966883246;0.8444875577702587;0.7131592352287761;7.69462110959369;2.063555995304326;-0.962577750586316;0.0008591651738462783;0.08565310492505351;-0.0856531049250535;0.00023103424485803174;0.0397675130009177;0.0;53.72073617142858;86.83360108571428
7.162419451880081;0.9613839993692632;7.162419451880081;-0.0438462322830631;0.033353856001949775;-0.0020393596410727;7.49335993333578;0.8086667321871982;0.6539418837463217;7.69462110959369;2.063555995304326;-0.962577750586316;0.0009242236250101631;0.08565310492505351;-0.0856531049250535;0.00024056525844178123;0.0397675130009177;0.0;53.72064838571429;86.83333044285713
6.85061376508437;0.6796741455070622;7.162419451880081;-0.037728153359845;0.036969211406659055;0.0122361578464362;7.136618731417505;0.6877466145487203;0.47299540582322613;7.69462110959369;2.063555995304326;-0.962577750586316;0.0004850295678950871;0.05914142959110835;-0.0933007035790761;0.00013758079997840895;0.032119914346895095;0.0;53.720564814285716;86.83305670000001
5.280506582828192;1.151195645351202;8.997636089285734;-0.0020393596410727;0.02535005910051065;0.0122361578464362;5.631065114289364;1.0713827745348647;1.147861049570025;9.123868882548672;3.492803768259308;-0.962577750586316;0.0004868119912146442;0.05914142959110835;-0.0933007035790761;0.000388605417482879;0.06271030896298568;0.0;53.72048234285715;86.83278405714286
6.490758815081004;1.383351233866739;9.15662774289068;-0.0020393596410727;0.020686173015589778;0.0122361578464362;6.721425436018681;1.306964543165636;1.7081563170921594;9.278189601525984;3.6471244872366197;-0.9646171102273886;0.0003338206562858888;0.05710206995003575;-0.0933007035790761;0.000555113462584956;0.06678902824513108;30.0;53.72040227142857;86.83251747142857
6.837605557512376;1.7085793698736846;9.924222724929844;0.0122361578464362;0.018921076885239;0.0122361578464362;7.031107392744908;1.6267193497507109;2.6462158428533757;10.049555673954075;4.41849055966471;-0.9850107066381156;0.0001679562640492111;0.03670847353930873;-0.0933007035790761;0.0008505501278017544;0.08004486591210361;30.0;53.72032364285714;86.83225964285714
8.997636089285734;1.6731974896851685;9.924222724929844;-0.0229427959620679;0.019833268675007485;0.0122361578464362;9.123868882548672;1.5967110345910078;2.5494861279846868;10.049555673954075;4.41849055966471;-0.9850107066381156;0.0001725856135041746;0.03670847353930873;-0.0933007035790761;0.0008149016614105867;0.08004486591210361;0.0;53.720245371428575;86.83201679999999
9.15662774289068;1.496426406115023;9.924222724929844;-0.0061180789232181;0.019141561943235276;0.0122361578464362;9.278189601525984;1.4381577807324926;2.0682978022814082;10.049555673954075;3.718591350789202;-0.9819516671765066;0.0001705803872696679;0.03976751300091774;-0.1040073416947078;0.0006766153188681835;0.06933822779647192;0.0;53.72017927142857;86.83183367142858
9.924222724929844;1.8133129302934146;9.924222724929844;-0.0356887937187723;0.02833889741889252;0.0122361578464362;10.049555673954075;1.7270378762401526;2.982659825968097;10.049555673954075;4.721172805251166;-0.9819516671765066;0.00039115527306502173;0.05812174977057227;-0.0907515040277353;0.0009557378595351351;0.08259406546344442;0.0;53.720109928571425;86.83166924285715
7.949939723045593;2.322217804804007;9.924222724929844;-0.0418068726419904;0.02517464779416922;-0.0061180789232181;8.119669946529909;2.1714474118216964;4.715183862307144;10.049555673954075;5.636359780366007;-0.9768532680738248;0.0004436253595345198;0.06322014887325411;-0.0662791883348628;0.0016250749498484594;0.1070663811563169;0.0;53.720029242857144;86.83152272857144
6.045622013622089;2.940346724327751;9.924222724929844;-0.0132558376669725;0.028328194221875058;-0.0010196798205363;6.3309643231648725;2.650279773503135;7.02398287783983;10.049555673954075;7.230248047280437;-0.9768532680738248;0.0006251354675762187;0.06322014887325411;-0.0326297542571632;0.002607586292996134;0.14071581523401652;30.0;53.71993788571428;86.83139114285714
4.97370173258072;3.3064201179522885;9.924222724929844;-0.07545630671969;0.02683466081584744;-0.0010196798205363;5.328382868702908;2.7562342069616084;7.596827003625286;10.049555673954075;7.564354329399378;-0.9768532680738248;0.0006422170243886535;0.06322014887325411;-0.0091771183848271;0.003311049363115171;0.16416845110635261;0.0;53.719820657142854;86.83128122857144
3.873984263889517;2.648615368023089;7.949939723045593;-0.061180789232181;0.026858635982349707;-0.0010196798205363;4.4131958935880675;2.0494916910558914;4.200416191707138;8.119669946529909;5.634468601975212;-0.9768532680738248;0.0006129060631336942;0.06322014887325411;-0.0091771183848271;0.002129005631694718;0.1294993372081167;0.0;53.7196815;86.83119327142857
1.8093332217658569;2.3325415759296386;6.045622013622089;-0.0010196798205363;0.027002039945476772;-0.0010196798205363;2.819307626673638;1.4755170956594912;2.1771506995834202;6.3309643231648725;3.8457629786101757;-0.9666564698684612;0.0008196176564435864;0.07341694707861768;0.0040787192821454;0.0016645853334320115;0.1080860609768532;30.0;53.719520485714284;86.83113100000001
0.5163266978600535;2.024147229792408;4.97370173258072;-0.0591414295911083;0.0279614052654856;-0.0010196798205363;2.4852013445546968;1.0838153831320116;1.174655784713589;5.328382868702908;2.8431815241482115;-0.9666564698684612;0.000794861777005276;0.07341694707861768;0.0050983991026817;0.0013043377758457165;0.095849903130417;0.0;53.71933677142857;86.83108991428571
1.8698825097980931;1.513829715844212;3.873984263889517;-0.0489446313857448;0.027099048095053924;-0.0010196798205363;3.310728572520043;0.7007441976463117;0.4910424305349732;4.4131958935880675;1.9690963292534929;-0.9666564698684612;0.0009860266780279073;0.08667278474558993;0.0050983991026817;0.0006784101201274717;0.0713775874375445;0.0;53.719127771428575;86.8310857142857
-0.2415883159222396;0.9363222863921613;1.8698825097980931;-0.0356887937187723;0.0274421911026326;-0.0010196798205363;2.7444163666359027;0.35672028312265686;0.12724936039110848;3.310728572520043;1.1222237628932574;-0.9666564698684612;0.0008743281500022511;0.08667278474558993;0.0050983991026817;0.000273701003069971;0.0377281533598449;30.0;53.71890401428571;86.83110332857143
-0.2951412563239011;1.2329322815715447;1.8698825097980931;-0.0856531049250535;0.01859277011304579;-0.0336494340776996;2.5673192867170482;0.3845207943161554;0.14785624126152705;3.310728572520043;1.1222237628932574;-0.9666564698684612;0.0008655645686810797;0.08667278474558993;0.0387478331803813;0.0004504579822595094;0.07137758743754449;0.0;53.7186261;86.83115455714285
0.1660469018800018;1.264131827191708;1.8698825097980931;-0.0683185479759355;0.02197922271963212;-0.0214132762312633;2.4440995643345746;0.4027356321544433;0.16219598940683908;3.310728572520043;1.1222237628932574;-0.9666564698684612;0.0010507385468796473;0.08667278474558993;0.0387478331803813;0.0004760060498398457;0.07137758743754449;60.0;53.718343971428574;86.83122351428572
-0.1175828378837234;1.0463738999688454;0.8448291594370965;-0.0336494340776996;0.02197922271963212;-0.0214132762312633;2.1885048096267856;0.2846715057501232;0.0810378661860424;3.0507381931607824;0.8622333835339968;-0.9666564698684612;0.001059564017899406;0.08667278474558993;0.0387478331803813;0.00032539127933716463;0.0540430304884265;60.0;53.718051371428565;86.83130028571429
-2.2784852520437835;1.0789752494920828;0.8448291594370965;-0.0458855919241358;0.023583163219998416;-0.0214132762312633;3.0507381931607824;0.2749193647330734;0.07558065710523663;3.0507381931607824;0.8622333835339968;-0.9727745487916796;0.0008224274487598316;0.08055470582237156;0.0387478331803813;0.00034748590173585664;0.0540430304884265;60.0;53.7177483;86.83138487142857
0.8448291594370965;1.5044836632256442;0.8448291594370965;-0.0214132762312633;0.01759958986829356;-0.0214132762312633;2.3246924943009204;0.6037128755904252;0.36446923615366017;3.9439239241465582;1.7554191145197726;-0.9493219129193432;0.001274271760267874;0.10400734169470793;0.0499643112062812;0.0006513890777205583;0.0652595085143264;60.0;53.71743851428572;86.83147737142858
0.808870433107132;1.6009754540833532;0.9557739763627784;-0.0479249515652085;0.017401549278423818;0.003059039461609;2.4784715014020784;0.5939633998100204;0.3527925203138782;3.9439239241465582;1.7554191145197726;-0.9493219129193432;0.0010590441444312032;0.08973182420719927;0.0499643112062812;0.0007446197196852355;0.0672988681553991;60.0;53.7171329;86.83155941428572
-0.8483135188709983;1.833939627562366;1.8248623232781196;-0.023452635872336;0.029528826349453415;0.003059039461609;2.640249567667804;0.5565143817561935;0.30970825710147826;3.9439239241465582;1.6192314298456378;-0.9493219129193432;0.0010742690102857634;0.08973182420719927;0.0499643112062812;0.000977448765802545;0.081574385642908;60.0;53.71682965714286;86.83164382857142
-3.012022768219472;1.7422516961360512;1.8248623232781196;-0.0214132762312633;0.030684933087049466;0.003059039461609;3.9439239241465582;0.563857186789226;0.3179349270938602;3.9439239241465582;1.6192314298456378;-0.9493219129193432;0.001185002059013343;0.0958499031304173;0.0499643112062812;0.0009010273659764797;0.081574385642908;60.0;53.71657199999999;86.831708
0.9557739763627784;1.993784296347966;2.488813685468761;0.003059039461609;0.03681689045486126;0.023452635872336;2.9298107915494715;0.5208611880922647;0.27129637726088557;3.9439239241465582;1.4654524227444798;-0.9493219129193432;0.0013077417092684695;0.0958499031304173;0.0499643112062812;0.001159132165000306;0.0917711838482716;60.0;53.7163092;86.8317524
1.8248623232781196;2.2600877944547664;2.8913149436911594;-0.0897318242071989;0.03858392885518842;0.023452635872336;3.33854863883178;0.48291843544641866;0.23321021529401684;3.9439239241465582;1.303674356478754;-0.9493219129193432;0.0014199477328226166;0.0958499031304173;0.0499643112062812;0.0015264351482265194;0.1019679820536351;0.0;53.71604777142858;86.8317872
-1.7322671853182827;2.3106048870479237;2.8913149436911594;-0.0081574385642908;0.04659921373597251;0.023452635872336;3.2058215205553795;0.3636858869492866;0.13226742436608926;3.9439239241465582;1.0141131325970867;-0.9493219129193432;0.0014288598494204112;0.0958499031304173;0.0499643112062812;0.001599031764679365;0.1019679820536351;0.0;53.71578975714285;86.83179615714286
2.488813685468761;1.6198539614121221;2.8913149436911594;0.023452635872336;0.04831337662055331;0.023452635872336;3.597817624114348;0.42099987289871227;0.1772408929807319;3.8838891189263802;1.2361800205079465;-0.9615580707657796;0.0009877100778297213;0.08361374528398091;0.0316100744366268;0.0008309929830454978;0.08361374528398069;30.0;53.715532800000005;86.83177325714284
2.8913149436911594;1.613106262044745;2.8913149436911594;-0.061180789232181;0.0486442800361099;0.023452635872336;3.8838891189263802;0.4215911860954842;0.17773912819339718;3.8838891189263802;1.2361800205079465;-0.9615580707657796;0.000994839771107939;0.08361374528398091;0.0316100744366268;0.0008264626571082868;0.08361374528398069;30.0;53.71527304285714;86.83172195714285
2.473679754099638;1.6445216653422854;2.8913149436911594;-0.0948302233098807;0.056223907345868074;0.023452635872336;3.5476273578597244;0.42460731831028964;0.18029137476265564;3.8838891189263802;1.2361800205079465;-0.9615580707657796;0.001184964925194174;0.08361374528398091;0.0316100744366268;0.0008687952109477981;0.08361374528398069;30.0;53.71502425714285;86.83164505714286
0.3851914144112507;1.115094192485456;3.7906108431482575;-0.07545630671969;0.05400407989095357;0.023452635872336;2.6477090984184337;0.6254594597731636;0.3911995358197377;4.5630107429125175;1.9153016444940838;-0.9615580707657796;0.0010199917446172665;0.07545630671969006;-0.0066279188334862;0.00041026681199140945;0.061690629142449306;0.0;53.714790199999996;86.83154265714286
1.2025015189500097;1.3866265663779602;4.375531312498806;-0.1070663811563169;0.04332082303534242;-0.0193739165901906;2.925869018555824;0.8413840530318043;0.7079271246962261;4.99348960268626;2.3457805042678266;-0.965636790047925;0.0007103947163617604;0.07137758743754463;-0.0066279188334862;0.0006114330883071206;0.0698480677067401;0.0;53.714578057142866;86.83142925714286
2.2888479682336142;1.4120452802195873;4.375531312498806;-0.1366370959518711;0.04816249477933745;-0.0183542367696543;3.44016978169649;0.847177396755643;0.7177095415736682;4.99348960268626;2.3457805042678266;-0.965636790047925;0.0006569220167750088;0.07137758743754463;-0.0066279188334862;0.0006326736328651911;0.0698480677067401;0.0;53.714376;86.83130765714286
3.7906108431482575;1.5002646632781576;4.375531312498806;-0.0224329560517997;0.05157009420486679;-0.0050983991026817;4.5630107429125175;0.8939024876035487;0.7990616573438126;4.99348960268626;2.3457805042678266;-0.965636790047925;0.0006541493582779166;0.07137758743754463;-0.0066279188334862;0.0007081295533931615;0.0698480677067401;0.0;53.71417975714286;86.83119918571427
4.375531312498806;1.0837141511529396;4.375531312498806;-0.0193739165901906;0.05586700507512863;0.0101967982053635;4.99348960268626;0.7117482719676321;0.5065856026489104;4.99348960268626;2.0676205841304363;-0.965636790047925;0.0005659194039597818;0.07137758743754463;-0.020393596410727;0.0003677238331766698;0.0560823901294993;0.0;53.71397952857143;86.83111598571429
3.26832255962888;0.6643684864277716;4.375531312498806;-0.0183542367696543;0.04823080931624819;0.0101967982053635;4.0142049589619795;0.49246070250369745;0.24251754351043522;4.99348960268626;1.5533198209897705;-0.99214846538187;0.0002737010030699695;0.04486591210359969;-0.0418068726419904;0.00012264062673739425;0.034669113898235904;0.0;53.713744742857145;86.83107868571427
3.895174670757709;0.6853838039248917;4.375531312498806;-0.0050983991026817;0.0160455958492798;0.0101967982053635;4.549132616694574;0.5718020013007554;0.3269575286915491;4.99348960268626;1.8146077781376015;-0.99214846538187;0.00020062164696807398;0.03874783318038144;-0.0397675130009177;0.00013739513088262736;0.0367084735393086;0.0;53.713493642857145;86.83107627142856
3.329235104168365;0.7048245033120184;4.375531312498806;0.0101967982053635;0.022768138163631622;0.0101967982053635;4.164235252985363;0.6112681621675761;0.3736487660797261;4.99348960268626;1.8146077781376015;-0.99214846538187;0.00013288956082485378;0.03262975425716341;-0.0397675130009177;0.0001429404478768091;0.0367084735393086;0.0;53.71322124285714;86.83111107142858
3.818675528345188;0.9823154183065971;3.895174670757709;-0.040787192821454;0.022776834931772936;0.0101967982053635;4.359615965325043;0.9246091838341294;0.8549021428304148;4.549132616694574;2.684586329929938;-0.99214846538187;0.00014794113552334546;0.03262975425716341;-0.0193739165901906;0.00029543666521680384;0.04894463138574491;0.0;53.712934728571426;86.83117198571429
2.222249382454782;1.9474972520598122;3.895174670757709;-0.0071377587437544;0.0228137592104203;0.0101967982053635;3.1788818245486588;1.1313691949564317;1.2799962552963644;4.549132616694574;2.7120136825832812;-0.99214846538187;0.00013531563700980504;0.03262975425716341;0.0275313551544814;0.0011646651040547644;0.09584990313041691;0.0;53.71264038571429;86.83125432857142
2.9532003729427507;2.4610283227891525;3.818675528345188;-0.0571020699500356;0.021987105622871886;0.0101967982053635;3.5379839972101546;1.0315541395715944;1.0641039428672923;4.359615965325043;2.5224970312137502;-0.99214846538187;0.00013498143263738813;0.03262975425716341;0.0428265524625267;0.0018662467273364873;0.10910574079738951;0.0;53.712334000000006;86.83134657142857
1.1149902815927188;2.5262623069439654;3.818675528345188;-0.0214132762312633;0.016522948842312788;-0.0071377587437544;1.8645462867646359;0.9958882481680402;0.991793402839208;4.359615965325043;2.548013460338219;-0.99214846538187;0.00011176041772425242;0.03262975425716341;0.0428265524625267;0.001957744457740485;0.10910574079738951;0.0;53.712025142857144;86.83144
-1.576340511828394;2.106023875411695;2.9532003729427507;-0.0163148771285816;0.01695772082431517;-0.0071377587437544;1.8371189341112923;0.9632914580196934;0.9279304330937067;3.5379839972101546;2.8649918718933924;-0.9952075048434792;0.00013401595333929444;0.029570714795554176;0.0428265524625267;0.0013758327556635573;0.0948302233098806;0.0;53.71173987142857;86.83151678571429
-2.441911248529245;1.895970484849293;2.9532003729427507;-0.0275313551544814;0.01421295100310316;-0.0163148771285816;2.503910088454519;0.9705287432490753;0.9419260414726297;3.5379839972101546;2.8649918718933924;-0.9952075048434792;8.004813616377661e-05;0.028551034975017764;0.0428265524625267;0.0011069839049635043;0.0948302233098806;30.0;53.71144501428572;86.83157301428571
-1.7475365522584592;1.881021402409261;2.8996505979605525;-0.0244723156928724;0.010610831243848583;-0.0163148771285816;1.8116025049868236;0.8295753908500733;0.6881953291040518;3.0104279170705537;2.3374357917537916;-0.9952075048434792;0.00014166552008573242;0.030590394616090588;0.0428265524625267;0.0011069839049635043;0.0948302233098806;0.0;53.711138357142865;86.83161378571428
-0.4561123008958601;2.0682732067897662;2.8996505979605525;-0.0438462322830631;0.012302741437818964;-0.0163148771285816;0.6729921253167622;0.8713189891382503;0.7591967808329024;3.0104279170705537;2.3374357917537916;-0.9615580707657796;0.00044638564009189674;0.06423982869379019;0.0428265524625267;0.001312061610230469;0.0948302233098806;0.0;53.710817157142856;86.83162904285713
0.5231885954576986;2.3651982219091585;3.687487856425749;-0.0346691138982359;0.018929252467810333;0.0061180789232181;0.8550116851129004;1.1371591201373683;1.2931308645115938;3.824955705399367;3.151963580082605;-0.9615580707657796;0.0005183509816190643;0.06423982869379019;0.0428265524625267;0.001695431159212145;0.1060467013357804;0.0;53.71048297142857;86.83160571428571
2.8996505979605525;1.9291940385007595;3.687487856425749;-0.0428265524625267;0.04751824663819472;0.0836137452839808;3.0104279170705537;1.1281131446764927;1.2726392671918856;3.824955705399367;3.151963580082605;-0.9615580707657796;0.0005293797259088322;0.06423982869379019;0.0305903946160905;0.001127036167308534;0.0938105434893442;0.0;53.71014125714286;86.83154194285714
2.304361770560767;1.4622273796762228;3.687487856425749;-0.0509839910268175;0.047938380117170915;0.0836137452839808;2.4916676926265224;1.1809351081127015;1.3946077295731578;3.824955705399367;3.151963580082605;-0.9615580707657796;0.0005596314105824488;0.06423982869379019;0.0081574385642908;0.0006517232820929704;0.07137758743754449;0.0;53.70979702857143;86.83145005714286
3.687487856425749;1.026193030459546;3.687487856425749;0.0061180789232181;0.05443827998348361;0.0836137452839808;3.824955705399367;0.9477593209074349;0.8982477303669221;3.824955705399367;2.9699440202864666;-0.9615580707657796;0.0005028414231509603;0.06423982869379019;-0.0091771183848271;0.0003190042624420762;0.0540430304884266;0.0;53.70945294285714;86.83135100000001
