acc_X;acc_X_std;acc_X_max;acc_Z;acc_Z_std;acc_Z_max;acc;acc_std;acc_var;acc_max;acc_range;fb_tilt_max;fb_tilt_var;fb_tilt_range;tilt_max;tilt_var;tilt_range;class;lat;lon
-0.8622600445853393;4.759842982006136;8.035593474892398;-0.0367084735393086;0.02975432339127986;-0.0367084735393086;4.451509619003463;1.7387046414717668;3.0230938302754655;9.223004054048484;4.771494435045021;-0.9788926277148976;0.00032307660460967016;0.04690527174467218;0.0851432650147853;0.006996345733638991;0.2258590802488018;0.0;53.72917058571428;86.84434315714286
-4.721852783339429;4.759842982006136;8.035593474892398;-0.1014581421433669;0.02975432339127986;-0.0367084735393086;6.580573070181316;1.7387046414717668;3.0230938302754655;9.223004054048484;4.771494435045021;-0.9788926277148976;0.00032307660460967016;0.04690527174467218;0.0851432650147853;0.006996345733638991;0.2258590802488018;30.0;53.72917058571428;86.84434315714286
0.3418958226905979;4.759842982006136;8.035593474892398;-0.116243499541144;0.02975432339127986;-0.0367084735393086;4.6871523757260425;1.7387046414717668;3.0230938302754655;9.223004054048484;4.771494435045021;-0.9788926277148976;0.00032307660460967016;0.04690527174467218;0.0851432650147853;0.006996345733638991;0.2258590802488018;30.0;53.72917058571428;86.84434315714286
6.703639026655487;4.759842982006136;8.035593474892398;-0.0764759865402263;0.02975432339127986;-0.0367084735393086;8.159305741678304;1.7387046414717668;3.0230938302754655;9.223004054048484;4.771494435045021;-0.9788926277148976;0.00032307660460967016;0.04690527174467218;0.0851432650147853;0.006996345733638991;0.2258590802488018;30.0;53.72917058571428;86.84434315714286
8.035593474892398;4.4562202916992195;8.035593474892398;-0.090241664117467;0.0377589805028047;-0.0448659121035994;9.223004054048484;1.5023373646320939;2.257017557169705;9.223004054048484;4.535851678322442;-0.9788926277148976;0.00033292944462611846;0.04690527174467218;0.0851432650147853;0.006170242036782567;0.2258590802488018;0.0;53.72926691428571;86.84432611428572
6.058609520117888;2.42905016325084;8.035593474892398;-0.0448659121035994;0.03801007105964849;-0.0448659121035994;7.43540268570439;1.5060616201107844;2.2682216035707206;9.223004054048484;4.535851678322442;-0.9788926277148976;0.00029029982023334624;0.04078719282145393;-0.0061180789232181;0.0017833145312181433;0.13459773631079838;0.0;53.72937255714286;86.84432204285713
5.428549011780236;1.2142669798239563;8.035593474892398;-0.0576119098603038;0.042081467962999525;-0.0254919955134087;6.751562845518312;1.324162083516419;1.7534052234225435;9.223004054048484;3.7214056175725636;-0.9788926277148976;0.00035513546848228196;0.048944631385744786;-0.0805547058223717;0.0004123339279245019;0.06016110941164479;0.0;53.729480342857144;86.84434937142858
4.473274928302217;1.2088177072927015;8.035593474892398;-0.1570306923625981;0.04810604938916723;-0.0132558376669725;5.774670810152062;1.2317971246382575;1.5173241562670787;9.223004054048484;3.7214056175725636;-0.9788926277148976;0.00031329803223153677;0.048944631385744786;-0.0805547058223717;0.0004123339279245019;0.06016110941164479;30.0;53.72958674285714;86.84440457142856
5.638951112653401;0.7520412458565304;6.654805520884982;-0.0744366268991536;0.05570403093688112;0.0173345569491179;6.496535869916475;0.68942909766479;0.47531248070688653;7.43540268570439;1.9338042492284693;-0.9595187111247068;0.0005973098590875576;0.06831854797593562;-0.0805547058223717;0.00014031632465634448;0.0356887937187723;0.0;53.7296962;86.84449208571428
4.762183999788554;1.2470463834542744;8.169810918450263;-0.0254919955134087;0.056891306994864214;0.0173345569491179;5.501598436475921;0.9170667331645709;0.8410113930771383;8.253435518637046;2.751837082161125;-0.9595187111247068;0.0005509668527790399;0.06831854797593562;-0.0805547058223717;0.00042793013197063687;0.06118078923218109;0.0;53.7298138;86.84462797142858
6.654805520884982;1.672877739672821;8.923196743644827;-0.0132558376669725;0.06090786121141175;0.0173345569491179;7.024352880329522;1.291167866285821;1.66711445892908;8.944975815476731;3.44337737900081;-0.9595187111247068;0.0005763663850827469;0.06831854797593562;-0.0805547058223717;0.0007872369661382776;0.0744366268991537;0.0;53.72992621428572;86.8447915857143
5.884413271542177;1.4557934353504784;8.923196743644827;0.0173345569491179;0.03172889208967653;0.0173345569491179;6.129812199961344;1.197125327505514;1.4331090497551842;8.944975815476731;3.44337737900081;-0.9595187111247068;0.0005257158557519648;0.06831854797593562;-0.0856531049250535;0.0006057268580965839;0.0693382277964719;0.0;53.73003035714286;86.84496887142858
8.169810918450263;1.3854806127905928;8.923196743644827;-0.020393596410727;0.023494820699793594;0.0397675130009177;8.253435518637046;1.174972783610981;1.380561042226537;8.944975815476731;3.44337737900081;-0.9595187111247068;0.0004214440915578019;0.06831854797593562;-0.0856531049250535;0.0005669591508961899;0.0693382277964719;0.0;53.730124342857145;86.8451542857143
8.923196743644827;1.1425842461784983;8.923196743644827;0.0132558376669725;0.02088892364339683;0.0397675130009177;8.944975815476731;1.0846478949328344;1.1764610559822288;8.944975815476731;3.031294012193153;-0.9595187111247068;0.0002512226645399796;0.04996431120628131;-0.0989089425920261;0.0004061944698238007;0.05608239012949931;0.0;53.73021061428572;86.84534295714285
6.956993600442967;2.1173341992281816;8.923196743644827;0.0081574385642908;0.021888930779027642;0.0397675130009177;6.9581735150523425;2.0100505054288313;4.040303034374701;8.944975815476731;6.172305261719732;-0.9595187111247068;0.0002452812534747857;0.04996431120628131;-0.0418068726419904;0.0013748425204860176;0.113184460079535;0.0;53.73030075714286;86.84557572857145
7.305949733070879;2.678049711705695;8.923196743644827;0.0397675130009177;0.02112578979621505;0.0397675130009177;7.336140811165946;2.5165083233100547;6.332814141288783;8.944975815476731;6.294291225705692;-0.9839910268175792;0.00011773896260860578;0.02549199551340886;-0.0387478331803813;0.0021694072269380356;0.1162434995411441;0.0;53.73038954285715;86.84582908571429
5.824934046156315;2.8581619715065103;8.923196743644827;-0.0091771183848271;0.018602088129796242;0.0397675130009177;5.913681803283578;2.621432101529268;6.871906262928154;8.944975815476731;6.340941506970741;-0.9839910268175792;0.0002737010030699621;0.04588559192413599;-0.0346691138982359;0.002465735103814614;0.1203222188232895;0.0;53.73046812857143;86.8461015
2.432394404484004;2.460751706412824;7.305949733070879;-0.0193739165901906;0.018329942600476202;0.0397675130009177;2.7726705537569996;2.1785079476289892;4.745896877882672;7.336140811165946;4.732106502659956;-0.9534006322014889;0.0005874075073122346;0.07647598654022636;-0.0346691138982359;0.0018690688975924507;0.0938105434893444;0.0;53.730553057142856;86.84642414285713
2.204809481294971;2.145524475060572;7.305949733070879;0.0040787192821454;0.0428860502610097;0.1070663811563169;2.6506845897710387;1.900672225576165;3.612554909076652;7.336140811165946;4.732106502659956;-0.9534006322014889;0.0006126585043393114;0.07647598654022636;-0.0346691138982359;0.0014519818408157944;0.0938105434893444;0.0;53.73065565714286;86.84681931428572
1.928017128336228;1.429632151457623;5.824934046156315;0.0050983991026817;0.04725442122527393;0.1070663811563169;2.60403430850599;1.2402110389100323;1.5381234210343013;5.913681803283578;3.309647494777588;-0.9534006322014889;0.0006126585043393114;0.07647598654022636;-0.0346691138982359;0.0006525649819938669;0.06831854797593559;0.0;53.730780114285714;86.8472729142857
2.1437167684489107;1.2795157033276816;5.347895535014244;0.0061180789232181;0.04615187825941916;0.1070663811563169;2.9487070985129726;1.1364813802449851;1.2915899276435463;5.585129126739224;2.9810948182332337;-0.9534006322014889;0.0005725911134684068;0.07647598654022636;-0.0346691138982359;0.0004990785294763399;0.058121749770572;30.0;53.73092377142858;86.84773840000001
2.7242858024447325;1.8769318751022277;6.780435553712858;0.1070663811563169;0.04062907876074174;0.1070663811563169;3.2656135817967478;1.6796198586566522;2.821122869593792;6.964985888715812;4.3609515802098215;-0.9534006322014889;0.000567689449339621;0.07647598654022636;-0.0346691138982359;0.0010559867933205762;0.0825940654634445;30.0;53.731074400000004;86.84815965714287
4.182222694788369;1.9925059435366692;6.780435553712858;0.0734169470786173;0.038701805249052014;0.1070663811563169;4.497117467413736;1.7557143339691357;3.0825328225046857;6.964985888715812;4.3609515802098215;-0.9534006322014889;0.0005306794095793474;0.07647598654022636;-0.0346691138982359;0.0011994718705450253;0.0825940654634445;30.0;53.731226285714285;86.84853828571428
5.347895535014244;1.7663901463879792;6.780435553712858;0.0571020699500356;0.0352496059953579;0.1070663811563169;5.585129126739224;1.5452210128416144;2.3877079785272644;6.964985888715812;4.016278790202839;-0.9534006322014889;0.000254205748012295;0.047924951565208374;-0.0356887937187723;0.000966172462718386;0.0815743856429081;0.0;53.73138145714285;86.84885071428572
6.780435553712858;1.3544114790770123;6.780435553712858;0.0214132762312633;0.03692079857548344;0.1070663811563169;6.964985888715812;1.2370984088667272;1.5304124732205882;6.964985888715812;3.699372306919064;-0.979912307535434;6.455095563539698e-05;0.021413276231263212;-0.0469052717446721;0.0005527492760985996;0.0703579076170083;0.0;53.73156937142857;86.84907885714287
6.267850557503281;0.9261725651277765;6.780435553712858;0.020393596410727;0.03168106686977488;0.0734169470786173;6.452493438519003;0.9104226402573866;0.8288693838932307;6.964985888715812;2.467868421302075;-0.986030386458652;0.00020890248864018662;0.04384623228306317;-0.0734169470786173;0.00023627011335923626;0.0438462322830631;0.0;53.7317557;86.84920667142856
5.600913645927254;0.8042769496421197;6.780435553712858;0.0433363923727949;0.02731084527319834;0.0571020699500356;5.759044813218281;0.8256797364704064;0.6817470272178396;6.964985888715812;2.3062381488321453;-0.986030386458652;0.00022405308685643293;0.04384623228306317;-0.0815743856429081;0.0001769055144661678;0.0356887937187723;0.0;53.73193562857143;86.84924031428571
4.947070034204647;0.8028642263745663;6.780435553712858;-0.0020393596410727;0.0205896104247106;0.0433363923727949;5.089321236918453;0.8252671295335314;0.6810658350885146;6.964985888715812;2.3062381488321453;-0.9788926277148976;0.00027058176226073776;0.05098399102681761;-0.0815743856429081;0.00017527162642323922;0.0356887937187723;0.0;53.732112885714294;86.84921642857141
4.528326942866513;0.7663145661958517;6.637516257578353;-0.0152951973080452;0.02171149645520992;0.0433363923727949;4.658747739883666;0.7519082230084555;0.5653659758277332;6.670811643230201;2.012063903346535;-0.9788926277148976;0.00029211937737206873;0.05098399102681761;-0.0815743856429081;0.0001550708288015775;0.032629754257163204;0.0;53.732282371428575;86.84915185714284
4.890457018452396;0.827252941899081;6.637516257578353;-0.0101967982053635;0.021433209670905853;0.0433363923727949;5.014110342946395;0.7814003729957415;0.610586542917884;6.670811643230201;2.012063903346535;-0.9788926277148976;0.0003288075906996458;0.05098399102681761;-0.0815743856429081;0.00017566772049425194;0.032629754257163204;0.0;53.7324507;86.84906052857143
5.592019799868078;0.8757793073296477;6.637516257578353;0.0112164780258998;0.017694981297976947;0.0305903946160905;5.67429446414864;0.8204364184113039;0.673115916655568;6.670811643230201;2.012063903346535;-0.9788926277148976;0.0003300948964304379;0.05098399102681761;-0.0815743856429081;0.00020359235250066632;0.032629754257163204;0.0;53.73261130000001;86.8489505
6.637516257578353;0.8487205448630267;6.637516257578353;0.0305903946160905;0.017661372566216787;0.0305903946160905;6.670811643230201;0.808625058578517;0.6538744853611099;6.670811643230201;2.012063903346535;-0.9788926277148976;0.0003277678437632367;0.05098399102681761;-0.0815743856429081;0.00019052124815723806;0.032629754257163204;0.0;53.73273337142857;86.84882388571428
6.587938108129157;0.6846226194404547;6.637516257578353;0.0152951973080452;0.015927907975745243;0.0305903946160905;6.603210000193891;0.660546427364488;0.43632158270398885;6.670811643230201;1.6567013002838058;-0.9788926277148976;9.456745945435212e-05;0.021413276231263212;-0.0846334251045171;0.0001343749135911497;0.029570714795554204;0.0;53.73284025714286;86.84868208571429
6.294389845265333;0.5703633236813097;6.637516257578353;-0.0163148771285816;0.015274546990544762;0.0305903946160905;6.294790139807979;0.5707227699478891;0.3257244801369911;6.670811643230201;1.4825301819491798;-0.9788926277148976;0.00010180855419005698;0.021413276231263212;-0.0907515040277353;8.91087880381985e-05;0.02345263587233601;0.0;53.732929071428565;86.84852587142856
5.183893916796934;0.8691635209214127;6.637516257578353;-0.0010196798205363;0.01871585734377075;0.0305903946160905;5.188281461281021;0.8727837599722541;0.7617514916713053;6.670811643230201;2.4478562623573064;-0.979912307535434;7.819144520590689e-05;0.0203935964107268;-0.0734169470786173;0.00021382890864840703;0.040787192821454;0.0;53.732997857142855;86.84834597142857
5.710486818842233;0.7747648591824655;6.587938108129157;0.0061180789232181;0.014083029791917197;0.0152951973080452;5.715960437401256;0.7741644953575585;0.5993306658722232;6.603210000193891;2.380254619320996;-0.979912307535434;6.383303513168619e-05;0.0203935964107268;-0.0734169470786173;0.00017335304576676929;0.0397675130009177;0.0;53.733051728571425;86.84814384285713
5.521833481366611;0.8944370552227695;7.0887427875906965;-0.0056082390129499;0.012121820094610167;0.0081574385642908;5.527743371910479;0.8964740866639295;0.8036657880599266;7.111643124930254;2.888687744057359;-0.9850107066381156;2.8481639293778367e-05;0.015295197308045183;-0.0734169470786173;0.00024143171422212343;0.0499643112062812;0.0;53.733092871428575;86.84792898571428
4.209235738121167;0.870946999821209;7.0887427875906965;-0.0244723156928724;0.012385467570483307;0.0132558376669725;4.222955380872895;0.8758277234202241;0.7670742011114525;7.111643124930254;2.888687744057359;-0.9809319873559702;5.583688607311281e-05;0.01937391659019061;-0.0734169470786173;0.0002240530868564294;0.0499643112062812;0.0;53.73312631428571;86.84765888571428
5.733886918887476;0.904045146434765;7.0887427875906965;0.0081574385642908;0.013094716450899583;0.0132558376669725;5.755100019665072;0.9034007411573842;0.8161328991237111;7.111643124930254;2.888687744057359;-0.9809319873559702;6.133269130841728e-05;0.021413276231263212;-0.0734169470786173;0.00024026818788852296;0.0499643112062812;0.0;53.73315314285715;86.84736754285714
7.0887427875906965;0.9110694383508755;7.0887427875906965;0.003059039461609;0.014571163302999263;0.0132558376669725;7.111643124930254;0.9083249006946242;0.8250541252218989;7.111643124930254;2.888687744057359;-0.9809319873559702;7.01705402678933e-05;0.021923116141531307;-0.0734169470786173;0.00024212487884639627;0.0499643112062812;0.0;53.73317561428572;86.84706087142857
6.051858691815604;1.053611645452321;7.0887427875906965;0.0132558376669725;0.018266694309843547;0.0132558376669725;6.081821402684445;1.0304401319439724;1.0618068655207111;7.111643124930254;2.888687744057359;-0.9809319873559702;7.536927494993809e-05;0.021923116141531307;-0.0723972672580809;0.0003235717221984384;0.050983991026817596;0.0;53.73319665714286;86.8467344857143
4.883909143231781;1.0253993845506726;7.0887427875906965;-0.0112164780258998;0.01777489553644241;0.0132558376669725;4.933832733518879;0.9762870756334945;0.9531364540490005;7.111643124930254;2.8268437791076817;-0.9809319873559702;0.0001232719016630678;0.03161007443662689;-0.0723972672580809;0.00029950900738440054;0.050983991026817596;0.0;53.73321482857143;86.84639425714286
5.256206006545851;1.0137575775244327;7.0887427875906965;-0.0219231161415315;0.019961419225579365;0.0132558376669725;5.3323007878585384;0.9668018897357129;0.9347058939965455;7.111643124930254;2.8268437791076817;-0.9809319873559702;9.876358101913939e-05;0.03161007443662689;-0.0723972672580809;0.0002948301461705598;0.050983991026817596;0.0;53.73323135714286;86.84603775714287
4.137096113038278;0.6343236865180583;6.051858691815604;-0.0346691138982359;0.018838468878544866;0.0132558376669725;4.284799345822572;0.5973919391301563;0.3568771289376884;6.081821402684445;1.7970220568618727;-0.9809319873559702;9.534726965665206e-05;0.03161007443662689;-0.0723972672580809;0.00010834410636176597;0.03161007443662689;0.0;53.7332469;86.84566564285716
4.375759065263392;0.4555502691406796;5.273827002001437;-0.020393596410727;0.016119098381882038;-0.0050983991026817;4.539359058457344;0.44495321873898636;0.19798336686618426;5.398919241755956;1.114119895933384;-0.9941878250229428;7.484940148172752e-05;0.023452635872336147;-0.0723972672580809;6.289231171302785e-05;0.0198837565004589;0.0;53.733259757142854;86.84533107142859
5.147230229361729;0.5159735175773138;5.530630778237163;-0.0433363923727949;0.015543648393417663;-0.0050983991026817;5.2747166120522175;0.513048131560016;0.2632183852972236;5.710896015284988;1.4260966694624164;-0.9941878250229428;7.628524248914975e-05;0.023452635872336147;-0.0723972672580809;8.00481361637772e-05;0.02447231569287249;0.0;53.73326974285714;86.84500460000001
5.273827002001437;0.5098707695751798;5.530630778237163;-0.0050983991026817;0.015837114400333387;-0.0050983991026817;5.398919241755956;0.5088040400718605;0.2588815511934474;5.710896015284988;1.4260966694624164;-0.9931681452024064;9.110163633297952e-05;0.02447231569287256;-0.0723972672580809;7.926832596147038e-05;0.02447231569287249;0.0;53.7332765;86.84467855714286
5.147341079325745;0.38682009579840393;5.530630778237163;-0.0479249515652085;0.016788629048998867;-0.0050983991026817;5.341126176640592;0.3820337734701727;0.14594980407185923;5.710896015284988;1.1715369568276444;-0.9911287855613338;0.00010803465786878416;0.02651167533394516;-0.0774956663607627;4.3916930123562695e-05;0.019373916590190693;0.0;53.7332811;86.84436864285713
5.530630778237163;0.3708871349120398;5.8897275046584925;-0.0152951973080452;0.017510395334863208;-0.0050983991026817;5.710896015284988;0.3704376343415338;0.1372240409365519;6.108375893788706;1.182756882029187;-0.9911287855613338;8.030807289787698e-05;0.02651167533394516;-0.0815743856429081;4.391693012356283e-05;0.021413276231263392;0.0;53.73328481428571;86.84408344285714
4.692109671501951;0.6179518524457296;5.8897275046584925;-0.037728153359845;0.016030159967064184;-0.0050983991026817;4.925619011759519;0.5739399082462968;0.3294070182777676;6.108375893788706;1.804388169657794;-0.9839910268175792;0.00011080731636587668;0.033649434077699714;-0.0683185479759355;0.0001260569380998776;0.03466911389823599;0.0;53.73328625714286;86.84381791428572
5.17277682653943;0.6530288999775951;5.8897275046584925;-0.0122361578464362;0.014604679292626972;-0.0122361578464362;5.408714962846419;0.6172340846886315;0.38097791530141273;6.108375893788706;1.804388169657794;-0.9778729478943612;0.00016388392188161548;0.03976751300091774;-0.0683185479759355;0.00014536652406176002;0.03466911389823599;0.0;53.73328634285714;86.84356565714286
5.8897275046584925;0.7745608838599868;5.8897275046584925;-0.0122361578464362;0.011308796274507524;-0.0122361578464362;6.108375893788706;0.759456926699191;0.5767748235113803;6.108375893788706;2.0972233831820404;-0.9778729478943612;6.193921035465385e-05;0.022432956051799624;-0.0662791883348628;0.0001961160769102969;0.036708473539308686;0.0;53.73328597142857;86.84330928571428
3.9695003565908062;0.8931958900375792;5.8897275046584925;-0.0326297542571632;0.011042982482695543;-0.0122361578464362;4.303987724130912;0.9120755565223121;0.8318818208054853;6.108375893788706;2.7591743428213964;-0.9778729478943612;5.579975225395327e-05;0.020393596410727022;-0.0560823901294993;0.00024760830614198277;0.04690527174467219;0.0;53.73328758571429;86.84305124285713
4.47132381992311;1.0098985685769895;5.8897275046584925;-0.0142755174875089;0.01002047139618642;-0.0081574385642908;4.690833796991998;1.0504971173893967;1.103544193643432;6.108375893788706;2.870183920003931;-0.9778729478943612;7.035620936367909e-05;0.022432956051799624;-0.0550627103089629;0.00031068628695079853;0.047924951565208596;0.0;53.733288828571425;86.8427782
3.8355364047931153;1.031474826527574;5.8897275046584925;-0.0326297542571632;0.00963506865017926;-0.0081574385642908;4.0111525106066654;1.0873025136766639;1.1822267562475917;6.108375893788706;3.1725679294742863;-0.9778729478943612;7.406959127942548e-05;0.022432956051799624;-0.0499643112062812;0.0003222720385279278;0.053023350667890295;0.0;53.73328925714286;86.84248971428572
3.214941773846598;0.62280052469737;4.47132381992311;-0.0183542367696543;0.01190181255717027;-0.0081574385642908;3.3492015509673094;0.6674551659365823;0.4454963985354306;4.690833796991998;1.7550258326775787;-0.9778729478943612;6.634575689467293e-05;0.022432956051799624;-0.0499643112062812;0.00010838124018092377;0.026511675333945106;0.0;53.73329142857143;86.84217737142856
3.1506118633277693;0.6194953099473943;4.47132381992311;-0.0081574385642908;0.01190181255717027;-0.0081574385642908;3.2381919737847746;0.6474418637534005;0.41918096694047685;4.690833796991998;1.7550258326775787;-0.9778729478943612;7.169302685334701e-05;0.02447231569287245;-0.0499643112062812;0.00010704442269125504;0.026511675333945106;0.0;53.733298600000005;86.84184808571429
2.870517997558027;0.5373728605879639;4.345327558739478;-0.0214132762312633;0.02402824630014187;0.0305903946160905;2.9358079643144195;0.5328943998613;0.2839764414035351;4.372853187205893;1.4370452228914732;-0.9880697460997246;2.5944161651348656e-05;0.014275517487508993;-0.0499643112062812;8.416999009025608e-05;0.025491995513408805;0.0;53.73332881428572;86.84144675714286
4.345327558739478;0.6390919122171583;4.475990386913165;-0.0418068726419904;0.023739057258739323;0.0305903946160905;4.372853187205893;0.6178908231399355;0.381789069320547;4.512755144187038;1.5769471798726182;-0.99214846538187;6.47118688517422e-05;0.023452635872336147;-0.0499643112062812;0.0001292256906679816;0.029570714795554204;0.0;53.73337561428571;86.84103275714287
3.37492732959877;0.6371905314505266;4.475990386913165;-0.0326297542571632;0.02620738672848727;0.0305903946160905;3.4425240467558744;0.6187625165652594;0.38286705190617293;4.512755144187038;1.5769471798726182;-0.99214846538187;0.00010006326468964904;0.023452635872336147;-0.0499643112062812;0.00013100811398754003;0.029570714795554204;0.0;53.73343944285715;86.84061750000001
4.054402068124589;0.6021643896640113;4.475990386913165;0.0305903946160905;0.029310886032788766;0.0305903946160905;4.138139453208833;0.5943274218824998;0.35322508440149886;4.512755144187038;1.5769471798726182;-0.99214846538187;0.00011432265124611581;0.023452635872336147;-0.0499643112062812;0.00011565946873578728;0.029570714795554204;0.0;53.73352311428572;86.84022208571427
4.475990386913165;0.5502627933591485;4.867025405392192;-0.0295707147955541;0.02885119911258034;0.0305903946160905;4.512755144187038;0.5407086723350891;0.2923658683383748;4.8708369094347574;1.4630554625422802;-0.9819516671765066;0.00017948012592774963;0.03364943407769949;-0.0591414295911083;8.624948396307454e-05;0.024472315692872504;0.0;53.73362648571429;86.83983905714285
4.191590926581035;0.5775372293216963;4.867025405392192;0.0122361578464362;0.0303401157056815;0.0489446313857448;4.206359079285776;0.572927144440451;0.3282455128366894;4.8708369094347574;1.4630554625422802;-0.9778729478943612;0.0002543419053492006;0.03772815335984492;-0.0591414295911083;0.0001011030116260608;0.024472315692872504;0.0;53.73374321428572;86.83948035714286
3.399525101122659;0.5291714821431341;4.867025405392192;0.0214132762312633;0.02947596215167452;0.0489446313857448;3.407781446892477;0.5308583738469349;0.2818106130834121;4.8708369094347574;1.4630554625422802;-0.9778729478943612;0.0002864255251012518;0.03772815335984492;-0.0601611094116447;8.342731370710684e-05;0.0234526358723361;0.0;53.73386334285715;86.83913237142858
4.867025405392192;0.5670516283501194;4.867025405392192;-0.0010196798205363;0.028361382806724855;0.0489446313857448;4.8708369094347574;0.569688532596293;0.32454502417171766;4.8708369094347574;1.4630554625422802;-0.9778729478943612;0.00028761380731429;0.03772815335984492;-0.0601611094116447;9.486453000760648e-05;0.0234526358723361;0.0;53.73396534285713;86.83884305714285
3.516147148323696;0.5970175392086957;4.867025405392192;0.0489446313857448;0.028176604720700854;0.0489446313857448;3.5240495956370723;0.5965223708040266;0.35583893886965656;4.8708369094347574;1.5414625399541158;-0.9666564698684612;0.0003565341756705495;0.0489446313857449;-0.0560823901294993;0.0001073910050033914;0.027531355154481497;0.0;53.73405075714286;86.83852618571427
4.4422440363770646;0.9502331319866708;4.867025405392192;-0.0285510349750178;0.030566106883308557;0.0489446313857448;4.457063893635902;0.9463559266748479;0.89558953995261;4.8708369094347574;2.976476873527923;-0.9666564698684612;0.0009782038201254064;0.09279086366880818;-0.0346691138982359;0.0002444890653327555;0.048944631385744904;0.0;53.73412152857143;86.83818735714284
3.601416737209224;0.9477540110251512;4.867025405392192;-0.0122361578464362;0.03014775875082817;0.0489446313857448;3.6156321480809677;0.943794113819164;0.8907473292797011;4.8708369094347574;2.976476873527923;-0.9666564698684612;0.0009734506912732519;0.09279086366880818;-0.0346691138982359;0.0002444890653327555;0.048944631385744904;0.0;53.73417572857143;86.83782464285716
3.318956003507976;0.7766941651549758;4.4422440363770646;-0.0285510349750178;0.03031971020742491;0.0489446313857448;3.3293743694806417;0.7746713771156848;0.6001157425223116;4.457063893635902;2.5627038577290673;-0.9666564698684612;0.0009481996942461744;0.09279086366880818;-0.0346691138982359;0.00016007151644811593;0.04180687264199041;0.0;53.7342175;86.83743487142856
1.8733212759670952;0.933527531777376;4.4422440363770646;-0.0336494340776996;0.029947554162086727;0.0479249515652085;1.8943600359068344;0.9326415794870186;0.8698203157880409;4.457063893635902;2.5627038577290673;-0.9666564698684612;0.0009187401977145832;0.09279086366880818;-0.0336494340776996;0.00023730986029564454;0.0428265524625267;0.0;53.73426355714286;86.83702744285713
3.5107728853447435;0.8143453864030546;3.601416737209224;-0.0367084735393086;0.05359419787298944;0.1024778219639033;3.519641943097346;0.8104154905862915;0.6567732673822195;3.6156321480809677;1.7419356706047502;-0.9666564698684612;0.0008646733570213111;0.09279086366880818;-0.0326297542571632;0.00017982670823988732;0.030590394616090498;0.0;53.73431777142857;86.83660622857143
2.9836170760144567;0.7248395916822492;3.5107728853447435;-0.0316100744366268;0.05842411994008489;0.1024778219639033;2.9920295876824596;0.7198465340797794;0.518179032626671;3.519641943097346;1.6459454656211285;-0.9666564698684612;0.0008646238452624345;0.09279086366880818;-0.0326297542571632;0.00013541466052755828;0.027531355154481504;0.0;53.73434707142858;86.83611987142856
1.8993548806405365;0.8453041762259177;3.871456290275209;0.0479249515652085;0.059491276049168394;0.1024778219639033;1.9093995489325941;0.8437700557206881;0.711947906930893;3.8948694558579477;2.0211729783817303;-0.979912307535434;0.0006261752145126207;0.07953502600183537;-0.0326297542571632;0.0002132966572404838;0.03670847353930871;0.0;53.73435422857143;86.83566257142856
1.8492708542184615;0.836212759507492;3.871456290275209;0.1024778219639033;0.06076228045103711;0.1024778219639033;1.8736964774762175;0.8302822739067146;0.6893686543637046;3.8948694558579477;2.0211729783817303;-0.979912307535434;0.0002013643233512104;0.04384623228306295;-0.0326297542571632;0.0002173071097094899;0.03670847353930871;30.0;53.73432917142857;86.83521694285714
2.265616672020779;0.771201483292271;3.871456290275209;-0.0601611094116447;0.05964213858029045;0.1024778219639033;2.2878802446185373;0.7672085047378817;0.5886088897421362;3.8948694558579477;2.0211729783817303;-0.9931681452024064;0.00018438179005653092;0.03670847353930884;-0.0326297542571632;0.00019156099509364674;0.03670847353930871;0.0;53.734270228571425;86.83477765714285
3.871456290275209;0.7289057588978685;3.871456290275209;-0.0418068726419904;0.059131487295743794;0.1024778219639033;3.8948694558579477;0.7269469064740132;0.5284518048321377;3.8948694558579477;2.0211729783817303;-0.9931681452024064;0.00019095447604740147;0.03670847353930884;-0.0326297542571632;0.0001752716264232383;0.03670847353930871;0.0;53.73416242857143;86.83433705714286
1.9382369316647772;0.7738046841882752;3.871456290275209;-0.0479249515652085;0.05784262687696158;0.1024778219639033;1.9928163205513483;0.773015318089158;0.5975526820004822;3.8948694558579477;2.34115237857628;-0.9931681452024064;0.00019986659264519305;0.03670847353930884;-0.0275313551544814;0.0001957694945981598;0.041806872641990504;0.0;53.73399291428571;86.83391519999999
1.8712426100870247;0.7776182008301687;3.871456290275209;-0.0122361578464362;0.03696770469711069;0.0372183134495768;1.899179344449902;0.7754478952684631;0.6013194382762893;3.8948694558579477;2.34115237857628;-0.9931681452024064;0.00021521523789694674;0.03670847353930884;-0.0275313551544814;0.0001984926413363741;0.041806872641990504;0.0;53.73376032857143;86.83352535714286
2.500214438081412;0.8082229612490526;3.871456290275209;0.0193739165901906;0.03165175045790159;0.0372183134495768;2.520722297549279;0.8036332825925588;0.6458264528904915;3.8948694558579477;2.34115237857628;-0.9931681452024064;0.00019360335514730155;0.03670847353930884;-0.0275313551544814;0.000214336404176893;0.041806872641990504;0.0;53.733499957142854;86.83323572857144
1.5425021744255398;0.3040859804616635;2.500214438081412;0.0372183134495768;0.0284169739651845;0.0372183134495768;1.553717077281668;0.30134983680401245;0.09081172414180494;2.520722297549279;0.9670052202676112;-0.9503415927398796;0.0007657612407255451;0.0795350260018356;-0.0275313551544814;3.229404472727501e-05;0.017334556949118;0.0;53.73321042857143;86.83298642857143
1.8080920386461183;0.5959595705440643;3.22576354269442;0.0061180789232181;0.020089368445599776;0.0372183134495768;1.8472096948127952;0.6017895479851575;0.3621506600641801;3.2858911508490625;1.7321740735673945;-0.9503415927398796;0.0008016325100316568;0.0795350260018356;-0.0275313551544814;0.00010574473902074279;0.028041195064749697;0.0;53.73288901428572;86.83278204285715
1.6723270720690222;0.5960058672140501;3.22576354269442;-0.0244723156928724;0.020089368445599762;0.0372183134495768;1.7265777634314445;0.5951598477958895;0.3542152444284263;3.2858911508490625;1.7321740735673945;-0.9503415927398796;0.0006802049213867441;0.07698582645049468;-0.0275313551544814;0.00010645956503952405;0.028041195064749697;0.0;53.73255015714285;86.83263335714285
1.81290384346669;0.5734141806752749;3.22576354269442;0.0061180789232181;0.02876031678776426;0.0372183134495768;1.882074392864205;0.570035855992013;0.324940877116547;3.2858911508490625;1.7321740735673945;-0.9503415927398796;0.0005543955420812534;0.07137758743754474;-0.0275313551544814;9.476241200492216e-05;0.028041195064749697;0.0;53.73219214285715;86.8325423142857
3.22576354269442;0.6853653149376716;3.22576354269442;0.0020393596410727;0.022919585156394823;0.0061180789232181;3.2858911508490625;0.604362896286876;0.3652545104082612;3.2858911508490625;1.933302498796359;-0.9503415927398796;0.0005370169147155584;0.06933822779647192;-0.0163148771285816;0.00013629039976268786;0.039257673090649495;0.0;53.731820728571435;86.83247444285713
1.870375811396988;0.8800603857798555;3.22576354269442;-0.0122361578464361;0.02379140192206534;0.0112164780258998;2.1125522685348144;0.8021013831879107;0.6433666289119596;3.2858911508490625;2.6269480268115433;-0.9503415927398796;0.0005514991041869699;0.06933822779647192;-0.0071377587437544;0.0002268969185069046;0.0484347914754767;0.0;53.731401985714285;86.83240678571428
1.7116174641057813;0.9706164912809998;3.22576354269442;-0.0545528703986948;0.023546656956776792;0.0112164780258998;2.073794673067283;0.8973148190457484;0.8051738844791042;3.2858911508490625;2.6269480268115433;-0.9503415927398796;0.000583805526853965;0.06933822779647192;-0.0071377587437544;0.0002751089937130142;0.0484347914754767;0.0;53.730981142857146;86.83233702857142
0.9161853694997044;1.6458685224522476;3.22576354269442;-0.0326297542571632;0.0222748673091972;0.0112164780258998;1.3525886520527035;0.9150575400133407;0.8373303015352667;3.2858911508490625;2.6269480268115433;-0.986030386458652;0.00017317975461069853;0.03364943407769949;0.0367084735393086;0.000820747143442957;0.0922810237585397;0.0;53.73056411428571;86.83225645714286
0.4063210006922862;2.116886578494112;1.870375811396988;0.0112164780258998;0.02410667732962434;0.0112164780258998;0.6589431240375193;1.1102849721239312;1.2327327193242388;3.951351822643852;3.292408698606333;-0.9880697460997246;0.0003871943323548884;0.0642398286937903;0.0708677475272764;0.0014546461923403368;0.10375242173957369;0.0;53.730146;86.83217114285715
0.5739772471979504;1.9965345606422917;1.7116174641057813;-0.0198837565004588;0.0238568658089549;0.0112164780258998;0.816910508423663;1.1057037545102935;1.2225807927381593;3.951351822643852;3.292408698606333;-0.9880697460997246;0.0003770815556043381;0.0642398286937903;0.0708677475272764;0.0012931604962793059;0.10043846232283049;30.0;53.729735357142864;86.83207135714285
-2.0846425338144448;1.7245808488105006;0.9161853694997044;-0.0050983991026817;0.020517342710710703;0.0112164780258998;2.219191383296526;1.1292756299101177;1.2752634483088932;3.951351822643852;3.292408698606333;-1.0003059039461608;0.00028617796630686084;0.05200367084735413;0.0708677475272764;0.0009799986213846776;0.087182624655858;30.0;53.729344485714286;86.83196939999998
-3.848264135208213;1.5142440919182762;0.5739772471979504;-0.0509839910268175;0.025195781281324017;0.0214132762312633;3.951351822643852;1.1282998474324262;1.2730605457160362;3.951351822643852;3.292408698606333;-1.0003059039461608;0.0002910796304356463;0.05200367084735413;0.0708677475272764;0.0007608348207173142;0.0810645457326399;30.0;53.728966;86.83186154285714
-1.6651401382911728;1.355163722560519;0.5739772471979504;-0.0346691138982359;0.023361415628280688;0.0214132762312633;1.828940689911837;1.1097631005098116;1.2315741392531505;3.951351822643852;3.167973770959362;-1.0003059039461608;0.00027444367945310156;0.05200367084735413;0.0708677475272764;0.000615765367208815;0.0810645457326399;0.0;53.72864154285714;86.83176017142857
-0.992644845071542;1.0727909891096576;-0.7440558617069771;-0.0173345569491179;0.023287384889154748;0.0214132762312633;1.140414124259467;1.0732596766358637;1.1518863334925187;3.951351822643852;3.167973770959362;-0.9982665443050882;0.0003308870845724508;0.054043030488426735;0.0708677475272764;0.0003911057613061471;0.0576119098603039;0.0;53.728322871428574;86.83165727142857
-1.3292338791505869;1.1215124902230589;-0.7440558617069771;0.0214132762312633;0.022910132165726634;0.0214132762312633;1.3715215136037733;1.1284276281010783;1.2733489118618253;3.951351822643852;3.167973770959362;-0.9982665443050882;0.000321776920939152;0.054043030488426735;0.0708677475272764;0.00042638288950573984;0.0576119098603039;0.0;53.72799738571429;86.8315439
-0.7440558617069771;0.6528827234445784;-0.7440558617069771;-0.003059039461609;0.03033113897773209;0.0560823901294993;0.7833780516844898;0.653305264683144;0.42680776886271277;2.642462598707839;1.859084547023349;-0.9850107066381156;0.0001649236688180165;0.035688793718772316;0.0458855919241358;0.000129609406799272;0.0326297542571633;0.0;53.72769015714285;86.83141587142856
-2.631455165868477;0.858698634064416;0.2635980252002269;-0.0152951973080452;0.026716315538737212;0.0560823901294993;2.642462598707839;0.7367799011252396;0.5428446227021179;2.642462598707839;2.3722146873507524;-0.9850107066381156;0.00015551643463146013;0.035688793718772316;0.0458855919241358;0.00022415211037417945;0.0504741511165493;0.0;53.72738124285714;86.83127518571428
-0.9767814487800148;0.8784150299082388;0.2635980252002269;-0.0132558376669725;0.02590334643045124;0.0560823901294993;0.9932772345634777;0.7509879664714542;0.56398292578493;2.642462598707839;2.3722146873507524;-0.979912307535434;0.0002406766598992482;0.04078719282145393;0.0458855919241358;0.0002330642269719712;0.0504741511165493;0.0;53.72707214285714;86.83112334285715
-0.9177772172809944;0.9122588097004853;0.2635980252002269;0.0560823901294993;0.027448505147376345;0.0560823901294993;0.9298568759930821;0.7814615757728717;0.6106821944094197;2.642462598707839;2.3722146873507524;-0.979912307535434;0.0002737010030699552;0.04078719282145393;0.0458855919241358;0.00024935359564237956;0.0504741511165493;0.0;53.72676305714286;86.83095688571429
0.2635980252002269;0.9165631153130053;0.2635980252002269;0.0152951973080452;0.02773739752002372;0.0560823901294993;0.27024791135708676;0.7891356971721206;0.6227351485513289;2.642462598707839;2.3722146873507524;-0.979912307535434;0.00020785036376404955;0.036708473539308284;0.0458855919241358;0.000252027230621717;0.0504741511165493;0.0;53.72645097142857;86.83078011428572
-1.5496664338510318;0.8223747649329471;0.2635980252002269;-0.0112164780258998;0.03067444320099894;0.0560823901294993;1.5505831093189262;0.6935021403909379;0.4809452187268121;2.294576818783926;2.0243289074268396;-0.979912307535434;0.0004704607328456468;0.05812174977057183;0.040787192821454;0.00021266538231480287;0.0453757520138675;0.0;53.72613604285714;86.83059318571428
-1.7856365461409969;0.8427520569897607;0.2635980252002269;-0.0244723156928724;0.029334525209651473;0.0560823901294993;1.793353921968229;0.7147077947343178;0.5108072318539917;2.294576818783926;2.0243289074268396;-0.979912307535434;0.0004479328825567858;0.05812174977057183;0.040787192821454;0.00022395406333867223;0.0453757520138675;0.0;53.725827357142855;86.83042347142857
-0.6937242741388259;1.1552988173186365;0.8408089195532022;-0.0101967982053635;0.029506181862221828;0.040787192821454;0.7147010752692382;0.6972059184695515;0.48609609274897086;2.294576818783926;2.0243289074268396;-0.979912307535434;0.0006085985401114189;0.061180789232181065;0.040787192821454;0.0004217782959302114;0.0560823901294992;30.0;53.725515900000005;86.83028755714285
-2.2484168688076256;1.5734441383502082;1.9906866029048105;0.040787192821454;0.031931107881598184;0.040787192821454;2.294576818783926;0.5579328739196637;0.3112890918002554;2.294576818783926;1.579875743514688;-0.979912307535434;0.0006183028448512353;0.061180789232181065;0.040787192821454;0.0007849594252299479;0.0764759865402263;30.0;53.72520024285715;86.8301840142857
-1.6742828732448063;1.670649277470887;1.9906866029048105;0.0163148771285816;0.032988163761404767;0.040787192821454;1.7876421737171793;0.5604564421585194;0.31411142355698585;2.294576818783926;1.579875743514688;-0.9809319873559702;0.0004726887619950929;0.060161109411644875;0.040787192821454;0.0008828936842879046;0.0764759865402263;30.0;53.72487611428572;86.83011222857142
0.8408089195532022;1.6049832792419507;1.9906866029048105;-0.0479249515652085;0.032750919747437976;0.040787192821454;1.178690973828082;0.5636718159770219;0.3177259161268336;2.294576818783926;1.579875743514688;-0.9972468644845518;0.00030038784110444987;0.04384623228306328;0.040787192821454;0.0008234795736359596;0.0764759865402263;0.0;53.724550771428575;86.8300758
1.9906866029048105;1.823246276036413;2.6409613911264818;-0.0448659121035994;0.03288820281527508;0.040787192821454;2.2032317901490552;0.5953951767440037;0.3544954164900234;2.8443246182816013;1.6656336444535194;-0.9972468644845518;0.00029058451284687877;0.04384623228306328;0.040787192821454;0.0010618291808680137;0.0876924645661261;0.0;53.724208228571435;86.83007337142855
1.1708633752225428;1.433193004118918;2.6409613911264818;-0.0336494340776996;0.022096050648981687;0.0163148771285816;1.4826523191832113;0.6489666538036983;0.42115771774916927;2.8443246182816013;1.6656336444535194;-0.9901091057407974;0.0003115279868516946;0.05098399102681772;0.0295707147955541;0.0006393948541326833;0.07647598654022619;0.0;53.72385394285715;86.83010674285715
1.0499532563566505;0.7298874645748122;2.6409613911264818;-0.0173345569491179;0.017170979124973684;-0.0020393596410727;1.3677027216538316;0.7179097015835294;0.5153943396277523;2.8443246182816013;1.6656336444535194;-0.9901091057407974;0.00031449869238429174;0.05098399102681772;-0.0152951973080452;0.00016457708650588842;0.0316100744366269;0.0;53.723490042857144;86.83016707142858
2.6409613911264818;0.8075711070943873;3.33700150188873;-0.023452635872336;0.014212406685426929;-0.0020393596410727;2.8443246182816013;0.7892643055836741;0.6229381440684792;3.578024380723756;2.2103216590699244;-0.9702253492403384;0.00032998349497296003;0.055572550219231354;-0.0183542367696543;0.00018964241443717738;0.038237993270113096;0.0;53.723127614285715;86.83022521428572
2.299888600494436;1.0316257303504766;3.851297719485807;-0.0112164780258998;0.021305996028709254;-0.0020393596410727;2.6478249224679757;0.978235397277423;0.9569444924865177;3.9995598910398336;2.6318571693860022;-0.9702253492403384;0.00024663044890416776;0.046395431834403866;-0.0183542367696543;0.00032669096300766523;0.049964311206281205;0.0;53.72275867142857;86.83027318571428
2.376290570609852;0.8839137861459906;3.851297719485807;-0.0020393596410727;0.021248694375201053;-0.0020393596410727;2.7831399681021045;0.8263671800624542;0.6828827162843726;3.9995598910398336;2.6318571693860022;-0.9702253492403384;0.00024675422830135906;0.046395431834403866;-0.0183542367696543;0.0002400453849735783;0.049964311206281205;0.0;53.722386171428575;86.83029565714286
3.33700150188873;0.6147643955556455;3.851297719485807;-0.026256755378811;0.020913130505778095;-0.0020393596410727;3.578024380723756;0.5321754422884488;0.2832107013749061;3.9995598910398336;1.3517349685718578;-0.9676761496889976;0.00039462109618639126;0.048944631385744675;-0.0397675130009177;0.000110077017922448;0.028551034975017806;0.0;53.72201807142857;86.8302896142857
3.851297719485807;0.6013913777205931;3.851297719485807;-0.0683185479759355;0.03267765883821667;0.0387478331803813;3.9995598910398336;0.5251980129885498;0.275832952847121;3.9995598910398336;1.3517349685718578;-0.9676761496889976;0.00030609407131499593;0.04486591210359947;-0.0397675130009177;0.0001072548476664806;0.028551034975017806;0.0;53.721673071428576;86.8302445
2.7940611325662945;0.5603373621973431;3.851297719485807;-0.0326297542571632;0.03864143050893037;0.0387478331803813;2.951137840315623;0.4894204975090959;0.23953242338205094;3.9995598910398336;1.216419922937729;-0.9676761496889976;0.0003148576526361585;0.04486591210359947;-0.0418068726419904;9.12130377904558e-05;0.026511675333945106;0.0;53.72135361428571;86.83014447142857
3.6163253705634686;0.5512842591109053;3.851297719485807;-0.0265116753339451;0.03921086256231363;0.0387478331803813;3.701548246066093;0.5767059380223438;0.33258973895023153;3.9995598910398336;1.5844475747293951;-0.9676761496889976;0.00026398432039042885;0.04486591210359947;-0.0418068726419904;9.12130377904558e-05;0.026511675333945106;0.0;53.72105668571429;86.83000114285714
2.82207582349053;0.5922985425280209;3.851297719485807;0.0387478331803813;0.038618720574629395;0.0387478331803813;2.9088325081069804;0.6207125467352406;0.38528406567454826;3.9995598910398336;1.5844475747293951;-0.9676761496889976;0.00021823545518842854;0.04486591210359947;-0.0418068726419904;0.00010446981122967098;0.026511675333945106;30.0;53.72076884285714;86.82983764285714
3.7328053441647175;0.5832428317414579;3.7328053441647175;0.0356887937187723;0.036822437382335114;0.0387478331803813;3.765590937152386;0.6006275505874105;0.36075345452463226;3.765590937152386;1.5486675895082729;-0.9676761496889976;0.00020590702722815055;0.04282655246252687;-0.0387478331803813;9.011140115545054e-05;0.02549199551340879;0.0;53.720481171428574;86.82966699999999
2.4128144083867977;0.5836581010006376;3.7328053441647175;0.0076475986540226;0.03670729333535895;0.0387478331803813;2.4151123163104384;0.6021751415702808;0.36261490112518774;3.765590937152386;1.5486675895082729;-0.9676761496889976;0.00038677348240444737;0.061180789232181176;-0.0387478331803813;8.991335411994405e-05;0.02549199551340879;0.0;53.7202041;86.82951427142858
2.6168708680987;0.5287957357877665;3.7328053441647175;-0.0127459977567043;0.036862081988809456;0.0387478331803813;2.6182498169901236;0.5399541005407422;0.2915504306907619;3.765590937152386;1.5486675895082729;-0.9839910268175792;0.0002553197625870165;0.04486591210359958;-0.0387478331803813;7.723834384752904e-05;0.02549199551340879;0.0;53.719927042857144;86.82938350000002
2.1919270379127496;0.5479351815295861;3.7328053441647175;-0.061180789232181;0.03881820768132922;0.0489446313857448;2.216923347644113;0.5609764023886203;0.31469452403687925;3.765590937152386;1.5486675895082729;-0.9839910268175792;0.0002490070133302468;0.04486591210359958;-0.0387478331803813;8.313024315384704e-05;0.02549199551340879;0.0;53.719651185714284;86.82928318571429
2.778957678430296;0.44513824195897433;3.3136507373608985;-0.0316100744366268;0.037967061064476226;0.0489446313857448;2.8227728254510747;0.45430709441629774;0.20639493603697887;3.3667442573906117;1.1498209097464986;-0.986030386458652;0.0001990001368648573;0.04282655246252676;-0.0387478331803813;5.6988034466990836e-05;0.018354236769654295;0.0;53.719371914285716;86.82922699999999
3.3136507373608985;1.3475705678685175;3.3136507373608985;0.020393596410727;0.03979256134722844;0.0489446313857448;3.3667442573906117;0.8598194231271256;0.7392894403866629;3.3667442573906117;2.5588498153405013;-0.986030386458652;0.00020697153004399312;0.04282655246252676;0.0112164780258998;0.0005513134350911751;0.0683185479759354;0.0;53.71907905714286;86.82920111428571
3.221461502719088;1.96388707353225;3.3136507373608985;0.0489446313857448;0.03929596335304759;0.0489446313857448;3.2721785003500754;0.9144816408700919;0.8362766714884556;3.3667442573906117;2.5588498153405013;-0.986030386458652;0.00021829734488701974;0.04282655246252676;0.0285510349750178;0.0011838261547400095;0.0856531049250534;0.0;53.7187801;86.82919838571429
2.2663984837186493;2.1034625249514973;3.3136507373608985;0.0295707147955541;0.02672002176273209;0.0489446313857448;2.3349813778715816;1.1317864514228761;1.2809405716243865;3.3667442573906117;2.7649537024703905;-0.986030386458652;0.0010599972457895712;0.09381054348934426;0.0285510349750178;0.0013644450511219233;0.0856531049250534;0.0;53.71849535714286;86.82920621428572
-0.648718543576064;2.3451113675646207;3.3136507373608985;0.0316100744366268;0.0247399345842464;0.0489446313857448;0.8078944420501104;1.097154802825301;1.2037486613626254;3.3667442573906117;2.7649537024703905;-0.9768532680738248;0.0011837271312222536;0.10298766187417152;0.0387478331803813;0.0016573566166360129;0.0958499031304169;0.0;53.71820434285714;86.82923337142857
-1.6167829212707754;2.0796942382934698;3.221461502719088;-0.003059039461609;0.024717910602182893;0.0489446313857448;1.6331022906314292;0.9325077062121794;0.8695706221451002;3.2721785003500754;2.6703879454298542;-0.9768532680738248;0.0011060060477256755;0.10298766187417152;0.0387478331803813;0.00131245770430147;0.09483022330988061;0.0;53.71790645714286;86.82927194285715
-0.5410166945253896;1.8360577697568203;2.2663984837186493;0.0040787192821454;0.022697353394421207;0.0397675130009177;0.6017905549202214;1.0962123804939228;1.2016815831481529;3.859389749521922;3.257599194601701;-0.9768532680738248;0.001070852698923273;0.10298766187417152;0.0652595085143265;0.0010414303362108461;0.1050270215152442;30.0;53.71759955714286;86.82933075714287
-2.270790166124378;1.0737866043101956;-0.5410166945253896;-0.0244723156928724;0.024567220858412394;0.0397675130009177;2.3661573841159242;1.108510340565545;1.2287951751407407;3.859389749521922;3.257599194601701;-0.9768532680738248;0.0011738619132660802;0.10298766187417152;0.0652595085143265;0.00036033420316432556;0.05506271030896301;30.0;53.71729072857143;86.82940958571429
-1.4516253405217647;1.0047976201564963;-0.5410166945253896;0.0091771183848271;0.024385164016430594;0.0397675130009177;1.773740937381436;1.0628883768010744;1.1297317015388229;3.859389749521922;3.257599194601701;-0.9635974304068522;0.0015149979319260037;0.1162434995411441;0.0652595085143265;0.00030401457744216816;0.05506271030896301;30.0;53.716978757142854;86.82951087142858
-3.6737942778052544;1.00943261727242;-0.5410166945253896;0.0397675130009177;0.036411892002451124;0.0397675130009177;3.859389749521922;1.0778475090432846;1.1617552527508135;3.859389749521922;3.257599194601701;-0.9635974304068522;0.0015405955112652182;0.1162434995411441;0.0652595085143265;0.00030730710940746333;0.05506271030896301;30.0;53.71665891428571;86.82963354285714
-2.1579375601781177;0.6868232859573203;-1.4516253405217647;-0.0224329560517997;0.04199888000576335;0.0397675130009177;2.4994812409190095;0.7164286976615212;0.5132700788329833;3.859389749521922;2.0856488121404864;-0.9635974304068522;0.0007476151810972628;0.07800550627103098;0.0652595085143265;0.00014599779898743104;0.039767513000917805;0.0;53.716337457142856;86.82977654285715
-2.785491978329922;0.747152108965885;-1.4516253405217647;-0.0295707147955541;0.04553464534259894;0.0397675130009177;3.139212256452382;0.6765772213382115;0.4577567364337352;3.859389749521922;2.0856488121404864;-0.9635974304068522;0.0008144560555806947;0.07800550627103098;0.0652595085143265;0.00016661944655954405;0.039767513000917805;0.0;53.71602155714286;86.82992144285716
-2.7352012963701986;0.6148330575617685;-1.7502596589095682;-0.07545630671969;0.04219646753842144;0.0397675130009177;3.251959470241839;0.431993889135315;0.1866187202502548;3.859389749521922;1.3599085086029126;-0.9595187111247068;0.001102812539278144;0.0820842255531764;0.0652595085143265;0.0001152262408456107;0.03364943407769971;0.0;53.71570581428572;86.83007381428571
-2.749213392903897;0.5628028197561145;-1.316788965023371;-0.0764759865402263;0.02296733069103867;-0.0224329560517997;3.4140363587291427;0.3342415425649992;0.1117174087762302;3.5202939375653455;1.020812696646336;-0.9595187111247068;0.0011153390142739296;0.0820842255531764;0.0479249515652085;8.376151807951825e-05;0.024472315692872497;0.0;53.71538392857143;86.8302237
-1.7502596589095682;1.6864015662828926;1.9432241202546816;-0.0723972672580809;0.01687870435122563;-0.0295707147955541;2.9781031642865785;0.21732386078170318;0.04722966046506511;3.523607028300557;0.5455038640139787;-0.9595187111247068;0.0012510631232944618;0.09075150402773513;0.0479249515652085;0.0008825471019757676;0.0836137452839808;0.0;53.71504708571428;86.83037691428571
-2.247730156889316;1.8167037589196946;1.9432241202546816;-0.0571020699500356;0.014244268597453412;-0.037728153359845;3.5202939375653455;0.22561984857350834;0.050904316070332835;3.523607028300557;0.5455038640139787;-0.9595187111247068;0.0010577692166401234;0.09075150402773513;0.0479249515652085;0.0010286067906617998;0.0836137452839808;0.0;53.71466431428571;86.83054271428571
-1.316788965023371;2.4941183241554277;3.983873718743717;-0.0734169470786173;0.02231456383221916;-0.0152951973080452;3.087999836029096;0.6854157008417531;0.46979468296039156;4.97839228063805;2.0002891163514716;-0.9595187111247068;0.0010767817320487426;0.09075150402773513;0.0469052717446721;0.0019438811652550206;0.1182828591822167;0.0;53.71427227142858;86.83069924285715
1.9432241202546816;2.3262925990002516;3.983873718743717;-0.058121749770572;0.023292699580985003;-0.0152951973080452;3.523607028300557;0.6857955301203676;0.4703155091330761;4.97839228063805;2.0002891163514716;-0.9595187111247068;0.0007939705653454758;0.09075150402773513;0.037728153359845;0.0017032540171146428;0.1091057407973896;0.0;53.713876285714285;86.83084817142857
0.739861320849501;2.1846975981004966;3.983873718743717;-0.037728153359845;0.02069245492359531;-0.0152951973080452;3.071712259869841;0.6407083441915926;0.41050718231673233;4.97839228063805;1.906680020768209;-0.9595187111247068;0.0008919048244034393;0.09075150402773513;0.037728153359845;0.0014712419150187974;0.1091057407973896;0.0;53.7134807;86.83099018571428
3.983873718743717;1.8890142905676228;3.983873718743717;-0.0152951973080452;0.01995056464386814;-0.0152951973080452;4.97839228063805;0.7059736379882567;0.4983987775343741;4.97839228063805;2.0972222561161895;-0.9850107066381156;0.0004365946897740229;0.06525950851432627;0.023452635872336;0.0011291651729402215;0.09483022330988061;0.0;53.71309004285714;86.83112981428572
2.0100718783057427;2.229206510894492;3.983873718743717;-0.0224329560517997;0.015317840099580315;-0.0152951973080452;3.654494936608453;0.67526810356461;0.4559870116917449;4.97839228063805;2.0972222561161895;-0.9850107066381156;0.00045501306407612807;0.06525950851432627;0.046650351789538;0.0015608551041005512;0.1180279392270826;0.0;53.71270692857143;86.83126601428572
2.3690110785569147;2.5695547630981794;3.983873718743717;-0.0418068726419904;0.012569487761054583;-0.0152951973080452;3.776081713152028;0.6841562832116622;0.46806981985799617;4.97839228063805;2.0972222561161895;-0.9819516671765066;0.0003223215502868013;0.04384623228306317;0.046650351789538;0.0020429387223424907;0.1180279392270826;0.0;53.71231671428571;86.83139511428571
-0.9357157679056836;2.5737174913535097;3.983873718743717;-0.0356887937187723;0.014500911693718192;-0.0152951973080452;2.8811700245218606;0.9687126853651982;0.9384042667874534;4.97839228063805;3.2051707344022593;-0.9615580707657796;0.0004751643499389423;0.06322014887325378;0.046650351789538;0.0020502664626562304;0.1180279392270826;0.0;53.71196132857143;86.83149687142857
-2.652914059850272;1.9900459274008604;2.3690110785569147;-0.0530233506678902;0.025116069396052307;-0.0152951973080452;3.5201262236739237;0.8984442442510983;0.8072020600279272;3.776081713152028;2.1700832355828066;-0.9615580707657796;0.00031692476856926666;0.0550627103089627;0.046650351789538;0.0012007932156100395;0.087437544610992;0.0;53.71160161428571;86.8315760142857
-2.613916542724513;1.8767486410768563;2.3690110785569147;-0.0397675130009177;0.02347927386594448;-0.0152951973080452;3.331077651078533;0.8818466725875729;0.7776535539537739;3.776081713152028;2.1700832355828066;-0.9615580707657796;0.00020273827466006403;0.04384623228306328;0.046650351789538;0.0010583045625329824;0.087437544610992;0.0;53.71123237142857;86.83162734285713
-0.1822534648166627;1.95174788802205;2.663742293872444;-0.0152951973080452;0.02539396632172371;-0.0152951973080452;1.7732215462357908;0.778118792805937;0.6054688557177688;3.5201262236739237;1.9141277461047022;-0.9615580707657796;0.0004412859289276199;0.06831854797593562;0.046650351789538;0.0011803881819830119;0.0945753033547465;30.0;53.710854985714285;86.83164492857142
-0.3525096490286601;2.207109150759179;2.663742293872444;-0.0922810237585398;0.025295312567792067;-0.0152951973080452;1.6059984775692215;0.7877517030164267;0.6205527456052805;3.5201262236739237;1.9141277461047022;-0.9615580707657796;0.0005644464291332105;0.06831854797593562;0.046650351789538;0.0015138498780170554;0.0945753033547465;0.0;53.71047025714285;86.83162225714285
1.3768561176909244;1.9466264358558298;2.663742293872444;-0.0499643112062812;0.02820668061520443;-0.0081574385642908;2.1085228194785066;0.6940449972378805;0.48169845819092955;3.331077651078533;1.7250791735093114;-0.9615580707657796;0.0007173139846647739;0.06933822779647181;0.0448659121035994;0.0011751244631174424;0.0927908636688079;0.0;53.71007960000001;86.83155708571428
2.663742293872444;1.2910971344747475;2.663742293872444;-0.0214132762312633;0.030734308415643626;-0.0050983991026817;3.111845701053855;0.6393400380608025;0.4087556842675884;3.111845701053855;1.5058472234846336;-0.9615580707657796;0.0006730999839879449;0.06933822779647181;0.0061180789232181;0.0005321647623456419;0.0540430304884266;0.0;53.709703271428566;86.83145504285714
2.5076646464222825;1.0501341202771366;2.663742293872444;-0.037728153359845;0.02986871281555538;-0.0050983991026817;3.021502385744599;0.5576111900987569;0.31093023932335206;3.111845701053855;1.5058472234846336;-0.9901091057407974;0.00033703892061286264;0.047924951565208485;0.0061180789232181;0.00035372438335430043;0.0540430304884266;0.0;53.70934189999999;86.83134967142857
2.237351168268026;0.53413494534668;2.663742293872444;-0.0081574385642908;0.024204806191892123;0.023452635872336;2.7835855465293697;0.37983631957651115;0.1442756296694295;3.111845701053855;1.0033228815753485;-0.9957173447537472;0.0002623999441063544;0.04231671255225866;-0.0239624757826042;9.675835478463739e-05;0.023962475782604298;0.0;53.70899815714285;86.83125827142855
2.402579532026328;1.1093978703653011;2.663742293872444;-0.0050983991026817;0.02275073465398861;0.023452635872336;2.9964768147599132;0.37189982847161784;0.13830948241721877;3.111845701053855;0.9723987393333839;-0.99214846538187;0.0002928125419963201;0.04588559192413588;0.0091771183848271;0.0003928386728668303;0.0571020699500356;0.0;53.70866308571429;86.83119017142857
1.7435654181144538;2.8338399008140147;2.5076646464222825;-0.0285510349750178;0.023383923217317592;0.023452635872336;2.5240081763173743;1.2324145486095108;1.5188456196243845;5.7818575210188845;3.6424105592984133;-0.968695829509534;0.0006106780339842381;0.06933822779647181;0.0907515040277353;0.0023960844370149227;0.1356174161313347;0.0;53.708337571428565;86.83115357142857
1.4024954843559885;2.8876877936929572;2.402579532026328;0.023452635872336;0.023981838776683327;0.023452635872336;2.3579884556885733;1.2325393093828823;1.5191531491740324;5.7818575210188845;3.6424105592984133;-0.968695829509534;0.0005770100379481384;0.06933822779647181;0.0907515040277353;0.0025062976122742792;0.133578056490262;0.0;53.708032128571425;86.83115167142856
-0.5294631200388916;2.7046012424457895;2.402579532026328;-0.0428265524625267;0.023956017973338493;0.023452635872336;2.139446961720471;1.2685095662672943;1.6091165197116393;5.7818575210188845;3.6424105592984133;-0.968695829509534;0.00048095722572749747;0.06933822779647181;0.0907515040277353;0.0021875285306868727;0.133578056490262;0.0;53.707763299999996;86.83118638571429
-5.34925769139024;2.4788965869957695;1.7435654181144538;-0.0316100744366268;0.02536153109664688;0.023452635872336;5.7818575210188845;1.2994101570297656;1.6884667561921203;5.7818575210188845;3.6424105592984133;-0.968695829509534;0.0004511511468837733;0.06933822779647181;0.0907515040277353;0.001822824914801681;0.1223615784643621;30.0;53.70753282857144;86.83125214285714
-2.318749872665957;2.2411383624203465;1.4024954843559885;-0.0418068726419904;0.032356238060784456;0.023452635872336;3.186035811522346;1.3229769308283312;1.7502679595039512;5.7818575210188845;3.6424105592984133;-0.968695829509534;0.00022785311435022065;0.04486591210359947;0.0907515040277353;0.0014698060740113723;0.11522381972060769;0.0;53.707324885714286;86.83132945714286
-0.3467003443627993;1.9666349500025357;0.7481541813577494;-0.0336494340776996;0.018296147183624194;-0.0316100744366268;2.28413819600897;1.3070243962370642;1.7083127723588625;5.7818575210188845;3.6424105592984133;-0.968695829509534;0.00028900013656284364;0.04996431120628109;0.0907515040277353;0.0011248081381590757;0.1040073416947078;0.0;53.707124900000004;86.83141107142858
0.7481541813577494;2.130412761129192;0.8036468861674704;-0.0560823901294993;0.018225651985683673;-0.0316100744366268;2.298677119618594;1.293150582011805;1.6722384277574698;5.7818575210188845;3.5904605677711596;-0.968695829509534;0.0003032595231193044;0.04996431120628109;0.0907515040277353;0.0013297868199082872;0.10502702151524419;0.0;53.70691842857143;86.83148254285716
-0.8765186390990082;1.4999027816530495;1.9584812606794304;-0.0836137452839808;0.01939562692837154;-0.0244723156928724;2.191396953247725;0.3778011511394555;0.1427337098022977;3.186035811522346;0.9946388582746213;-0.9962271846640156;5.7087057984735595e-05;0.022432956051799513;0.040787192821454;0.0007025223467003726;0.07545630671968989;0.0;53.706704;86.8315350857143
-1.604483502020413;1.19337833278747;1.9584812606794304;-0.0356887937187723;0.026254574974284465;-0.0244723156928724;2.6744254362056408;0.26413921941155216;0.0697695272313441;2.8742489124778756;0.6828519592301507;-0.9962271846640156;0.0007003933410686657;0.0825940654634445;0.0285510349750178;0.00044778434728015765;0.0632201488732537;0.0;53.70646792857143;86.83156598571429
0.8036468861674704;1.2430054566580113;1.9584812606794304;-0.0469052717446721;0.025782646774090517;-0.0244723156928724;2.2869048357729986;0.2593420532069662;0.06725830056160488;2.8742489124778756;0.6828519592301507;-0.9941878250229428;0.0007962481062538085;0.08463342510451732;0.0285510349750178;0.0004822445314582861;0.0632201488732537;0.0;53.706198514285724;86.83157085714286
1.9584812606794304;1.2790960257171216;1.9584812606794304;-0.0244723156928724;0.025790087064777697;-0.0244723156928724;2.8742489124778756;0.3129366517426595;0.09792934800390657;2.8742489124778756;0.9214950037750227;-0.9758335882532884;0.0010655425627837613;0.10298766187417174;0.0285510349750178;0.0005094759988404273;0.0632201488732537;0.0;53.705885014285705;86.83154261428571
0.4855492739436367;1.2221670879761353;1.9584812606794304;-0.0938105434893443;0.024621826772704594;-0.0214132762312633;2.2039723374120896;0.3490678018363681;0.12184833027887394;2.8742489124778756;0.9355895068260454;-0.9758335882532884;0.0010097428105298053;0.10298766187417174;0.0285510349750178;0.0004663017451000139;0.0632201488732537;0.0;53.705552942857146;86.83148482857143
1.3503704938430567;0.9089083052451602;1.9584812606794304;-0.037728153359845;0.037125075215926825;0.0275313551544814;2.385295401132743;0.3252230369283534;0.10577002374890114;2.8742489124778756;0.9355895068260454;-0.9758335882532884;0.0010094581179162648;0.10298766187417174;0.0091771183848271;0.0002545399523847059;0.043846232283062996;0.0;53.70522428571429;86.83140851428573
-0.5379121378071704;0.9843942227716604;1.9584812606794304;-0.0565922300397675;0.04066242503522196;0.0275313551544814;1.952753908702853;0.38383899064587185;0.1473323707400417;2.8742489124778756;1.1812547089181262;-0.9758335882532884;0.001095608578361592;0.10298766187417174;0.0091771183848271;0.00029910053537366457;0.043846232283062996;0.0;53.70492552857143;86.83135112857143
-0.4009755035012636;0.8079248588170406;1.3503704938430567;-0.0214132762312633;0.04109481969279039;0.0275313551544814;1.9386594056518303;0.2708342801326727;0.07335120729498301;2.385295401132743;0.7732384917631479;-0.9758335882532884;0.0010980594104259857;0.10298766187417174;0.0091771183848271;0.00020116627631570729;0.0326297542571631;0.0;53.70465958571429;86.8313411857143
1.089725403301799;0.8591761345135599;1.3503704938430567;0.0275313551544814;0.029060023009959395;0.0275313551544814;2.054364158421778;0.29480366484507237;0.08690920080608576;2.385295401132743;0.8520556978708076;-0.9758335882532884;0.00024398156980428234;0.04384623228306317;0.0132558376669725;0.00022621922630727725;0.0367084735393085;0.0;53.70442810000001;86.83139129999999
-0.3532871058972162;0.7009848992619848;1.089725403301799;0.0112164780258998;0.02850091742505083;0.0275313551544814;1.6929942035597494;0.20990154969280783;0.04405866056344227;2.054364158421778;0.5211244551598424;-0.9758335882532884;0.00024398156980427938;0.04384623228306317;0.020393596410727;0.0001538330348296574;0.039767513000917604;0.0;53.704235042857135;86.83151641428572
-0.5210812369040482;0.7258880921036966;1.089725403301799;-0.0122361578464362;0.02333199067478918;0.0275313551544814;1.6120569093695953;0.24409135167210358;0.05958058796111454;2.054364158421778;0.7131789444932402;-0.99214846538187;0.00012832210106848835;0.027531355154481574;0.020393596410727;0.00016452757474700743;0.039767513000917604;0.0;53.704084442857145;86.83172421428571
-0.7576787860243611;0.7265026708387797;1.089725403301799;0.003059039461609;0.023877351265672087;0.0275313551544814;1.5332397032619356;0.31828281961114724;0.10130395325962209;2.054364158421778;1.0374412304000167;-0.99214846538187;0.00010663595068052959;0.026001835423677067;0.020393596410727;0.00016477513354139055;0.039767513000917604;0.0;53.70396951428571;86.83200791428571
-1.1543619887000856;0.48296021158199864;0.3465960140052151;-0.0336494340776996;0.020211915359287503;0.0112164780258998;1.5834937671383271;0.29632798740691185;0.08781027612063091;1.6929942035597494;0.7345379681129562;-0.99214846538187;8.287030641975316e-05;0.021413276231263545;0.020393596410727;7.208912092435623e-05;0.0265116753339451;0.0;53.703884371428565;86.83235797142856
-0.8827079816568887;0.49209674204795517;0.3465960140052151;-0.0336494340776996;0.015257925489327648;0.003059039461609;1.3411852139285378;0.316613332408885;0.10024400225905912;1.6120569093695953;0.7305245712272779;-0.99214846538187;5.588639783199255e-05;0.021413276231263545;0.020393596410727;7.476275590369378e-05;0.0265116753339451;0.0;53.70381887142857;86.83275692857141
-0.3457273276389466;0.6700714663589031;0.3465960140052151;-0.0265116753339451;0.014670637881042323;0.003059039461609;1.0169229280217613;0.37620108447338385;0.1415272559589501;1.8849970272094465;1.003464689067129;-0.99214846538187;0.00011348095134521972;0.033649434077699825;0.0305903946160905;0.00014234630677028144;0.0367084735393086;0.0;53.703767299999996;86.83318078571428
0.3465960140052151;0.8804117526017949;0.8510467299728786;-0.0418068726419904;0.013906578665224776;-0.0173345569491179;0.9584562354467931;0.36364856361051656;0.13224027781599193;1.8849970272094465;1.003464689067129;-0.99214846538187;0.00015556594639034378;0.03568879371877243;0.0305903946160905;0.00024632100041118565;0.0458855919241357;0.0;53.70372871428571;86.83361762857143
-0.2330508007710557;1.0089836175743772;1.214855072076496;-0.0285510349750178;0.01455033611145924;-0.0173345569491179;0.8815323381423175;0.3549927403969859;0.12601984573456182;1.8849970272094465;1.003464689067129;-0.99214846538187;0.0001564571580501233;0.03568879371877243;0.0305903946160905;0.00032143033862701997;0.0520036708473538;0.0;53.70369642857143;86.8340571142857
-1.7078717445486666;0.9547014813865871;1.214855072076496;-0.0173345569491179;0.01945170587211159;0.0010196798205363;1.8849970272094465;0.3618607342201892;0.1309431909703744;1.8849970272094465;1.003464689067129;-1.0023452635872336;8.560583109767305e-05;0.02549199551340875;0.0305903946160905;0.0002897428129459829;0.0520036708473538;0.0;53.703671785714285;86.83450424285715
0.8510467299728786;0.9464419322710484;1.214855072076496;-0.061180789232181;0.02764262966403331;0.023452635872336;1.261680771383485;0.350834667637063;0.12308496401600845;1.8849970272094465;1.003464689067129;-1.0023452635872336;8.90221424601601e-05;0.02549199551340875;0.0305903946160905;0.0002848906605760743;0.0520036708473538;0.0;53.70365045714285;86.83495468571428
1.214855072076496;1.025807226101944;1.214855072076496;-0.023452635872336;0.027034109431934395;0.023452635872336;1.5167037765000841;0.34456524117707615;0.11872520542741666;1.8849970272094465;1.003464689067129;-1.0023452635872336;8.644753099857574e-05;0.02549199551340875;0.0305903946160905;0.00033390730186392913;0.0520036708473538;0.0;53.70363105714286;86.83541802857144
0.2864763670413107;1.0555107436092366;1.214855072076496;0.0010196798205363;0.027312884706563862;0.023452635872336;1.0480220335746546;0.29560074028349814;0.08737979765615211;1.8849970272094465;0.8369749936347919;-1.009483022330988;5.317562903348525e-05;0.01835423676965431;0.0305903946160905;0.00035346444662019417;0.0520036708473538;0.0;53.7036109;86.83588427142857
0.4623944374533233;0.6043202301846516;1.214855072076496;0.023452635872336;0.027360880728048778;0.023452635872336;1.2003976918931838;0.19767039643440137;0.039073585626533396;1.5910808562738925;0.5430588226992379;-0.9952075048434792;0.00010219227032134182;0.03262975425716319;0.0091771183848271;0.00011432265124611508;0.0305903946160904;0.0;53.70359284285714;86.83636724285715
1.211512017647318;0.6882452102440891;1.4789937551427108;0.0010196798205363;0.019489849001504272;0.023452635872336;1.5910808562738925;0.25066967143526714;0.06283528417746477;1.6944006208561284;0.6463785872814738;-0.9952075048434792;9.502544322395199e-05;0.031100234526358905;0.0091771183848271;0.0001497235588428994;0.0356887937187722;0.0;53.70357752857143;86.83685295714285
-0.5171902433986977;0.7636820916289454;1.4789937551427108;0.0061180789232181;0.017928478424758316;0.023452635872336;1.157406310041187;0.27316313588325863;0.07461809880557563;1.6944006208561284;0.7296186542382519;-0.9952075048434792;9.502544322395199e-05;0.031100234526358905;0.0091771183848271;0.00018418374302102742;0.0356887937187722;0.0;53.70355728571428;86.83742882857143
0.7043010565513564;0.9838555639575715;1.4789937551427108;-0.0183542367696543;0.02263291093380439;0.023452635872336;1.2014724732355682;0.25879143029750545;0.06697300439542862;1.6944006208561284;0.7296186542382519;-0.9952075048434792;0.00012532663965644593;0.031100234526358905;0.020393596410727;0.0003017741703530022;0.0469052717446721;0.0;53.70353434285715;86.83801662857142
1.4789937551427108;1.1276202485098568;1.4789937551427108;-0.0326297542571632;0.017550289227572895;0.0061180789232181;1.6944006208561284;0.25441509376446103;0.06472703993517949;1.6944006208561284;0.7296186542382519;-0.9952075048434792;0.0001251038367415012;0.031100234526358905;0.0224329560517997;0.00039683674739611436;0.0489446313857448;0.0;53.70351168571428;86.83861202857143
-0.4629839950472935;1.0900412860063944;1.4789937551427108;-0.003059039461609;0.01629210051950231;0.0061180789232181;0.9647819666178765;0.24666481188601713;0.06084352942276421;1.6944006208561284;0.7296186542382519;-0.9952075048434792;0.00013572410902053822;0.031100234526358905;0.0244723156928724;0.0003701003976027389;0.0509839910268175;0.0;53.70348762857143;86.83920602857144
-1.1729451609310602;1.3308017774361673;1.4789937551427108;-0.040787192821454;0.014572437470163657;-0.0020393596410727;1.4054218018069573;0.4714162508887633;0.22223328160201747;2.448437746274036;1.4836557796561596;-0.9952075048434792;0.00011911291391743355;0.031100234526358905;0.0418068726419904;0.0005507192939846529;0.0683185479759355;0.0;53.70346634285715;86.83979548571429
-1.2729651025099609;1.3763307528040958;1.4789937551427108;-0.0101967982053635;0.014574136186433361;-0.0020393596410727;1.3867644460253572;0.6343216158581964;0.40236391234495317;2.756060379917554;1.7912784132996775;-0.9952075048434792;0.00011203273239807478;0.031100234526358905;0.0479249515652085;0.0005974583943641828;0.07443662689915359;0.0;53.70344895714285;86.84036324285714
-1.4026180511682236;1.2393966750352978;-0.4629839950472935;-0.0193739165901906;0.015322687773133642;-0.0020393596410727;1.5395148184835252;1.1277971181874427;1.2719263397919007;4.217965482468088;3.2531835158502114;-0.9952075048434792;8.85270248713982e-05;0.02651167533394516;0.0744366268991536;0.0004945234476596868;0.0662791883348628;0.0;53.70343514285714;86.84093457142856
-2.3811050706045545;1.0644611852367112;-1.1729451609310602;-0.0020393596410727;0.014944816636293665;-0.0020393596410727;2.448437746274036;1.0198453598199593;1.040084557946302;4.217965482468088;2.8312010364427307;-0.9952075048434792;8.827946607701517e-05;0.02651167533394516;0.0744366268991536;0.0003679713919710426;0.054043030488426604;30.0;53.70343258571428;86.84141841428573
-2.695915548453385;1.2059266394385224;-1.2729651025099609;-0.0173345569491179;0.01326517210772304;-0.0020393596410727;2.756060379917554;1.1893213071173596;1.4144851715633446;4.458024986606083;3.0712605405807256;-0.9992862241256244;6.322651608544258e-05;0.022432956051799957;0.0774956663607627;0.0004705597563634016;0.055062710308963;0.0;53.703449642857144;86.84196941428571
-4.164204255584319;1.0331558229572126;-1.4026180511682236;-0.0367084735393086;0.013512933313569652;-0.0020393596410727;4.217965482468088;1.0180497133758262;1.036425218904602;4.458024986606083;2.918510168122558;-0.9992862241256244;7.015816232817003e-05;0.022432956051799957;0.0774956663607627;0.0003482657119381469;0.0530233506678903;0.0;53.703482914285715;86.84253297142857
-2.545690372571018;0.8363682577487214;-2.3811050706045545;-0.0367084735393086;0.020887738489860166;0.023452635872336;2.6659555202905305;0.8325167045698438;0.6930840633878326;4.458024986606083;2.009587240332047;-0.9972468644845518;7.847613781944216e-05;0.02447231569287256;0.0774956663607627;0.00022557557344187918;0.0356887937187723;0.0;53.703533557142855;86.84308829999999
-4.354537070712558;1.2850865433792873;-0.6258398614099338;-0.0112164780258998;0.020658929341001067;0.023452635872336;4.458024986606083;1.184166759714913;1.4022509148137166;4.458024986606083;3.4178887155312663;-0.9972468644845518;0.00010862879897530365;0.029570714795554176;0.0774956663607627;0.0005196754211690102;0.0662791883348629;0.0;53.70360472857142;86.84364952857142
-2.7897797507533117;1.4932119555957575;-0.6258398614099338;-0.0081574385642908;0.02063734842116825;0.023452635872336;2.9639426112061287;1.3736746913841313;1.8869821577492887;4.458024986606083;3.4178887155312663;-0.9972468644845518;0.00010664832862023893;0.029570714795554176;0.0774956663607627;0.0007015197335831213;0.0662791883348629;0.0;53.703693628571436;86.84420288571427
-3.859668671109629;1.444772618924322;-0.6258398614099338;0.023452635872336;0.01967945573263983;0.023452635872336;3.9785712537704034;1.3468412503571547;1.8139813536636238;4.458024986606083;3.4178887155312663;-0.9972468644845518;0.0001883427307666646;0.03976751300091785;0.0774956663607627;0.000644704990272199;0.0662791883348629;0.0;53.7037997;86.84475512857144
-0.6258398614099338;1.5937089553846866;-0.5187014338507886;-0.0050983991026817;0.014863427199252646;0.023452635872336;1.0401362710748168;1.4909856188188586;2.2230381155246546;4.458024986606083;3.621376751532261;-0.9972468644845518;0.00018190620211270376;0.03976751300091785;0.0774956663607627;0.0007859372824677619;0.0683185479759356;0.0;53.703924514285724;86.84530782857142
-1.0126656575786388;1.2456188587629289;-0.5187014338507886;-0.0081574385642908;0.030310727436249085;0.023452635872336;1.3210107647414036;1.1498944856242521;1.3222573280690635;3.9785712537704034;3.1419230186965814;-0.9972468644845518;0.00019319488313657263;0.03976751300091785;0.0672988681553992;0.0004684678845508666;0.058121749770572106;30.0;53.70405852857143;86.84578561428573
-1.239090157797889;1.1757376856895712;-0.5187014338507886;0.0163148771285816;0.030382515243075673;0.023452635872336;1.4419969080441613;1.1136494260465333;1.240215044133773;3.9785712537704034;3.1419230186965814;-0.9972468644845518;0.00018764956614239072;0.03976751300091785;0.0672988681553992;0.00041700041119861926;0.058121749770572106;0.0;53.70420408571429;86.846253
-0.5187014338507886;0.6036507279786741;-0.5187014338507886;-0.0152951973080452;0.02963176558894191;0.0163148771285816;0.8366482350738218;0.6201317885605375;0.38456343518329117;2.7090468864251918;1.87239865135137;-0.9768532680738248;0.00035896025185549926;0.060161109411644875;0.0397675130009177;0.00011339430576717786;0.030590394616090602;0.0;53.70436037142857;86.84672379999999
-1.159192712933678;0.6646079409698534;-0.2388853093852545;-0.0703579076170082;0.029056402261191012;0.0163148771285816;1.6414176939759744;0.5938936825619686;0.35270970618701636;2.7090468864251918;1.87239865135137;-0.9768532680738248;0.0004397634423421441;0.060161109411644875;0.0397675130009177;0.00013852152339706303;0.0356887937187723;0.0;53.70452698571429;86.84720858571428
-2.262771244365521;0.7006953625852355;-0.2388853093852545;-0.0040787192821454;0.03111336580339679;0.0163148771285816;2.7090468864251918;0.5796322962113828;0.3359735988112802;2.7090468864251918;1.87239865135137;-0.9768532680738248;0.0004899683658430383;0.060161109411644875;0.0397675130009177;0.0001543776641773012;0.0356887937187723;30.0;53.704696014285716;86.84771041428571
-0.5973369176577648;0.8261564668193765;0.3514315724424908;-0.0479249515652085;0.02360860537206396;-0.0040787192821454;1.9006280456379474;0.5647444375431234;0.3189362797358988;2.7090468864251918;1.87239865135137;-0.9768532680738248;0.00022496905439563968;0.03670847353930873;0.0397675130009177;0.0002112171633676625;0.0458855919241358;0.0;53.70486255714286;86.84821341428572
-0.2388853093852545;0.850934891778134;0.3514315724424908;-0.0275313551544814;0.02674710791745569;0.0010196798205363;2.0146356498989837;0.34037814796778315;0.11585728361397808;2.7090468864251918;1.0676291924492174;-0.9768532680738248;0.00020662494773185144;0.033649434077699714;0.0397675130009177;0.00022392930745923523;0.0458855919241358;0.0;53.70501435714285;86.84872727142859
-0.4153027788397575;1.3459569206529256;0.3514315724424908;-0.0586315896808402;0.025109168835211904;0.0040787192821454;2.028096413013023;0.717011563888252;0.5141055827494769;3.812875537264007;2.0355714958638305;-0.9768532680738248;0.0002908444495809836;0.04282655246252676;0.0601611094116447;0.0005724673340712098;0.0662791883348628;0.0;53.70514912857143;86.84923141428571
0.3514315724424908;1.3137111127640053;0.5777042200412283;-0.037728153359845;0.02351298954952503;0.0040787192821454;2.081740315000231;0.7185049488246024;0.5162493614854444;3.812875537264007;2.0355714958638305;-0.9768532680738248;0.00030878317871896847;0.04282655246252676;0.0601611094116447;0.0005469935341291883;0.0703579076170082;0.0;53.70526608571429;86.84971408571428
-0.1445399313799137;1.9854095268633898;3.3979258348153385;0.0010196798205363;0.02499206306346671;0.0040787192821454;1.7773040414001766;0.9187287838639845;0.8440625783001959;3.812875537264007;2.0355714958638305;-0.9600285510349752;0.00045930511467375375;0.059651269501376336;0.0601611094116447;0.001182575982828374;0.11726317936168029;0.0;53.70536262857143;86.85017634285714
-3.376509763946041;2.3004967136798395;3.3979258348153385;0.0040787192821454;0.0254711077976559;0.0040787192821454;3.812875537264007;0.9860752571439698;0.9723444127515463;3.812875537264007;2.0355714958638305;-0.9600285510349752;0.00046447909347636105;0.059651269501376336;0.0601611094116447;0.0016192944519996116;0.11726317936168029;0.0;53.705425428571424;86.85059022857142
0.5777042200412283;2.3178799316294834;3.3979258348153385;-0.032119914346895;0.04139732034874689;0.0040787192821454;1.8126391280659844;0.9405413909146004;0.8846181080235712;3.812875537264007;2.0355714958638305;-0.9600285510349752;0.00041124157474427416;0.059651269501376336;0.0601611094116447;0.001650759174765705;0.11726317936168029;0.0;53.70546024285714;86.85097612857143
3.3979258348153385;2.5732571444091694;3.943088329929403;-0.0571020699500356;0.048910098793021405;0.0040787192821454;3.8101680741874504;1.0204464607079295;1.0413109791713402;4.268518841814053;2.4912148004138768;-0.9600285510349752;0.00045181027217380473;0.059651269501376336;0.0601611094116447;0.0020297964448456793;0.12847965738758022;0.0;53.70546634285714;86.85134062857142
3.1546905106517844;2.6197750739567707;3.943088329929403;-0.0433363923727949;0.054804826088143285;0.0295707147955541;3.644067768172112;0.8799054214350672;0.7742335506708232;4.268518841814053;2.455879713748069;-0.9600285510349752;0.0005698215494562277;0.059651269501376336;0.0601611094116447;0.0020897923186644265;0.12847965738758022;0.0;53.705439157142855;86.85166818571427
1.9710341550469868;1.1882805808022179;3.943088329929403;-0.1193025390027531;0.058997574381033896;0.0295707147955541;2.6889750679444764;0.8662084382539709;0.7503170585023833;4.268518841814053;2.455879713748069;-0.9600285510349752;0.00044819591377580505;0.0565922300397671;-0.0101967982053635;0.00040807591666111305;0.05812174977057201;0.0;53.705380014285716;86.85196744285713
3.943088329929403;0.6784875108687987;3.943088329929403;-0.1101254206179259;0.06684534449965944;0.0387478331803813;4.268518841814053;0.5277935603587649;0.27856604235618126;4.268518841814053;1.579543773869577;-0.9600285510349752;0.00037174666358537247;0.0565922300397671;-0.0346691138982359;0.00013031494936326915;0.03364943407769961;30.0;53.70529328571428;86.85225008571429
3.796278878334469;0.7147264305322081;3.943088329929403;0.0295707147955541;0.07221778012959777;0.0479249515652085;4.095213609384661;0.556986615789234;0.31023409016834375;4.268518841814053;1.579543773869577;-0.9676761496889976;0.00023201210209583152;0.048944631385744675;-0.0346691138982359;0.00014516847702625583;0.03364943407769961;0.0;53.70518537142858;86.85252617142858
3.080070409551245;0.8288634723319356;3.943088329929403;0.0275313551544814;0.07137862791957374;0.0479249515652085;3.5061708102673146;0.6787870734397838;0.4607518910689465;4.268518841814053;1.579543773869577;-0.9676761496889976;0.0007189602506474085;0.08463342510451732;-0.0346691138982359;0.00018606518985834464;0.03364943407769961;0.0;53.70507634285714;86.85281577142857
3.8073023490734825;0.7909272502869036;4.809952522161871;0.0387478331803813;0.05447964663631669;0.0479249515652085;4.047363202844892;0.7425387268458292;0.551363760865825;5.187729237955198;2.426488174222509;-0.9676761496889976;0.0010275175319665144;0.08463342510451732;-0.0418068726419904;0.00020151285862785107;0.0458855919241358;0.0;53.70498235714286;86.8531131
3.89591836121114;0.9410869481030505;5.000337959505607;0.0479249515652085;0.06261934819009032;0.0479249515652085;4.190086193981048;0.9116101513040125;0.8310330679605245;5.396426998716639;2.63518593498395;-0.9462628734577344;0.0014621317513854916;0.10604670133578054;-0.0418068726419904;0.0002564709109809009;0.0458855919241358;0.0;53.7049225;86.85340432857143
2.274849310764365;1.1163332886804138;5.400151946483292;-0.0152951973080452;0.06398227291552554;0.0479249515652085;2.761241063732689;1.082213245626873;1.1711855090102505;5.726984374328819;2.9657433105961304;-0.9462628734577344;0.0014524769584045505;0.10604670133578054;-0.0418068726419904;0.0003953513946298237;0.056082390129499296;30.0;53.70491115714286;86.85369287142858
4.809952522161871;1.074420739312851;5.400151946483292;-0.0061180789232181;0.06499542412394828;0.0479249515652085;5.187729237955198;1.0462028651573296;1.0945404350634058;5.726984374328819;2.9657433105961304;-0.9462628734577344;0.0014098473340117806;0.10604670133578054;-0.0418068726419904;0.00035450419355661096;0.056082390129499296;30.0;53.704944;86.85397074285716
5.000337959505607;1.0698439782190223;5.400151946483292;-0.133578056490262;0.05806198215881495;0.0479249515652085;5.396426998716639;1.02933380120503;1.0595280743031963;5.726984374328819;2.9657433105961304;-0.9462628734577344;0.001663842657048848;0.10604670133578054;-0.0418068726419904;0.0003579205049190977;0.056082390129499296;30.0;53.705018214285715;86.85423147142858
5.400151946483292;1.0559567768796692;5.400151946483292;-0.0571020699500356;0.047782558228885115;-0.003059039461609;5.726984374328819;1.0070120416021024;1.0140732519316347;5.726984374328819;2.9657433105961304;-0.9462628734577344;0.0018181212977084014;0.10604670133578054;-0.0418068726419904;0.0003440572124336439;0.056082390129499296;30.0;53.70512777142857;86.8544726857143
4.977326662722786;0.49190353113735835;5.400151946483292;-0.0780055062710309;0.04702426817089175;-0.003059039461609;5.2976192071089;0.4821764375654285;0.23249411694328756;5.726984374328819;1.4795958111198884;-0.9462628734577344;0.00153920918201667;0.09584990313041686;-0.0652595085143265;0.00011382753365735559;0.03262975425716319;0.0;53.70525945714286;86.85467751428573
3.8692096760343095;0.5059942239900509;5.400151946483292;-0.023452635872336;0.043569690946216516;-0.003059039461609;4.247388563208931;0.5101858763469361;0.26028962842389125;5.726984374328819;1.4795958111198884;-0.9462628734577344;0.0011496506631754149;0.087692464566126;-0.0652595085143265;0.00011506532762927105;0.03262975425716319;0.0;53.70540692857143;86.8548396142857
4.578697723434662;0.5421894947027904;5.400151946483292;-0.003059039461609;0.02493305569951548;-0.003059039461609;4.902274450611284;0.5099862303052725;0.26008595510098237;5.726984374328819;1.4795958111198884;-0.9646171102273886;0.0008722362781897076;0.06933822779647181;-0.0652595085143265;0.00013338467841362073;0.03262975425716319;60.0;53.7055604;86.85496748571428
5.129393879467532;0.8394063929223541;5.139987213030453;-0.023452635872336;0.024039834183031433;-0.003059039461609;5.477033024415118;0.6802583150719256;0.4627513752244951;5.615915113407862;1.8692465592792984;-0.8687672070969715;0.0025044904330752816;0.16467829101662057;-0.0428265524625267;0.0002964764121532111;0.0499643112062812;60.0;53.70571722857143;86.85506945714287
5.139987213030453;0.9273359075720652;5.139987213030453;-0.0489446313857448;0.03655642055561359;-0.003059039461609;5.615915113407862;0.752660907316548;0.5664984414025693;5.615915113407862;1.8692465592792984;-0.8687672070969715;0.0024413629405075905;0.16467829101662057;-0.0428265524625267;0.0003307880610547099;0.0499643112062812;0.0;53.705890357142856;86.8551475
4.312062163951275;0.9302377335917205;5.139987213030453;-0.0418068726419904;0.03627361289072558;-0.003059039461609;5.02986735647182;0.7324431131336365;0.536472913976893;5.615915113407862;1.8692465592792984;-0.8687672070969715;0.0031759689069600252;0.17130620985010736;-0.0428265524625267;0.0003260349322025543;0.0499643112062812;0.0;53.70607787142857;86.85519604285714
2.820943114011617;0.9085987347577191;5.139987213030453;-0.0254919955134087;0.03226789142089548;-0.023452635872336;3.7466685541285636;0.7293226316414839;0.5319115010244596;5.615915113407862;1.8692465592792984;-0.8687672070969715;0.003153366789032847;0.17130620985010736;-0.0428265524625267;0.00031845963309443115;0.0499643112062812;30.0;53.706275271428574;86.85521058571429
3.0694601351740616;0.9773299494423008;5.139987213030453;-0.116243499541144;0.04332807275774216;0.0295707147955541;3.8675880921278116;0.7529408592427579;0.5669199375172226;5.615915113407862;2.035890975106072;-0.8687672070969715;0.002651503223119701;0.17130620985010736;-0.037728153359845;0.0003291541730117811;0.0509839910268175;30.0;53.70649035714286;86.85520624285714
3.8127432300866166;1.116875433603234;4.312062163951275;-0.0275313551544814;0.04321436597733988;0.0295707147955541;4.515688669721005;0.7129403988472046;0.5082840123084112;5.02986735647182;1.978100597655747;-0.8687672070969715;0.0027688460916572917;0.17130620985010736;-0.0193739165901906;0.00039649016508398657;0.05404303048842671;30.0;53.70670945714286;86.85518397142856
3.986525067038695;0.9693958312825386;3.986525067038695;-0.0527684307127561;0.04387159696301064;0.0295707147955541;4.7829891543628005;0.6005132768393893;0.360616195660381;4.7829891543628005;1.7312223955467272;-0.8687672070969715;0.0033087223104479695;0.17130620985010736;-0.0193739165901906;0.0003082602107658471;0.04996431120628131;30.0;53.706921085714285;86.85515057142857
2.2674693769615764;1.7669337881414833;3.986525067038695;0.0295707147955541;0.04351009673537351;0.0295707147955541;3.58002413830179;0.6049940558622738;0.36601780762868413;4.7829891543628005;1.7312223955467272;-0.9330070357907616;0.0015338742899977272;0.10706638115631728;0.0173345569491179;0.0009450804534369465;0.0866727847455898;30.0;53.707125299999994;86.85511707142857
1.1089383657863008;1.7356491505479006;3.986525067038695;-0.0336494340776996;0.030543167621067884;0.0295707147955541;3.0517667588160733;0.6280901613349946;0.3944972507658196;4.7829891543628005;1.7312223955467272;-0.9330070357907616;0.0016090826517313145;0.10706638115631728;0.0173345569491179;0.0009163636332885063;0.0866727847455898;30.0;53.70732064285715;86.8551003
2.824050404699119;1.9527859438059345;3.986525067038695;-0.058121749770572;0.03691220662654579;0.0295707147955541;4.358862796695462;0.5955082085377026;0.35463002643578384;4.7829891543628005;1.7312223955467272;-0.9330070357907616;0.003244158976872849;0.17232588967064344;0.0214132762312633;0.0011675367860696027;0.0897318242071988;0.0;53.70750728571429;86.85510408571429
-1.0636978846450371;1.639699538205601;2.824050404699119;-0.0336494340776996;0.03733768330640006;0.0295707147955541;3.6856786154563004;0.479650988800559;0.230065071057354;4.460381442983987;1.408614684167914;-0.9330070357907616;0.0031749910497222097;0.17232588967064344;0.0214132762312633;0.000842145506732448;0.0723972672580808;60.0;53.707689957142854;86.85512584285713
2.415545618636353;1.7448097077558935;2.824050404699119;-0.058121749770572;0.02311024324844112;-0.0214132762312633;4.460381442983987;0.46505110746512024;0.2162725325545348;4.460381442983987;1.408614684167914;-0.9330070357907616;0.0026643267686687444;0.17232588967064344;0.0254919955134087;0.0009710741268471678;0.07647598654022619;60.0;53.70786005714285;86.85516794285715
-1.1061965590754914;1.7196856315558877;2.824050404699119;-0.0897318242071989;0.03127625009692518;-0.0214132762312633;3.957529327141752;0.33627658896835316;0.11308194428819074;4.460381442983987;0.91754635112849;-0.9330070357907616;0.0030105624984929583;0.17232588967064344;0.0254919955134087;0.0009454765475079547;0.07647598654022619;60.0;53.70801764285714;86.85524141428573
0.2949633292248877;1.3760808104352236;2.415545618636353;-0.0214132762312633;0.04080357724200356;-0.0214132762312633;3.8315654847632787;0.3600296635142899;0.12962135861021282;4.460381442983987;1.1374659092273962;-0.9330070357907616;0.0036014853406854275;0.17232588967064344;0.0254919955134087;0.0005936955006895614;0.0683185479759354;60.0;53.70816767142857;86.8553365857143
-1.446729065433032;1.3469263125896203;2.415545618636353;-0.0622004690527174;0.045738067690437145;-0.0214132762312633;3.9026204946043266;0.43788958457206567;0.19174728827669626;4.460381442983987;1.3005132619470299;-0.9534006322014889;0.0025577774635662503;0.1519322932599162;0.0254919955134087;0.0005818126785591728;0.0683185479759354;60.0;53.70831245714286;86.85544114285715
0.4365789393267997;1.0207896348269156;1.3333704729739817;-0.113184460079535;0.044184257971648516;-0.0214132762312633;3.542835091855497;0.4360182333198678;0.19011189978737866;3.957529327141752;1.1719641901102875;-0.9534006322014889;0.0027329500664717353;0.1519322932599162;0.0254919955134087;0.00033356071955179407;0.0489446313857447;60.0;53.70843838571428;86.85555609999999
0.910349231569817;1.3696021349310283;2.968998101429319;-0.1325583766697257;0.06280133508607838;0.0254919955134087;3.322915533756591;0.4124154564558169;0.17008650872365982;3.9026204946043266;1.1170553575728621;-0.9534006322014889;0.001127729331932792;0.11114510043846215;0.0254919955134087;0.0005759702910117331;0.0774956663607626;60.0;53.708536242857136;86.8556832142857
1.3333704729739817;2.22938909447604;5.329421031500762;-0.15091261343938;0.06280133508607838;0.0254919955134087;3.1598681810369573;0.9418900921039567;0.8871569456035999;5.69761238991068;2.9120472528792156;-0.9534006322014889;0.0011121331278866576;0.11114510043846215;0.0254919955134087;0.001536547924977062;0.119302539002753;60.0;53.70860425714285;86.85580608571429
-0.2367988882376199;2.179114085178464;5.329421031500762;-0.07545630671969;0.06945238366532824;0.0254919955134087;2.7855651370314645;1.0476927911159069;1.097660184556239;5.69761238991068;2.9120472528792156;-0.9534006322014889;0.0011062412285803385;0.11114510043846215;0.0040787192821454;0.0014623793101798867;0.0978892627714897;60.0;53.70864627142857;86.85591392857144
2.968998101429319;2.112159392992161;5.329421031500762;0.0254919955134087;0.07086800952057956;0.0254919955134087;3.8040075013888557;1.0381899686795073;1.0778384110667565;5.69761238991068;2.9120472528792156;-0.9534006322014889;0.00035098885867635354;0.05200367084735402;0.0040787192821454;0.0013816875211507143;0.0978892627714897;60.0;53.70866977142857;86.85599594285713
5.329421031500762;1.9632726821769004;5.329421031500762;-0.0214132762312633;0.06315903252244784;0.0254919955134087;5.69761238991068;1.0175462395302193;1.0354003495820903;5.69761238991068;2.9120472528792156;-0.9839910268175792;5.743364029687216e-05;0.021413276231263656;0.0040787192821454;0.001186957773488963;0.0978892627714897;60.0;53.7086787;86.85606338571428
4.778132172379976;1.8503668180157216;5.329421031500762;0.0020393596410727;0.03330241764341743;0.0254919955134087;4.94652716079706;0.9588365364088526;0.9193675035525248;5.69761238991068;2.9120472528792156;-0.9839910268175792;5.724797120108569e-05;0.021413276231263656;0.0040787192821454;0.0010548851566855757;0.0978892627714897;60.0;53.708673578571435;86.85611312142858
4.031827190972681;0.7873958622714041;5.329421031500762;0.0071377587437544;0.015075521589099822;0.0254919955134087;4.123855301470479;0.724893414275745;0.5254704620603469;5.69761238991068;2.1457856009212923;-0.9962271846640156;1.0607894339309936e-05;0.009177118384827265;-0.0520036708473539;0.0001924150729342736;0.0418068726419904;60.0;53.708654978571424;86.85613840714286
3.547111970792308;2.2402357549067244;5.329421031500762;0.0112164780258998;0.029968006545703342;0.07545630671969;3.5518267889893878;1.1675758947698138;1.3632334700475315;5.69761238991068;3.6678016331512517;-0.9962271846640156;9.557007257159398e-05;0.030590394616090366;0.023452635872336;0.0015608705765252043;0.11726317936168029;60.0;53.70863193571429;86.85614462142858
4.529954937999496;2.276144191136808;4.778132172379976;0.0025491995513408;0.02581407338605692;0.07545630671969;4.565370103308508;1.1197784459037505;1.2539037679106189;4.94652716079706;2.9167164040376314;-0.9901091057407974;0.0001315898771543343;0.03670847353930862;0.023452635872336;0.0016066689534860788;0.10706638115631681;60.0;53.708607378571436;86.8561456642857
4.388909457729886;2.873048603957138;4.529954937999496;0.0193739165901906;0.02715084160710862;0.07545630671969;4.53231276965272;0.986177700370673;0.9725464567083889;4.565370103308508;2.5355593465490798;-0.9839910268175792;0.0001882313293091872;0.04282655246252676;0.040787192821454;0.002527835227385614;0.1203222188232894;60.0;53.70858080714286;86.85613737857143
-1.3048975973407306;2.7285670786371212;4.529954937999496;0.07545630671969;0.026160349942850228;0.07545630671969;2.0298107567594283;0.9534462267787936;0.9090597073587189;4.565370103308508;2.5355593465490798;-0.9758335882532884;0.00027366386925079363;0.05098399102681761;0.040787192821454;0.0022752633674162494;0.1203222188232894;60.0;53.70855160000001;86.85611914285714
1.0615938008825847;3.301395351600118;4.529954937999496;0.0275313551544814;0.02561189011800264;0.07545630671969;2.454968815974664;1.0909666386735917;1.190208206698755;4.813087414237908;2.78327665747848;-0.9758335882532884;0.0005816517653428223;0.06729886815539932;0.0734169470786173;0.003407894363477835;0.15295197308045272;60.0;53.708522942857144;86.85609414285715
-2.3698924473445806;2.838347861440301;4.388909457729886;0.0550627103089629;0.021270600664169557;0.07545630671969;3.5251441251566766;1.0485248524572537;1.0994043662205055;4.813087414237908;2.78327665747848;-0.9758335882532884;0.0005822582843890604;0.06729886815539932;0.0734169470786173;0.002510246175044691;0.1498929336188436;60.0;53.70849920714285;86.85607040714285
1.8550683219510251;1.9805012683428653;1.8550683219510251;0.0163148771285816;0.01902968744944627;0.07545630671969;3.306011164280313;0.9345356018160416;0.873356791061671;4.813087414237908;2.78327665747848;-0.9758335882532884;0.0005751285911108285;0.06729886815539932;0.0734169470786173;0.0012348604002020863;0.1050270215152441;60.0;53.708481292857144;86.85604517857143
-4.0214990011431295;1.976087656322835;1.8550683219510251;0.0489446313857448;0.013239019088408478;0.0550627103089629;4.813087414237908;0.8854964581869917;0.7841039774617068;4.813087414237908;2.4798108111576145;-0.9758335882532884;0.00046699490972428216;0.06729886815539932;0.0734169470786173;0.0012293645949667815;0.1050270215152441;60.0;53.708468107142856;86.85601370714285
-1.1668278003644197;1.7747779423525503;1.8550683219510251;0.0438462322830631;0.012951673215225806;0.0550627103089629;2.654353486890673;0.8660916897319603;0.7501148150227622;4.813087414237908;2.4798108111576145;-0.9758335882532884;0.00045209187030242074;0.06729886815539932;0.0734169470786173;0.0009928221669337233;0.1050270215152441;60.0;53.70845899285714;86.85597899285715
-1.0771459650098862;1.9100295555695468;1.8550683219510251;0.0438462322830631;0.02545798349624292;0.0978892627714897;2.5120398421005032;0.894142230256724;0.7994903279284685;4.813087414237908;2.4798108111576145;-0.9758335882532884;0.00042783110845287666;0.06729886815539932;0.0734169470786173;0.0011412089082869564;0.1050270215152441;60.0;53.708457692857145;86.85595940714286
-0.991969745172522;1.3453333686797484;-0.4629858844970399;0.040787192821454;0.02884948295404977;0.0978892627714897;2.333276603080294;1.0802276803795776;1.166891841458243;4.813087414237908;3.300837413692147;-0.9890894259202612;0.00030528950523324455;0.05404303048842651;0.0734169470786173;0.0005899202290752196;0.0652595085143265;60.0;53.708464285714285;86.85596234285713
-1.8147189263275536;0.9801331052812108;-0.4629858844970399;0.0295707147955541;0.03572484581579981;0.0978892627714897;2.639920078481847;0.6733249100810125;0.4533664345356035;3.8033653120612287;2.291115311515467;-0.9890894259202612;8.248659028844479e-05;0.028551034975017764;0.0591414295911083;0.00029111676425480995;0.0509839910268175;60.0;53.70847731428571;86.85597537142857
-3.4052620430825864;1.4675682413010769;1.2755271265340344;0.0978892627714897;0.03647099398454111;0.0978892627714897;3.8033653120612287;0.7701387787334304;0.5931137385090196;3.8033653120612287;2.291115311515467;-0.9890894259202612;8.491266647340049e-05;0.028551034975017764;0.0591414295911083;0.0006581474328072023;0.081574385642908;60.0;53.70848960000001;86.85599497142857
-0.4629858844970399;1.743693469808977;1.2755271265340344;0.0010196798205363;0.03638944889875689;0.0978892627714897;1.5122500005457615;0.8595848972039531;0.7388861955011308;3.8033653120612287;2.435901205899439;-0.9890894259202612;0.00010006326468964563;0.028551034975017764;0.0591414295911083;0.0009270581732058501;0.081574385642908;60.0;53.70850251428571;86.85601885714286
-2.180364658598683;1.8145151182656107;1.2755271265340344;-0.0132558376669725;0.03957030925420156;0.0978892627714897;2.473520813752657;0.8586296151165768;0.7372448159552408;3.8033653120612287;2.435901205899439;-0.9890894259202612;0.00016497318057689895;0.03466911389823579;0.0591414295911083;0.0010098418340475607;0.081574385642908;60.0;53.708518299999994;86.85604561428572
1.2755271265340344;1.822069968718951;1.2755271265340344;0.0112164780258998;0.039423642942985636;0.0978892627714897;1.5507260333761237;1.168358233922396;1.3650609627742598;3.8033653120612287;3.7959664405326596;-0.9890894259202612;0.000152298170304485;0.03466911389823579;0.0591414295911083;0.0010205858857237882;0.081574385642908;60.0;53.70853684285714;86.85607512857142
1.235028617088993;1.4739121573785927;1.2755271265340344;0.0132558376669725;0.01355454754875379;0.0132558376669725;1.3674641061617894;0.8501975275716315;0.722835835888915;2.473520813752657;2.466121942224088;-0.9931681452024064;0.00010628936836838778;0.030590394616090588;0.0397675130009177;0.000681043526802711;0.0622004690527174;60.0;53.708552278571425;86.85610153571429
-2.22402850265492;1.4743407435978828;1.2755271265340344;-0.0214132762312633;0.013560938404383953;0.0132558376669725;2.24281021375112;0.9035285335787343;0.8163638109909379;2.473520813752657;2.466121942224088;-0.9931681452024064;0.00010621510073007223;0.030590394616090588;0.0397675130009177;0.0006820461399199627;0.0622004690527174;60.0;53.70856222142857;86.85611879285715
-0.0;1.237956615558362;1.2755271265340344;0.003059039461609;0.015732821125403845;0.0132558376669725;0.007398871528568892;0.7439371430269209;0.5534424727750574;2.24281021375112;2.235411342222551;-0.9931681452024064;8.690551476818725e-05;0.030590394616090588;0.0397675130009177;0.0004817463193845935;0.0622004690527174;60.0;53.70856935;86.85613689285715
0.6281029188312615;1.237956615558362;1.2755271265340344;0.0127459977567043;0.015732821125403845;0.0132558376669725;0.6937057442389588;0.7439371430269209;0.5534424727750574;2.24281021375112;2.235411342222551;-0.9931681452024064;8.690551476818725e-05;0.030590394616090588;0.0397675130009177;0.0004817463193845935;0.0622004690527174;60.0;53.70856935;86.85613689285715
0.0580502961281693;1.237956615558362;1.2755271265340344;0.0020393596410727;0.015732821125403845;0.0132558376669725;0.5708458485999763;0.7439371430269209;0.5534424727750574;2.24281021375112;2.235411342222551;-0.9931681452024064;8.690551476818725e-05;0.030590394616090588;0.0397675130009177;0.0004817463193845935;0.0622004690527174;60.0;53.70856935;86.85613689285715
1.1617109158655747;1.237956615558362;1.2755271265340344;-0.023452635872336;0.015732821125403845;0.0132558376669725;1.4233949313719303;0.7439371430269209;0.5534424727750574;2.24281021375112;2.235411342222551;-0.9931681452024064;8.690551476818725e-05;0.030590394616090588;0.0397675130009177;0.0004817463193845935;0.0622004690527174;60.0;53.70856935;86.85613689285715
