acc_X;acc_X_std;acc_X_max;acc_Z;acc_Z_std;acc_Z_max;acc;acc_std;acc_var;acc_max;acc_range;fb_tilt_max;fb_tilt_var;fb_tilt_range;tilt_max;tilt_var;tilt_range;class;lat;lon
-0.0535331905781584;0.03260034175014723;0.0132558376669725;0.0805547058223717;0.03885374535547606;0.0805547058223717;1.1461297571196354;0.05216105976324072;0.0027207761556243704;1.1461297571196354;0.16354496487857884;2.4808799088835336;4.060695656472129;6.511185417623832;-1.4275756768720842;0.04675675273716715;0.5987035141397667;30.0;53.751089557142855;86.76597595714286
0.0132558376669725;0.03260034175014723;0.0132558376669725;-0.0132558376669725;0.03885374535547606;0.0805547058223717;1.0269886930162195;0.05216105976324072;0.0027207761556243704;1.1461297571196354;0.16354496487857884;2.4808799088835336;4.060695656472129;6.511185417623832;-1.4275756768720842;0.04675675273716715;0.5987035141397667;30.0;53.751089557142855;86.76597595714286
-0.0469052717446721;0.03260034175014723;0.0132558376669725;-0.0448659121035994;0.03885374535547606;0.0805547058223717;1.0364995219220403;0.05216105976324072;0.0027207761556243704;1.1461297571196354;0.16354496487857884;2.4808799088835336;4.060695656472129;6.511185417623832;-1.4275756768720842;0.04675675273716715;0.5987035141397667;30.0;53.751089557142855;86.76597595714286
-0.0081574385642908;0.03260034175014723;0.0132558376669725;0.0132558376669725;0.03885374535547606;0.0805547058223717;0.9825847922410565;0.05216105976324072;0.0027207761556243704;1.1461297571196354;0.16354496487857884;2.4808799088835336;4.060695656472129;6.511185417623832;-1.4275756768720842;0.04675675273716715;0.5987035141397667;30.0;53.751089557142855;86.76597595714286
-0.0479249515652085;0.032286538547642143;0.0132558376669725;-0.0152951973080452;0.021513621777344998;0.0173345569491179;1.00157009016482;0.028400180317851784;0.0008065702420864959;1.0504449321620382;0.06910653501334851;2.4808799088835336;1.4568555095551694;3.4930166124473216;-1.56274430742652;0.03548622608871924;0.5214650622031571;0.0;53.751109799999995;86.76619002857142
-0.0173345569491179;0.024611518809219895;-0.0081574385642908;0.0081574385642908;0.025821025251383387;0.0173345569491179;1.0504449321620382;0.02867805276800847;0.0008224307105646781;1.0504449321620382;0.06910653501334851;2.4808799088835336;2.1385045539356464;3.4930166124473216;-1.682295271323141;0.026531320377322226;0.4508136294706604;0.0;53.75112452857143;86.76642052857143
-0.0836137452839808;0.024731928132714995;-0.0081574385642908;-0.0020393596410727;0.021125789796214992;0.0173345569491179;1.0403817743980985;0.029285872779353773;0.0008576623444484944;1.0504449321620382;0.07243469864199181;2.454878131583589;1.477795965686341;3.467014835147377;-1.787326405095966;0.01953007155748171;0.38674921594227407;0.0;53.75113338571428;86.76666709999998
-0.0499643112062812;0.020829583362031823;-0.0173345569491179;0.0173345569491179;0.019480955617969566;0.0173345569491179;0.9813383971486896;0.02880145848995323;0.000829524011148499;1.0504449321620382;0.07243469864199181;2.454878131583589;1.2524608994234494;3.467014835147377;-1.8789355452790135;0.014154262445255325;0.3292718216179995;30.0;53.75113235714285;86.76693304285713
-0.0367084735393086;0.025755747813429368;-0.0020393596410727;-0.0428265524625267;0.019524114105154818;0.0173345569491179;0.9998588495903981;0.030358603869195335;0.0009216448288867221;1.0504449321620382;0.07243469864199181;2.454878131583589;1.2588551690089675;3.467014835147377;-1.9582205284063023;0.010109422718252653;0.27838144649783625;0.0;53.75112205714286;86.76720434285714
-0.0316100744366268;0.02467581023319575;-0.0020393596410727;-0.0163148771285816;0.018681766199192772;0.0173345569491179;0.9780102335200463;0.024665487058087805;0.0006083862518126969;1.0403817743980985;0.06237154087805219;2.454878131583589;1.1588265885404174;3.467014835147377;-2.026279191011851;0.007134828915635172;0.23407809058178453;0.0;53.75110172857143;86.76749121428573
-0.0356887937187723;0.015186367993937903;-0.0020393596410727;-0.0061180789232181;0.018557118874615697;0.0173345569491179;0.9866950105815933;0.018060887518433686;0.00032619565795351376;1.031920008729939;0.053909775209892596;2.454878131583589;1.1428706805863262;3.467014835147377;-2.084209369629677;0.005003504438117643;0.19636175386989363;0.0;53.75107141428572;86.76778638571429
-0.0020393596410727;0.01353672854135647;-0.0020393596410727;0.0020393596410727;0.015212021004771453;0.0020393596410727;1.031920008729939;0.01819004004507626;0.00033087755684147797;1.031920008729939;0.053909775209892596;2.454878131583589;0.7614805182739284;2.56811052887716;-2.1331089007938013;0.014531910404029846;0.37208949992650453;0.0;53.751027185714285;86.76811152857144
-0.0285510349750178;0.019967929142337994;-0.0020393596410727;-0.0020393596410727;0.007941385450228178;0.0081574385642908;0.9956190527921178;0.01919872865606703;0.00036859118200928924;1.031920008729939;0.053909775209892596;0.9558355636931876;0.21349855859919234;1.4301298154464213;-2.17407562103824;0.012272192241967898;0.3311227796820657;0.0;53.750970485714284;86.76845711428571
-0.0428265524625267;0.019967929142337994;-0.0020393596410727;-0.0096869582950953;0.009384510701245389;0.0081574385642908;1.0012691207794147;0.01703259976706105;0.00029010945482488813;1.031920008729939;0.04647239335149256;1.2340986531507014;0.29282747329594083;1.7083929049039352;-2.208207366897013;0.014170737185449008;0.29699103382329284;0.0;53.75090402857143;86.76881854285715
-0.0387478331803813;0.020066866595050675;-0.0020393596410727;-0.0025491995513408;0.010300064142173049;0.0081574385642908;1.0173621309580705;0.015738391834010462;0.00024769697752084725;1.031920008729939;0.04647239335149256;1.2340986531507014;0.35128798894734903;1.7083929049039352;-2.2366019749041386;0.012377142008737158;0.2685964258161673;0.0;53.75082415714285;86.76918118571427
-0.0693382277964719;0.01490168576241115;-0.0285510349750178;0.0081574385642908;0.015542055643296178;0.0081574385642908;0.9854476153784464;0.010897753655438895;0.0001187610347346318;1.0173621309580705;0.0319145155796241;2.0058421769554577;0.8062337650998505;2.4801364287086916;-2.2603572815936355;0.009726989312536955;0.2448411191266704;0.0;53.750724257142856;86.76954208571428
-0.040787192821454;0.013195940889875106;-0.0316100744366268;-0.0214132762312633;0.023631139423008984;0.0387478331803813;0.9942359318300656;0.026826553639457518;0.0007196639801706913;1.0644343824681861;0.07898676708973973;2.0058421769554577;1.7468417916210601;4.091999812843007;-2.2805711234995707;0.007288321468600335;0.22462727722073517;0.0;53.7505881;86.76987770000001
-0.0316100744366268;0.0150603242798355;-0.0285510349750178;0.0071377587437544;0.02883338900020363;0.0438462322830631;1.0079647205630988;0.030072322944108654;0.0009043446072547638;1.0644343824681861;0.07898676708973973;2.0058421769554577;2.5846215078741355;4.405998124800713;-2.323801032357262;0.007013168288772912;0.20760011541021584;0.0;53.750422328571425;86.77017638571428
-0.0601611094116447;0.025819107682389552;0.0091771183848271;-0.0346691138982359;0.030086109349372284;0.0438462322830631;0.9905065015948674;0.03170512140450952;0.0010052147232746877;1.0644343824681861;0.07898676708973973;2.0058421769554577;2.823084730242346;4.405998124800713;-2.323801032357262;0.006428769607646584;0.20760011541021584;0.0;53.75022881428572;86.77042538571428
-0.0509839910268175;0.0234705736883717;0.0091771183848271;0.0387478331803813;0.03186047834682469;0.0438462322830631;1.0644343824681861;0.032287625279553867;0.001042490746192886;1.0644343824681861;0.0822116851626502;2.0058421769554577;3.232658654676056;4.405998124800713;-2.323801032357262;0.005600414926737989;0.20760011541021584;0.0;53.750010514285705;86.7706496
-0.0285510349750178;0.031193029436772563;0.0091771183848271;0.0438462322830631;0.03634656449165457;0.0438462322830631;1.0469898658988408;0.032115467658488404;0.0010314032629234146;1.0644343824681861;0.0822116851626502;2.284242340612767;4.104833997929997;4.684398288458023;-2.151180199674706;0.015470731365200953;0.38022094809277185;30.0;53.74976182857142;86.77086171428572
0.0091771183848271;0.0320927345072288;0.0091771183848271;0.0316100744366268;0.043983217740717194;0.0438462322830631;1.0416132931395035;0.032205302425401344;0.0010371815043115616;1.0644343824681861;0.0822116851626502;3.018204138699605;6.066837061946355;5.41836008654486;-1.9425148755080917;0.04117392221576679;0.5888862722593864;30.0;53.749490442857145;86.77106575714286
-0.0550627103089629;0.037064177608450086;0.0091771183848271;0.0387478331803813;0.041498409574905824;0.0438462322830631;0.9822226973055359;0.03213498108037327;0.0010326570090359482;1.0644343824681861;0.0822116851626502;3.018204138699605;5.3882258710666235;5.41836008654486;-1.677925953939799;0.09802048624456826;0.853475193827679;30.0;53.749201500000005;86.77127784285715
-0.0907515040277353;0.03923417621760592;0.0091771183848271;-0.0418068726419904;0.04738103176360508;0.0438462322830631;1.0489219864582169;0.02753375797847183;0.0007581078284170612;1.0489219864582169;0.06669928915268097;3.3560258671281216;7.133686377871186;5.756181814973377;-1.5809395053196502;0.14833166599159556;0.9504616424478278;30.0;53.74886228571428;86.77147988571427
-0.0214132762312633;0.04189973682789947;0.0091771183848271;-0.0530233506678902;0.045637283539929734;0.0387478331803813;1.0070292035011377;0.027512125621028692;0.0007569170561872635;1.0489219864582169;0.06880438508386688;3.3560258671281216;6.771880772747269;5.616881318214341;-1.573797923621867;0.1441692380732742;0.9051346329502998;0.0;53.74852372857142;86.77168258571429
-0.092790863668808;0.03645673676131781;-0.0020393596410727;0.0316100744366268;0.04141719930221518;0.0387478331803813;0.9908911464969757;0.026632907501288952;0.0007093117619722134;1.0489219864582169;0.06880438508386688;3.3560258671281216;5.63663161196832;5.616881318214341;-1.5583548848102928;0.10942046669654006;0.834468231679278;30.0;53.74819148571429;86.77189525714286
-0.0122361578464362;0.039425526732976536;-0.0020393596410727;-0.0591414295911083;0.030572585498659606;0.0316100744366268;1.010270134884861;0.03678111342979833;0.0013528503051356913;1.0489219864582169;0.11012907376410186;3.3560258671281216;3.0707728959780862;5.184108784884238;-1.5583548848102928;0.05219657751066878;0.5928253148644134;0.0;53.747829728571425;86.77216984285714
-0.0020393596410727;0.033617784104812094;-0.0020393596410727;-0.0489446313857448;0.030436244981626417;0.0316100744366268;0.98011760137435;0.0331901194148519;0.0011015840267721289;1.0369928206083734;0.09819990791425837;3.3560258671281216;3.056304442196925;5.184108784884238;-1.5583548848102928;0.018176289030217906;0.3841599906977988;0.0;53.74747797142857;86.77247271428573
-0.0509839910268175;0.036092989455055964;-0.0020393596410727;-0.0397675130009177;0.03141603732883196;0.0316100744366268;1.0369928206083734;0.033816112903689216;0.0011435294919150561;1.0369928206083734;0.09819990791425837;3.585612626259123;3.302580111705916;5.41369554401524;-1.523191223245249;0.0024251782746183823;0.15473473069455013;0.0;53.74713535714286;86.77280301428571
-0.0040787192821454;0.029779273215428878;0.0214132762312633;-0.0356887937187723;0.02047355735209383;-0.0346691138982359;0.938792912694115;0.03520554032390302;0.001239430069497962;1.0369928206083734;0.09819990791425837;5.493287630354236;1.5193811006137483;3.563361173409647;-1.4984347340425637;0.001779656707692967;0.1227781741275753;30.0;53.74681142857143;86.773152
-0.0050983991026817;0.0326350646574355;0.0214132762312633;-0.0346691138982359;0.024130028686039008;-0.0346691138982359;1.0294535161425002;0.03455946004623025;0.0011943562786869849;1.0369928206083734;0.09819990791425837;5.493287630354236;2.1052040928796343;3.563361173409647;-1.4984347340425637;0.0018730603008116622;0.1227781741275753;30.0;53.74656815714286;86.77353409999999
-0.0632201488732537;0.032482996989497005;0.0214132762312633;-0.061180789232181;0.02452082379932795;-0.0346691138982359;0.9782680073139948;0.03442300611168118;0.0011849433497648399;1.0369928206083734;0.09819990791425837;5.493287630354236;2.1638278922564393;3.563361173409647;-1.4984347340425637;0.009075108867092755;0.291431020140142;30.0;53.74636148571428;86.77394182857142
0.0214132762312633;0.028641068783616608;0.0214132762312633;-0.092790863668808;0.027290215774561706;-0.0346691138982359;0.9693063716507788;0.02917349531511386;0.0008510928289009703;1.0294535161425002;0.09066060344838522;5.911002957713374;2.4805280614831156;3.9810765007687854;-1.4984347340425637;0.018879774722206213;0.3712019286828552;0.0;53.74619924285714;86.77439398571428
0.0183542367696543;0.03562978385559707;0.0214132762312633;-0.0866727847455898;0.03033929974925701;-0.0346691138982359;0.9768005796475593;0.021095515853102122;0.000445020789108483;1.0294535161425002;0.06014714449172143;7.428932608686292;3.1193615558306234;5.499006151741703;-1.4984347340425637;0.04440970974830408;0.5701410974046581;0.0;53.74611528571428;86.77478545714287
-0.0224329560517997;0.04078233691420169;0.0214132762312633;-0.0734169470786173;0.028591758442108706;-0.061180789232181;0.9890142610980719;0.013730455350144085;0.0001885254041223003;1.0099412592561559;0.040634887605377035;8.13014963256931;2.650992810875463;4.544537006310187;-1.4984347340425637;0.11238218185043587;0.9270113154051813;0.0;53.74607187142857;86.7751297
-0.0193739165901906;0.04182285759717134;0.0214132762312633;-0.1040073416947078;0.03129049427198595;-0.0734169470786173;1.0099412592561559;0.014265866081581986;0.00020351493505763136;1.0099412592561559;0.040634887605377035;9.118302820767184;3.125388827343896;4.861181097825573;-1.4984347340425637;0.16549365113368122;1.0794475355187774;0.0;53.74606748571428;86.77543617142858
-0.0683185479759355;0.03485569593788842;0.0183542367696543;-0.1284796573875803;0.035501011565931384;-0.0734169470786173;0.9936836092927924;0.0113571395532267;0.00012898461883146633;1.0099412592561559;0.03314067960859657;9.45281703194186;4.049690125585238;5.195695309000249;-1.5937566361901594;0.21335657761890955;1.2628764496706932;0.0;53.74609265714286;86.7756954
-0.0774956663607627;0.02444524076014924;-0.0193739165901906;-0.1407158152340165;0.034240165572606604;-0.0734169470786173;0.9950053244241426;0.007997876777992494;6.39660329559516e-05;1.0099412592561559;0.020926998158083965;9.45281703194186;3.8855832508229935;5.195695309000249;-1.7898657541827057;0.186260352457831;1.066767331678147;0.0;53.74613534285714;86.77592460000001
-0.0703579076170082;0.023786198658526148;-0.0193739165901906;-0.1590700520036708;0.021907018938940336;-0.1040073416947078;1.0037644716189065;0.0070611262100306205;4.98595033539814e-05;1.0099412592561559;0.01826279105470552;9.45281703194186;1.6285825472670374;3.541814074228486;-1.8696366627254188;0.129329478335884;0.9869964231354338;0.0;53.7461817;86.77613552857143
-0.0448659121035994;0.020727419272841524;-0.0265116753339451;-0.1651881309268889;0.014667262604825745;-0.1284796573875803;1.0058013413374887;0.005782062019025003;3.343224119185149e-05;1.0058013413374887;0.014122873136038328;9.45281703194186;0.6977483488781021;2.023884423255568;-2.068575831447222;0.0654041156192789;0.7880572544136308;0.0;53.74621905714286;86.77629722857144
-0.0300805547058223;0.019285226333685075;-0.0265116753339451;-0.1621290914652799;0.013811908157514735;-0.1325583766697257;0.9916784682014503;0.012308276277690922;0.0001514936649279691;1.0058013413374887;0.03502545153468184;9.45281703194186;0.5697103769912913;1.8410609487564997;-2.285543547203313;0.03813849055501811;0.5710895386575396;0.0;53.74624787142857;86.77645404285715
-0.0265116753339451;0.015633375187550574;-0.0265116753339451;-0.1488732537983073;0.01335259689029492;-0.1325583766697257;1.0046138956187576;0.012355099395586119;0.0001526484810748125;1.0058013413374887;0.03502545153468184;9.45281703194186;0.529598126129042;1.8410609487564997;-2.071465154890717;0.07304308877558689;0.7851679309701356;0.0;53.746269028571426;86.77661782857142
-0.0397675130009177;0.022405626552046767;-0.0265116753339451;-0.1325583766697257;0.013175288483423605;-0.1325583766697257;1.000744446841388;0.01184681270925334;0.00014034697136812647;1.0058013413374887;0.03502545153468184;9.45281703194186;0.527677402503894;1.8410609487564997;-1.8761765728008224;0.12960937224996605;0.9804565130600302;0.0;53.746281571428575;86.77678031428572
-0.0469052717446721;0.023084788037337378;-0.0265116753339451;-0.1325583766697257;0.010837061043260135;-0.1325583766697257;0.9707758898028068;0.01184013835163387;0.0001401888761858312;1.005759085926764;0.03498319612395717;9.409502050642104;0.390461266343084;1.797745967456743;-1.2986203692588267;0.24896970104953828;1.4764013762731398;0.0;53.74628737142857;86.77695068571428
-0.0601611094116447;0.026574397355292347;-0.0122361578464362;-0.1498929336188436;0.009445643942880335;-0.1233812582848985;0.9931341203955899;0.012746001769489779;0.00016246056110783659;1.0079605944303347;0.037184704627527876;8.680778614182987;0.3086172403232265;1.6497507601332737;-0.7395355956785282;0.4481090751650929;1.79895414072984;0.0;53.746287485714284;86.77712268571428
-0.092790863668808;0.03480469897320094;0.0122361578464362;-0.1396961354134801;0.012976497676160121;-0.1091057407973896;0.9951646690111129;0.01291341546024336;0.00016675629884885224;1.0079605944303347;0.037184704627527876;8.680778614182987;0.5623568575521423;2.321428598540768;-0.3670999138567634;0.666746850196068;2.171389822551605;0.0;53.74628227142857;86.7773039857143
-0.0647496686040583;0.03979629391194865;0.0122361578464362;-0.1376567757724074;0.013214687796457519;-0.1091057407973896;1.005759085926764;0.012942999122148389;0.00016752122627593395;1.0079605944303347;0.037184704627527876;8.680778614182987;0.5905578948457184;2.321428598540768;-0.0528116829596105;0.7690782972318986;2.2327318642437026;0.0;53.74627498571429;86.77749418571429
-0.0122361578464362;0.047106585391770095;0.0326297542571632;-0.1233812582848985;0.013714779326415875;-0.1091057407973896;1.0079605944303347;0.007843265036772828;6.151680643706307e-05;1.0079605944303347;0.022930359956099267;8.680778614182987;0.6223603705509285;2.321428598540768;0.0513152470365838;0.7360311511191151;2.122780401927301;0.0;53.74626584285715;86.77768618571429
0.0122361578464362;0.052329570818118176;0.0530233506678902;-0.1091057407973896;0.011396023145526601;-0.1091057407973896;0.9850302344742354;0.008057873674137572;6.492932814835933e-05;1.0079605944303347;0.022930359956099267;8.100909310245996;0.40561345853188396;1.7415592946037766;0.1051367496446818;0.5685306138886181;1.9813133224455042;0.0;53.74625421428572;86.77790861428572
0.0071377587437544;0.038971282062573144;0.0530233506678902;-0.1254206179259712;0.011238527345442617;-0.1091057407973896;1.0010815369617025;0.00957263538932074;9.163534829687582e-05;1.0079605944303347;0.023694345384182025;8.100909310245996;0.41230385752331083;1.7415592946037766;0.1051367496446818;0.27436081652332145;1.4037571189035085;0.0;53.74624235714286;86.77812715714286
0.0326297542571632;0.021626097066936592;0.0530233506678902;-0.1407158152340165;0.01212028830461289;-0.1091057407973896;0.9985727137657182;0.010501278136067771;0.00011027684249105501;1.0106025044304985;0.026336255384345808;8.100909310245996;0.5242328101054968;1.78680158165818;0.1051367496446818;0.09483492662854713;0.84467234532321;0.0;53.74623068571429;86.7783532
0.0530233506678902;0.022144174401274384;0.0530233506678902;-0.1254206179259712;0.023302262971649477;-0.0723972672580809;0.9913480134582927;0.00972689120951083;9.461241260165906e-05;1.0106025044304985;0.026336255384345808;8.100909310245996;1.8219126849403857;3.897727226493691;0.1591587310648578;0.029547105332063547;0.5262586449216212;0.0;53.74621962857144;86.77858717142855
0.0356887937187723;0.022054557787539657;0.0530233506678902;-0.1386764555929438;0.0299252265288243;-0.0683185479759355;0.9842662490461527;0.010051117249902054;0.00010102495797127864;1.0106025044304985;0.026336255384345808;8.100909310245996;3.0525477482354355;4.2151229978101945;0.1591587310648578;0.00588034923864895;0.2119704140244683;0.0;53.74621164285714;86.77883884285714
0.0132558376669725;0.022712617985065384;0.0530233506678902;-0.1111451004384623;0.03741319199428138;-0.0479249515652085;1.0106025044304985;0.012460025315185865;0.0001552522308550726;1.0167332771376323;0.03246702809147961;8.100909310245996;4.802588299157275;5.399202428253213;0.1640769779405089;0.004015955315063262;0.14314492512746002;0.0;53.74620377142857;86.77910891428571
-0.0142755174875089;0.02279856233815564;0.0530233506678902;-0.0723972672580809;0.035956926447420545;-0.0479249515652085;0.9877708473617218;0.01661104956072586;0.0002759269675088908;1.0288983720538405;0.04463212300768782;8.099537172578785;4.517305486438872;5.397830290586002;0.2642855771787893;0.00725844905366354;0.24335352436574043;0.0;53.746196757142854;86.77942007142858
0.0285510349750178;0.022191078247504638;0.0356887937187723;-0.0683185479759355;0.03420544363129117;-0.0479249515652085;1.0081271736169075;0.01783813823091705;0.0003181991755453044;1.0288983720538405;0.04547123653419982;8.099537172578785;4.02809738256306;5.397830290586002;0.3678590738722045;0.015174687884621627;0.3469270210591556;0.0;53.746189214285714;86.77974898571428
0.0020393596410727;0.031896200736087836;0.0336494340776996;-0.0479249515652085;0.042845623859018356;0.0305903946160905;1.0167332771376323;0.015856987487653032;0.00025144405218358485;1.0288983720538405;0.04547123653419982;6.314107728587816;5.967735325788026;8.059131720979854;0.3678590738722045;0.017348851285771724;0.3827264718911511;0.0;53.7461872;86.78021508571429
0.0336494340776996;0.0372121602740467;0.0336494340776996;-0.0560823901294993;0.04961427330989513;0.0499643112062812;1.0288983720538405;0.022620950458301425;0.0005117073996369274;1.04797838491806;0.06455124939841927;4.203182083752305;7.862310086095808;6.935900480101572;0.3678590738722045;0.03227743445522932;0.5470934277796402;0.0;53.746189428571434;86.78071834285713
-0.0173345569491179;0.03901270905573379;0.0336494340776996;-0.0509839910268175;0.06648504566613539;0.1029876618741715;0.9834271355196407;0.022860233914057664;0.0005225902946054321;1.04797838491806;0.06455124939841927;3.8857863124358007;13.777189827868789;9.549769973770905;0.3678590738722045;0.09814997790106522;0.9222597636380836;0.0;53.74619188571428;86.78124742857143
-0.0591414295911083;0.033664880226815866;0.0336494340776996;0.0305903946160905;0.06438648593252692;0.1029876618741715;1.0045543829841215;0.022746910037686068;0.0005174219162625832;1.04797838491806;0.06455124939841927;3.124582183144052;12.908738762250005;8.788565844479157;0.3678590738722045;0.22514278900716164;1.3135036265282114;0.0;53.74619581428572;86.78178164285715
-0.058121749770572;0.03233863588638198;0.0336494340776996;0.0499643112062812;0.06113788289294646;0.1029876618741715;1.04797838491806;0.026961260188749787;0.0007269095509654643;1.04797838491806;0.06455124939841927;3.124582183144052;11.818073092426332;8.788565844479157;0.3678590738722045;0.3918247969763391;1.6776029601348543;0.0;53.74620357142857;86.78230505714285
-0.0428265524625267;0.01971464702147813;-0.0112164780258998;0.1029876618741715;0.05052256146639165;0.1029876618741715;1.0435023113423236;0.027553867870410254;0.0007592156346200265;1.04797838491806;0.06455124939841927;2.97172767833255;8.13733020647611;8.635711339667655;0.3678590738722045;0.49952965680206923;1.924793811569638;0.0;53.74621177142858;86.78281062857143
-0.0224329560517997;0.025536870483747517;0.0107066381156316;0.0632201488732537;0.02501458791750793;0.1029876618741715;1.032059046068415;0.024228443837094826;0.0005870174907672583;1.04797838491806;0.06344543919492684;-1.745023992392038;1.9373603853128027;3.918959668943067;-0.0148673980189466;0.425143940565945;1.6122629901799381;0.0;53.74622447142857;86.7832951
-0.0112164780258998;0.02518251348915516;0.0107066381156316;0.0703579076170082;0.02193186580039121;0.1111451004384623;0.9845329457231331;0.023468922150314327;0.0005507903068975145;1.04797838491806;0.06344543919492684;-2.7327183963492674;1.5462840132894702;3.569036851193469;-0.1792343539074357;0.35921335775945745;1.6023705390499157;0.0;53.746237;86.78369162857143
-0.023452635872336;0.019787031390701315;0.0107066381156316;0.0866727847455898;0.019874727980973197;0.1111451004384623;1.0358150337712915;0.021027902720252206;0.00044217269281239015;1.0435023113423236;0.05896936561919053;-3.2949542405495698;1.240302999099865;3.0068010069931668;-0.5544006897658791;0.2463036041935659;1.4172279752857193;0.0;53.746249157142856;86.78408047142857
0.0107066381156316;0.019225442984589294;0.0173345569491179;0.0897318242071989;0.02323736737043218;0.1111451004384623;1.002348505188746;0.019122137207041333;0.00036565613136491456;1.0358150337712915;0.05128208804815837;-2.3345757967429903;1.7392335276841362;3.967179450799746;-0.945644552656007;0.14564150024782996;1.087757916135025;0.0;53.746265928571425;86.78447392857142
0.0081574385642908;0.01805198102664079;0.0173345569491179;0.1111451004384623;0.023613585675803312;0.1111451004384623;1.0125754344492417;0.020795867705603682;0.0004324681136289701;1.0358150337712915;0.055132698348100084;-2.3345757967429903;1.7523650180417407;3.967179450799746;-1.3097438862626498;0.08916031597979063;0.8442219743772352;0.0;53.746280514285715;86.78488348571429
-0.0305903946160905;0.02756572765988994;0.0173345569491179;0.0591414295911083;0.023591559540057844;0.1111451004384623;1.0289741600523818;0.019027123527489757;0.0003620314297303542;1.0358150337712915;0.055132698348100084;-2.3345757967429903;1.752352896327073;3.967179450799746;-1.5569347376974334;0.07824542517322866;0.7661449831743208;0.0;53.74628935714286;86.78532387142857
0.0173345569491179;0.0489169313498705;0.0173345569491179;0.040787192821454;0.024590386559795483;0.1111451004384623;1.001287163321503;0.017555310304716708;0.0003081889198948926;1.0289741600523818;0.04829182462919046;-2.3345757967429903;1.8988518915739874;3.967179450799746;-1.6271303881988848;0.08439260549420897;0.8274743738268913;30.0;53.74628744285714;86.7858047
-0.003059039461609;0.04668943906088268;0.0173345569491179;0.0591414295911083;0.024077649068926;0.1111451004384623;0.9806823354231914;0.021590055815199065;0.000466130510103411;1.04719528961403;0.06651295419083858;-2.3345757967429903;1.821119442677727;3.967179450799746;-1.7816048929573514;0.08756321984902599;0.8527290744971334;0.0;53.74626045714285;86.78630799999999
-0.0591414295911083;0.054790934249802435;0.0173345569491179;0.0774956663607626;0.033580944301402835;0.095849903130417;1.0233141107606907;0.03209351288197949;0.0010299935691057832;1.04719528961403;0.09205787608890237;0.611686435546329;3.560544403470016;5.96250400054579;-1.9716286650515984;0.14817621176993437;1.0994740530269012;0.0;53.746195542857144;86.78680628571429
-0.1172631793616804;0.053927471488436206;0.0173345569491179;0.095849903130417;0.044444584958593936;0.095849903130417;1.0278402938575326;0.03574526474620835;0.0012777239517765256;1.04719528961403;0.09205787608890237;1.3413577948685007;6.339325889667653;6.692175359867962;-2.033402468791032;0.2386077425047414;1.337518398638438;30.0;53.746085785714286;86.78729995714286
-0.0458855919241358;0.04530572797945188;-0.003059039461609;0.0652595085143265;0.059921141861397194;0.095849903130417;1.04719528961403;0.037800321629888244;0.0014288643153229968;1.04719528961403;0.09205787608890237;3.691353559301161;11.745897219061924;9.042171124300623;-2.153965860639885;0.2964106651208982;1.4125543229680813;30.0;53.745929257142855;86.78779074285715
-0.1294993372081166;0.038625611066094856;-0.0316100744366268;-0.0101967982053635;0.06078498997423503;0.095849903130417;0.9551374135251276;0.04100197825271028;0.0016811622206357266;1.04719528961403;0.09571599069784309;3.691353559301161;11.95445469365658;9.042171124300623;-2.323079720871754;0.3420529227423092;1.5190633843811097;0.0;53.745729128571426;86.78825255714285
-0.0550627103089629;0.03900953612993822;-0.0316100744366268;-0.0224329560517997;0.05773199348972377;0.095849903130417;0.9583059235451231;0.04279567777292547;0.001831470036044067;1.04719528961403;0.09571599069784309;3.691353559301161;10.633140834045006;9.042171124300623;-2.454604762025776;0.38125061634950114;1.6864521576544633;0.0;53.7454911;86.78868744285715
-0.0316100744366268;0.03292506584053588;-0.0316100744366268;-0.0622004690527174;0.04057847415760962;0.0652595085143265;0.9661201286811881;0.04217699549510008;0.0017788989489936926;1.04719528961403;0.09571599069784309;3.691353559301161;5.205365865935646;7.2642485732677;-2.634333967454485;0.3396285494517394;1.6249792284563118;0.0;53.74520998571428;86.78909752857143
-0.0418068726419904;0.03251194457821598;-0.0316100744366268;-0.020393596410727;0.016948959407649716;-0.0101967982053635;0.9514792989161869;0.034147317420752034;0.0011660392870335953;1.0350478495546904;0.08356855063850355;3.691353559301161;0.9671815634456601;3.079667123754832;-3.0711027180784995;0.19448987201973902;1.188210477832297;0.0;53.74490932857144;86.78947710000001
-0.0520036708473539;0.01370394473934512;-0.0316100744366268;-0.040787192821454;0.014441036264352032;-0.020393596410727;1.0350478495546904;0.03274125103056994;0.001071989519046797;1.0350478495546904;0.08356855063850355;3.691353559301161;0.7062856481812525;2.4632065166248314;-3.37092086742947;0.10494306328607304;0.8883923284813267;0.0;53.74454745714286;86.78988688571428
-0.0764759865402263;0.035177370419111724;-0.0316100744366268;-0.037728153359845;0.014739660713551577;-0.020393596410727;1.0232394277402972;0.04077438777792481;0.0016625506986645844;1.059317289390238;0.10783799047405118;3.691353559301161;0.7664551153305265;2.588247620705663;-3.5665201836079663;0.05138972279023504;0.6927930123028303;0.0;53.74417858571429;86.79027504285715
-0.0520036708473539;0.032408223355342505;-0.0418068726419904;-0.0316100744366268;0.008065881921022752;-0.020393596410727;0.9858711474858177;0.03931647507790419;0.001545785212551461;1.059317289390238;0.10783799047405118;2.2583876147155832;0.19338656980898347;1.155281676120085;-3.71323347463338;0.034351654206321074;0.5460797212774167;0.0;53.74380571428571;86.79062262857143
-0.0509839910268175;0.0303041928393345;-0.0509839910268175;-0.0254919955134087;0.017537589519132063;0.0112164780258998;0.9683356545717159;0.03544141454734653;0.0012560938651168662;1.059317289390238;0.09098163481852217;2.2583876147155832;0.9743128138369982;2.8742724820077807;-3.6385910010132174;0.05089671232922687;0.6207221948975792;0.0;53.74343308571429;86.79094485714286
-0.1366370959518711;0.03100676271180584;-0.0469052717446721;-0.020393596410727;0.020252293957325668;0.0112164780258998;1.059317289390238;0.035484021872010885;0.0012591158082133468;1.059317289390238;0.09098163481852217;3.048243264952626;1.277621927745794;3.664128132244823;-3.6385910010132174;0.057237309446583305;0.6207221948975792;0.0;53.743056485714284;86.7912302
-0.0744366268991536;0.031504955645098566;-0.0469052717446721;-0.0326297542571632;0.020894848402753383;0.0112164780258998;0.9792122876324086;0.045463634750406184;0.002066942084718341;1.059317289390238;0.12341006663011644;3.048243264952626;1.4303083273937354;3.664128132244823;-3.164674446759569;0.0971671432011641;0.9151601505039353;0.0;53.74267141428572;86.79146684285715
-0.0836137452839808;0.037123574832318526;-0.0183542367696543;0.0112164780258998;0.026116546293189966;0.0112164780258998;1.0434892334948607;0.04557178485587925;0.002076787574950545;1.059317289390238;0.12341006663011644;3.8856238417268183;2.164769705945007;4.501508709019015;-2.661387461964051;0.22544656822676654;1.3637328111993354;0.0;53.742273328571436;86.79166852857144
-0.0469052717446721;0.036802094560907474;-0.0183542367696543;-0.0550627103089629;0.032179783046262664;0.0112164780258998;1.035465151790221;0.04362295876928891;0.00190296253178708;1.059317289390238;0.12341006663011644;4.987347251666551;3.402519136763649;5.603232118958749;-2.586354557962649;0.28879856241235885;1.3442046960181044;0.0;53.741928185714286;86.7917915
-0.0591414295911083;0.025415160953737855;-0.0183542367696543;-0.0438462322830631;0.030763895574627994;0.0112164780258998;0.9359072227601216;0.06367408315432449;0.004054388865543829;1.1365423734735287;0.2006351507134071;4.987347251666551;3.110972263110003;5.603232118958749;-2.577511850302967;0.2817551331612149;1.135721624330413;0.0;53.74159217142857;86.79189799999999
-0.0183542367696543;0.02623736109979094;-0.0183542367696543;-0.0693382277964719;0.03574078033586882;0.0112164780258998;1.0232165645014513;0.061802903923287404;0.0038195989333510935;1.1365423734735287;0.2006351507134071;4.987347251666551;4.187288029553585;5.603232118958749;-2.577511850302967;0.23512073227232763;1.0731428319569738;0.0;53.74126464285714;86.79200567142857
-0.0560823901294993;0.0318373539362477;0.0050983991026817;-0.0856531049250535;0.03090519924687271;0.003059039461609;0.9852460704440077;0.06400016870808987;0.004096021594663966;1.1365423734735287;0.2006351507134071;4.987347251666551;3.196317155192517;5.1622639455280925;-2.577511850302967;0.16014059613192141;1.0731428319569738;30.0;53.740942228571434;86.79211480000001
-0.0948302233098807;0.03181051634256608;0.0050983991026817;-0.040787192821454;0.033592000484595666;0.003059039461609;1.1365423734735287;0.07367303381939427;0.005427715912153613;1.1365423734735287;0.2006351507134071;4.987347251666551;3.7813690538742217;5.1622639455280925;-2.577511850302967;0.04071810381493766;0.5871625964566021;30.0;53.7406289;86.79224032857144
-0.0372183134495768;0.03465393676933008;0.0050983991026817;0.003059039461609;0.04274844451412488;0.0356887937187723;1.002021699008647;0.07289180711683389;0.005313215544757717;1.1365423734735287;0.19726614573209078;4.987347251666551;6.119014102657629;7.164885160920475;-2.577511850302967;0.0435000863314845;0.6066281899799479;30.0;53.7403479;86.79238355714287
0.0050983991026817;0.033360720825072264;0.0050983991026817;-0.0122361578464362;0.03811981914004782;0.0356887937187723;1.0697262667634666;0.0752390606277218;0.005660916244141998;1.1365423734735287;0.19726614573209078;4.987347251666551;4.896932040018041;7.164885160920475;-2.577511850302967;0.10107564101464599;0.8264707551013819;30.0;53.74009891428572;86.79254782857143
-0.0438462322830631;0.03344891019562114;0.0050983991026817;-0.0040787192821454;0.02514882120279117;0.0356887937187723;1.122511880155996;0.07842471174541915;0.006150435412352085;1.1365423734735287;0.19726614573209078;2.056620121306371;2.066567635906597;4.234158030560295;-2.577511850302967;0.15506607760820076;1.0091376609617564;30.0;53.73986547142857;86.79272764285714
-0.0815743856429081;0.026952256831257487;0.0050983991026817;0.0356887937187723;0.03522308410588678;0.0356887937187723;0.9392762277414379;0.06722496942650259;0.004519196514394208;1.122511880155996;0.18323565241455797;4.720892496173423;4.520508105241462;6.898430405427348;-2.702939055173912;0.18070896061303018;1.009298882810132;30.0;53.73964794285714;86.79292337142856
-0.0295707147955541;0.04053437233239158;0.040787192821454;-0.0081574385642908;0.03464911440773503;0.0356887937187723;0.989564986973934;0.06764295927312602;0.004575569939225786;1.122511880155996;0.18323565241455797;4.720892496173423;4.384434856809416;6.898430405427348;-2.704444539495797;0.1800726281517636;1.0564005261865717;30.0;53.73944935714286;86.7931343857143
-0.058121749770572;0.052049469626421714;0.061180789232181;-0.0336494340776996;0.037672338080340456;0.0356887937187723;0.9608490075038717;0.061069093312772556;0.0037294341580441214;1.122511880155996;0.18323565241455797;4.720892496173423;5.126452706438509;6.898430405427348;-2.8125292677576;0.12201687787785447;0.9483157979247685;30.0;53.73927548571429;86.79335914285714
-0.0280411950647496;0.07350060824568468;0.061180789232181;-0.078515346181299;0.038558897900563195;0.0356887937187723;0.9539916724468823;0.018647868710144944;0.00034774300743080285;0.989564986973934;0.050288759232496094;4.720892496173423;5.354658111753797;6.898430405427348;-3.184140040282915;0.04220830099086587;0.5767050253994537;30.0;53.739136428571435;86.79359311428571
0.040787192821454;0.08208151118756785;0.061180789232181;-0.0275313551544814;0.03608407176216929;0.0224329560517997;0.985729946386321;0.014186899197813293;0.00020126810884891547;0.9899305669149038;0.035938894468021454;4.720892496173423;4.622147287368832;6.0193913802783685;-3.2457504558519803;0.03506702055669352;0.5150946098303884;30.0;53.73902518571429;86.7938293
0.061180789232181;0.08924764601701178;0.061180789232181;0.020393596410727;0.037621046493247524;0.0224329560517997;0.9810146606143118;0.013405580763503507;0.00017970959560681526;0.9899305669149038;0.035938894468021454;4.720892496173423;5.018435264084091;6.0193913802783685;-2.787404188666939;0.12289699552206408;0.9734408770154297;30.0;53.7389226;86.7940522
-0.1560110125420618;0.08951077304163242;0.061180789232181;0.0091771183848271;0.04447256567846323;0.0616906291424492;0.9771948755901693;0.01256900943794959;0.0001579799982512659;0.9910733153151482;0.037081642868265874;4.720892496173423;6.916021588212232;8.289648868189396;-2.1525625230612087;0.36523541793134245;1.60828254262116;30.0;53.738829457142856;86.794237
-0.1386764555929438;0.09170884891117523;0.061180789232181;0.0224329560517997;0.026956389803032003;0.0616906291424492;0.9899305669149038;0.006539600926624622;4.276638027950962e-05;0.9962297938720126;0.019034918281843338;1.600474470205466;2.4387659238867108;5.169230842221438;-1.3213226391548458;0.8327109025257405;2.439522426527523;30.0;53.738754414285715;86.79436675714285
-0.1407158152340165;0.08222396951524384;0.061180789232181;0.0142755174875089;0.026565080033912888;0.0683185479759355;0.983003079259351;0.01305907124383944;0.00017053934175167418;1.0163220947623626;0.039127219172193306;0.0586444620827336;2.2807903590575997;3.9130509266322866;-0.2737817170679211;1.6070434867433174;3.438786357411838;30.0;53.73869752857143;86.7944525
-0.078515346181299;0.07183015300536275;0.0183542367696543;0.0616906291424492;0.03760245247399198;0.0683185479759355;0.9910733153151482;0.012809513139133191;0.00016408362686162587;1.0163220947623626;0.039127219172193306;2.3928297271380328;4.6083730644955345;6.247236191687586;1.009963063079509;2.7810446307189864;4.557467207575784;30.0;53.73865327142857;86.79450332857144
-0.0020393596410727;0.09271025741104684;0.1193025390027531;-0.0010196798205363;0.03974556328419252;0.0683185479759355;0.9962297938720126;0.015345415969426481;0.00023548179127472928;1.0257365749335254;0.04273349567417439;2.3928297271380328;5.142237632517744;6.247236191687586;2.5498145211673826;4.458617217284515;5.795564977019363;30.0;53.738620942857146;86.79453682857142
-0.0305903946160905;0.09271025741104684;0.1193025390027531;0.0683185479759355;0.03974556328419252;0.0683185479759355;1.0163220947623626;0.015345415969426481;0.00023548179127472928;1.0257365749335254;0.04273349567417439;2.3928297271380328;5.142237632517744;6.247236191687586;2.5498145211673826;4.458617217284515;5.795564977019363;30.0;53.738620942857146;86.79453682857142
0.0183542367696543;0.09271025741104684;0.1193025390027531;-0.0418068726419904;0.03974556328419252;0.0683185479759355;1.0013473893095473;0.015345415969426481;0.00023548179127472928;1.0257365749335254;0.04273349567417439;2.3928297271380328;5.142237632517744;6.247236191687586;2.5498145211673826;4.458617217284515;5.795564977019363;30.0;53.738620942857146;86.79453682857142
0.1193025390027531;0.09271025741104684;0.1193025390027531;-0.0152951973080452;0.03974556328419252;0.0683185479759355;1.0257365749335254;0.015345415969426481;0.00023548179127472928;1.0257365749335254;0.04273349567417439;2.3928297271380328;5.142237632517744;6.247236191687586;2.5498145211673826;4.458617217284515;5.795564977019363;0.0;53.738620942857146;86.79453682857142
-0.0336494340776996;0.032782651481781326;0.0101967982053635;0.0081574385642908;0.015231943477306038;0.0214132762312633;1.020267496604065;0.022281450632798454;0.0004964630423018346;1.0609767307692894;0.06786197886129652;1.2458477579615472;0.7242182942983925;2.4597429072323305;-1.5191313954175651;0.09780225796131908;0.8471301758864569;0.0;53.751252214285714;86.76607644285716
0.0101967982053635;0.032782651481781326;0.0101967982053635;0.0214132762312633;0.015231943477306038;0.0214132762312633;1.010780992177895;0.022281450632798454;0.0004964630423018346;1.0609767307692894;0.06786197886129652;1.2458477579615472;0.7242182942983925;2.4597429072323305;-1.5191313954175651;0.09780225796131908;0.8471301758864569;0.0;53.751252214285714;86.76607644285716
-0.0428265524625267;0.032782651481781326;0.0101967982053635;-0.0091771183848271;0.015231943477306038;0.0214132762312633;0.9931147519079929;0.022281450632798454;0.0004964630423018346;1.0609767307692894;0.06786197886129652;1.2458477579615472;0.7242182942983925;2.4597429072323305;-1.5191313954175651;0.09780225796131908;0.8471301758864569;60.0;53.751252214285714;86.76607644285716
-0.0520036708473539;0.032782651481781326;0.0101967982053635;-0.0010196798205363;0.015231943477306038;0.0214132762312633;1.0016572881969572;0.022281450632798454;0.0004964630423018346;1.0609767307692894;0.06786197886129652;1.2458477579615472;0.7242182942983925;2.4597429072323305;-1.5191313954175651;0.09780225796131908;0.8471301758864569;0.0;53.751252214285714;86.76607644285716
-0.058121749770572;0.03252793087783781;0.0101967982053635;-0.0224329560517997;0.01630918595837717;0.0214132762312633;1.0317592864348173;0.022945682437582732;0.0005265043425263927;1.0609767307692894;0.06786197886129652;1.2458477579615472;0.8347891130502623;2.4597429072323305;-1.7756078347000686;0.050703130161409316;0.5995320871289684;0.0;53.751233271428575;86.76627327142856
-0.0285510349750178;0.02230457695613817;-0.0285510349750178;-0.0163148771285816;0.015677651259141653;0.0158050372183134;1.0609767307692894;0.022802442184243443;0.0005199513695657649;1.0609767307692894;0.06786197886129652;1.546856143792349;0.7731461403704989;2.448524261005786;-1.9804274632970604;0.021920945988854083;0.39471245853197656;0.0;53.75121087142857;86.7664885857143
-0.0978892627714897;0.02288499524704299;-0.0285510349750178;0.0061180789232181;0.015804254034684266;0.0158050372183134;1.015251421920299;0.034148576811811916;0.0011661252982722184;1.0609767307692894;0.11198166999998316;1.546856143792349;0.7833510048649975;2.448524261005786;-2.1377464662322465;0.00713707772845983;0.23739345559679048;0.0;53.7511842;86.76672888571429
-0.0418068726419904;0.027751450978032204;-0.0091771183848271;0.0158050372183134;0.01603054604526565;0.0158050372183134;1.0043599073346432;0.03552261955772355;0.001261856500242764;1.0609767307692894;0.11198166999998316;1.546856143792349;0.8063611664968445;2.448524261005786;-2.251721028529332;0.0025165661356687814;0.1234188932997049;0.0;53.751155999999995;86.76699325714286
-0.0418068726419904;0.029636830076042057;-0.0091771183848271;-0.0275313551544814;0.01728629060151793;0.0158050372183134;1.0198893432132283;0.03535282832156383;0.0012498224703339654;1.0609767307692894;0.11198166999998316;1.6968299156469495;0.9704870838615887;2.598498032860386;-2.18501816873336;0.004708120436558821;0.19012175309567692;0.0;53.75112594285714;86.76727040000002
-0.0361986336290404;0.031244028396417035;-0.0091771183848271;-0.0020393596410727;0.016917161234870016;0.0158050372183134;0.9489950607693063;0.02666597063441696;0.0007110739898755877;1.0228008725437074;0.07380581177440115;1.6968299156469495;0.9385734688799258;2.598498032860386;-2.1018598667790327;0.01084411832784342;0.2732800550500043;30.0;53.75108855714286;86.76756581428572
-0.0091771183848271;0.015013918699342554;-0.0091771183848271;0.0020393596410727;0.017430333628667753;0.0158050372183134;0.9850555673063904;0.026333570111045618;0.0006934569147933551;1.0228008725437074;0.07380581177440115;1.6968299156469495;1.0018442871362445;2.598498032860386;-2.012762789399998;0.018540605976868445;0.3623771324290388;0.0;53.75104582857143;86.76786685714286
-0.0109615580707657;0.013373553958727859;-0.0091771183848271;-0.029060874885286;0.015175360571494963;0.0101967982053635;0.9814235854219985;0.027757792558507535;0.0007704950477211363;1.0228008725437074;0.07380581177440115;1.6968299156469495;0.762568237739934;2.2958414510687546;-2.012762789399998;0.014424760014393726;0.34453578241077576;30.0;53.75099228571428;86.76819
-0.0112164780258998;0.013495403311599164;-0.0091771183848271;-0.0010196798205363;0.015608811213290188;0.0224329560517997;1.0228008725437074;0.025079478879014527;0.0006289802608429358;1.0228008725437074;0.07380581177440115;1.6968299156469495;0.8268930162298069;2.996248698169644;-1.8979773076370277;0.021178929817427458;0.4189163986359088;0.0;53.75093295714286;86.76852198571429
-0.0305903946160905;0.014337918863651778;-0.0091771183848271;0.0101967982053635;0.015588973362802815;0.0224329560517997;0.9753470679764956;0.020831377146638297;0.0004339462738254843;1.0228008725437074;0.05528375869830049;1.6968299156469495;0.8246337762316314;2.996248698169644;-1.8979773076370277;0.01676839803466693;0.3601042026022021;0.0;53.75086632857143;86.76886861428571
-0.0193739165901906;0.017207793828569764;-0.0109615580707657;-0.0010196798205363;0.015880043006816783;0.0224329560517997;1.016805881623429;0.02231598687097919;0.0004980032700257156;1.0228008725437074;0.05528375869830049;1.6968299156469495;0.8565643406344536;2.996248698169644;-1.8979773076370277;0.01219281702659083;0.3020324593792909;0.0;53.75078677142857;86.76921328571427
-0.0423167125522585;0.01572977213856341;-0.0112164780258998;0.0224329560517997;0.01870196360396871;0.0224329560517997;0.9892298847265113;0.022771738545052943;0.00051855207636425;1.0228008725437074;0.05528375869830049;2.180170268639596;1.1528414291091122;3.4795890511622902;-1.7713258850825129;0.01886575558554161;0.4286838819338057;30.0;53.75068954285714;86.7695476
-0.040787192821454;0.01768212300180817;-0.0193739165901906;-0.0010196798205363;0.02230596428964423;0.0295707147955541;0.967517113845407;0.029177121750459438;0.0008513044336411332;1.0472196150711157;0.07970250122570877;2.180170268639596;1.5967289646654512;3.7982667655566162;-1.690038003250506;0.02870121348132254;0.5099717637658125;0.0;53.75057047142857;86.76986372857142
-0.0560823901294993;0.01743468268045698;-0.0193739165901906;-0.0081574385642908;0.024757189684481772;0.0305903946160905;0.9698432289513997;0.030192729169934502;0.0009116008947290137;1.0472196150711157;0.07970250122570877;2.180170268639596;1.9513544567116048;3.8806720878746592;-1.690038003250506;0.03282007640975584;0.5099717637658125;0.0;53.75042897142857;86.77015377142857
-0.0461405118792699;0.027014242290080374;0.0132558376669725;-0.0382379932701131;0.03085369037864148;0.0550627103089629;1.0051528742561917;0.029774873136568545;0.0008865430702987512;1.0472196150711157;0.07970250122570877;2.180170268639596;3.0612557829786247;5.3083380509140845;-1.4192054283962674;0.04143895307552165;0.5795005725189153;0.0;53.75025491428572;86.77040394285713
-0.0744366268991536;0.03547044668831516;0.0214132762312633;0.0295707147955541;0.03203849882704226;0.0550627103089629;1.0472196150711157;0.035530374781378;0.0012624075321051819;1.0472196150711157;0.0959282909648177;2.180170268639596;3.356955759805325;5.3083380509140845;-1.211872356962898;0.08329567922167963;0.7868336439522847;0.0;53.75005164285715;86.77063221428571
-0.0326297542571632;0.03526930884723202;0.0214132762312633;0.0305903946160905;0.032312023108605065;0.0550627103089629;1.0308473810106513;0.03312042376588245;0.0010969624704316309;1.0472196150711157;0.0959282909648177;2.180170268639596;3.4129812469300247;5.3083380509140845;-1.0695243234153644;0.11069135006973259;0.9269262700000556;0.0;53.74979437142857;86.77086134285715
0.0132558376669725;0.03382631877877998;0.0214132762312633;0.0550627103089629;0.03243323066166816;0.0550627103089629;1.0090343665073527;0.03997202537692103;0.001597762812733219;1.0796310037816992;0.12833967967540116;2.180170268639596;3.415207642632911;5.3083380509140845;-0.6414352080539829;0.1741360112526816;1.12989067702853;0.0;53.74951457142857;86.77108257142858
0.0214132762312633;0.040729985385036374;0.0214132762312633;0.0367084735393086;0.024739934584246375;0.0550627103089629;0.951291324106298;0.04158646424301469;0.0017294340082355392;1.0796310037816992;0.12833967967540116;0.4870335159779927;1.9786337094905828;3.6152012982524817;-0.3368338063317387;0.27267548547897097;1.3981216282526738;0.0;53.749219000000004;86.77130997142856
-0.035178953808504;0.03713461790347575;0.0214132762312633;-0.0040787192821454;0.03286485995548268;0.0550627103089629;1.009084985484075;0.04071116354255354;0.0016573988369885401;1.0796310037816992;0.12833967967540116;2.3089456021437424;3.5172905124473424;5.4371133844182316;-0.0920819809821894;0.3539023754839467;1.6428734536022231;0.0;53.748870485714285;86.77152099999999
-0.040787192821454;0.04713525084918749;0.0540430304884266;-0.0091771183848271;0.04214833221484767;0.0550627103089629;1.0796310037816992;0.04048676310013775;0.0016391779863266754;1.0796310037816992;0.12833967967540116;3.8468553267003056;5.785126409227274;6.975023108974795;0.0008785631446812;0.3182535105020054;1.4200839915409487;0.0;53.74851612857143;86.77171887142858
-0.0884572244315284;0.04622654512053373;0.0540430304884266;-0.0030590394616091;0.0337925910035083;0.0367084735393086;1.055517276304384;0.04035466045511321;0.0016284986204474783;1.0796310037816992;0.12833967967540116;3.8468553267003056;3.7861401849940193;6.0583365735180585;0.0812452567703907;0.270881324177313;1.2931176137332887;30.0;53.74817308571429;86.77191708571429
-0.0101967982053635;0.05268133301858765;0.0560823901294993;-0.040787192821454;0.028468543711461812;-0.0030590394616091;1.0123957225424884;0.051814707411880746;0.0026847639041788092;1.0796310037816992;0.1657919233681152;4.28742872589076;2.9096527241958596;4.121377160648421;0.0812452567703907;0.17969917570256996;1.1507695801857551;30.0;53.74783914285714;86.77212074285715
0.0540430304884266;0.05535302914887727;0.0560823901294993;-0.0683185479759355;0.02586221859516842;-0.0030590394616091;1.0183140644517679;0.05998683745139129;0.0035984206674196406;1.0796310037816992;0.1657919233681152;4.28742872589076;2.4586661570285515;4.121377160648421;0.0812452567703907;0.0644650791829982;0.7226804648243736;0.0;53.74754298571429;86.77231464285715
-0.0336494340776996;0.054022327159876864;0.0560823901294993;-0.0356887937187723;0.026683864120563366;-0.0030590394616091;1.012710967473584;0.05226616377010767;0.0027317518752437153;1.055517276304384;0.1416781958908001;4.28742872589076;2.5718484770431114;4.121377160648421;0.0812452567703907;0.018364743717921784;0.4180790631021294;0.0;53.747258185714294;86.77253452857143
0.0560823901294993;0.040368523056032064;0.0560823901294993;-0.0683185479759355;0.0233934493152099;-0.0050983991026817;0.913839080413584;0.042813588058283725;0.0018330033224244148;1.0183140644517679;0.1044749840381839;4.28742872589076;2.018573984595258;3.9798453053934035;0.0812452567703907;0.01449201046142805;0.36897336863883357;30.0;53.74698405714285;86.77278702857143
0.040787192821454;0.03839499299039187;0.0560823901294993;-0.0489446313857448;0.024660756968948434;-0.0050983991026817;0.9351798227479057;0.03984170013278531;0.0015873610694707848;1.0183140644517679;0.1044749840381839;4.28742872589076;2.1729933965703703;3.9798453053934035;0.0812452567703907;0.0482610060529037;0.6368520664338504;0.0;53.74676191428572;86.77311345714286
-0.0270215152442133;0.043255771243699205;0.0560823901294993;-0.0050983991026817;0.02766322008004596;-0.0050983991026817;0.9497200905047469;0.043087216071313605;0.0018565081887760657;1.0325027320170261;0.11866365160344217;4.872111415875772;2.5779883063382654;4.564527995378415;0.0812452567703907;0.10525041519780894;0.8950245786368952;0.0;53.74656321428571;86.77349258571428
0.0499643112062812;0.04167298070137541;0.0560823901294993;-0.0683185479759355;0.030857902500253977;-0.0050983991026817;0.9535954147725495;0.04182909953671535;0.0017496735680524404;1.0325027320170261;0.11866365160344217;5.766896177275595;3.050033846514467;5.459312756778238;-0.0012919224829069;0.1494083252750746;0.9897719199779728;0.0;53.74639378571429;86.77389001428573
0.0295707147955541;0.037150405874304175;0.0499643112062812;-0.0713775874375446;0.034030575077776334;-0.0050983991026817;0.9890526326650787;0.03522429915020453;0.0012407512506230998;1.0325027320170261;0.09732290926912046;5.855765848017739;3.6651251223060903;5.5481824275203815;-0.0568893988167076;0.16457314930442066;0.9943989623753855;0.0;53.74625958571428;86.77429341428571
-0.0438462322830631;0.044713501332122076;0.0499643112062812;-0.0876924645661262;0.03784934915340235;-0.0050983991026817;1.0325027320170261;0.02927330391561434;0.0008569263221359218;1.0325027320170261;0.08278264151227921;7.034620877734747;4.636269408220188;6.72703745723739;-0.1493758570662456;0.19984442481547934;1.2593251760516342;0.0;53.746164571428565;86.77467748571428
-0.023452635872336;0.04854595977801132;0.0499643112062812;-0.1009483022330988;0.027340062614418993;-0.0683185479759355;1.00464597922868;0.023369240313632838;0.0005461213928363222;1.0325027320170261;0.07890731724447664;8.369950805720643;2.431151279531288;4.261582911424608;-0.2877281118684429;0.24904948973529586;1.4786298242689562;0.0;53.74610695714285;86.77503312857142
-0.0091771183848271;0.038504286875639504;0.0295707147955541;-0.1019679820536351;0.027021286204648616;-0.0713775874375446;0.9994454063578406;0.01439558133979291;0.00020723276211059385;1.0325027320170261;0.043450099351947435;8.369950805720643;2.532250369452532;4.231452368621714;-0.5556068096634597;0.3605225460413273;1.7407448384909412;0.0;53.74608622857143;86.77534519999999
-0.0836137452839808;0.025252949418451756;-0.0091771183848271;-0.1223615784643621;0.028791072698188837;-0.0876924645661262;0.99912233357196;0.013485542445652442;0.00018185985505349365;1.0325027320170261;0.03890231151879475;9.713130688611823;2.949873403795723;4.841019272736051;-0.8137793218665045;0.4972689541098181;1.8586583804507724;0.0;53.746104142857135;86.77558985714286
-0.0652595085143265;0.025603431167061697;-0.0091771183848271;-0.1447945345161619;0.029149970940647196;-0.1009483022330988;0.9947126908550047;0.004197967106406004;1.76229278264668e-05;1.00464597922868;0.011045558730448546;9.944271555063876;2.8596505983723293;4.177375377788281;-0.9910638424608796;0.5070487115154678;1.681373859856397;0.0;53.74613875714285;86.77579635714287
-0.0591414295911083;0.02751066604406431;-0.0091771183848271;-0.1396961354134801;0.024739934584246472;-0.1019679820536351;0.9936004204982314;0.0072099534763365395;5.198342913093735e-05;1.0037948991785606;0.022690683729219896;9.944271555063876;2.039728464477748;4.088505707046138;-1.0512883611920931;0.4510817091761714;1.6693602740853617;0.0;53.74617931428571;86.7759832
-0.0438462322830631;0.02431195955633986;-0.0122361578464362;-0.168247170388498;0.01768938427702472;-0.1223615784643621;0.9972254905987298;0.007751600226695294;6.008730607450253e-05;1.0037948991785606;0.022690683729219896;9.944271555063876;1.0025583437340864;2.909650677329129;-1.4087010331178798;0.2498333785650447;1.311947602159575;0.0;53.746214800000004;86.77615034285715
-0.0356887937187723;0.01835423676965434;-0.0122361578464362;-0.1733455694911797;0.013044995793749806;-0.1396961354134801;1.0037948991785606;0.00829302136772979;6.877420340562287e-05;1.0042106932346584;0.023106477785317714;9.944271555063876;0.5099589344491656;1.8619422654070572;-1.766357936137399;0.14130856280069767;0.9542906991400557;0.0;53.74623984285715;86.77633630000001
-0.0122361578464362;0.015329148953169077;-0.0122361578464362;-0.1417354950545528;0.014304967648935048;-0.1366370959518711;0.9811042154493407;0.008945402986740654;8.002023459518862e-05;1.006509210856598;0.02540499540725738;9.944271555063876;0.6530166483944873;2.142081165842872;-1.7717033124181347;0.14028909144139837;0.9489453228593201;0.0;53.74625728571429;86.77651831428571
-0.0275313551544814;0.013919034179289148;-0.0122361578464362;-0.1560110125420618;0.013754433127816374;-0.1366370959518711;1.0037099586630223;0.010510048171195482;0.0001104611125608495;1.006509210856598;0.02540499540725738;9.944271555063876;0.590662123811623;2.142081165842872;-1.4411605578502036;0.25765891653885137;1.2794880774272512;0.0;53.746266042857144;86.77670261428571
-0.0489446313857448;0.013660520458825355;-0.0122361578464362;-0.1539716529009891;0.015462609211100372;-0.1254206179259712;1.0042106932346584;0.011473488942623485;0.00013164094851650336;1.0093492448641224;0.028245029414781686;9.944271555063876;0.794890465681756;2.8063118510075507;-0.9034903329705468;0.4375523439471361;1.817158302306908;0.0;53.746269271428574;86.7768887
-0.0438462322830631;0.015740293562021432;-0.0122361578464362;-0.1366370959518711;0.014714446016329204;-0.1152238197206077;1.006509210856598;0.011420995499200975;0.00013043913819276893;1.0093492448641224;0.028245029414781686;8.94198842458205;0.7613566689891265;2.345339509854698;-0.4529961355125933;0.6366421997510274;2.2676524997648615;0.0;53.746265685714285;86.77708625714286
-0.0520036708473539;0.012921054559592556;-0.0163148771285816;-0.1437748546956255;0.017101636169799758;-0.1152238197206077;0.9837088573320216;0.016262698902594765;0.000264475375596457;1.0093492448641224;0.04453921239831493;8.94198842458205;0.9134474197300017;2.345339509854698;-0.0626848001988921;0.703684706048883;2.332290889422136;0.0;53.74625758571428;86.77729392857144
-0.037728153359845;0.02423649123351467;0.0173345569491179;-0.1254206179259712;0.014466727507334872;-0.1152238197206077;1.0093492448641224;0.016017163513654814;0.000256549527023155;1.0093492448641224;0.04453921239831493;8.819725181418113;0.6631742745761955;2.223076266690761;0.4016358348626044;0.7792435909360534;2.316998520893037;0.0;53.746247842857144;86.77751092857143
-0.0163148771285816;0.029899570536652736;0.0244723156928724;-0.1152238197206077;0.010853039867589316;-0.1152238197206077;1.003001150203886;0.01576890088741503;0.0002486582351971185;1.0093492448641224;0.04453921239831493;8.404220602300205;0.39698373797518666;1.8075716875728531;0.4955989733263709;0.7759265859788455;2.2673022857445058;0.0;53.746240042857146;86.77770792857144
-0.0285510349750178;0.03351896228149507;0.0336494340776996;-0.1152238197206077;0.011860139416064305;-0.1152238197206077;0.9648100324658074;0.014852321724282776;0.0002205914606016021;1.0093492448641224;0.04453921239831493;8.404220602300205;0.4856845223748925;1.8075716875728531;0.5229508475555211;0.5810819966812354;1.9641114054057247;0.0;53.74623082857143;86.77790717142857
0.0173345569491179;0.03909258177053278;0.0723972672580809;-0.1345977363107984;0.011452364352576757;-0.1152238197206077;0.9912850821813745;0.01432469519269016;0.0002051968923634806;1.0093492448641224;0.04453921239831493;8.249992486955618;0.4254566253552136;1.6533435722282661;0.5229508475555211;0.3141582111795164;1.426441180526068;0.0;53.74622181428572;86.77810661428573
0.0244723156928724;0.03426491961439629;0.0723972672580809;-0.1254206179259712;0.011651662664173588;-0.1152238197206077;1.0013551768883469;0.014021407061502211;0.00019659985598434408;1.0075552484946275;0.04274521602882009;8.249992486955618;0.44523564551852085;1.6533435722282661;0.5229508475555211;0.1416407430708506;0.9759469830681144;0.0;53.74621275714286;86.77830601428572
0.0336494340776996;0.030186123176479947;0.0723972672580809;-0.1427551748750892;0.020040942792372663;-0.0846334251045171;0.9948616311954546;0.013473056441097189;0.00018152324986499044;1.0075552484946275;0.04274521602882009;8.249992486955618;1.313424012530222;3.345808611069251;0.5231244765078444;0.04418951189599763;0.5858092767067365;0.0;53.74620551428571;86.77852185714286
0.0723972672580809;0.0211524321776081;0.0723972672580809;-0.1417354950545528;0.028317705534978643;-0.0713775874375446;0.9947659983812865;0.008078820635960429;6.526734286802006e-05;1.0075552484946275;0.025027731659839736;8.249992486955618;2.627210003012983;4.083961270236313;0.6085797523471856;0.004071884928227271;0.20694391748458124;0.0;53.7462008;86.77874754285713
0.0402773529111858;0.0337425551668374;0.0723972672580809;-0.1223615784643621;0.0377117456765405;-0.0458855919241358;1.0075552484946275;0.011544294527011454;0.0001332707361263866;1.0173369638280763;0.03480944699328847;8.249992486955618;4.743406457476968;5.664867730478343;0.6085797523471856;0.0021915927124492814;0.15128424823591763;0.0;53.74619644285714;86.77899187142857
0.0254919955134087;0.03468963709173911;0.0723972672580809;-0.0846334251045171;0.04201538112390578;-0.0458855919241358;0.9899841319435257;0.013204357214542061;0.00017435504944922898;1.0173369638280763;0.03480944699328847;8.249992486955618;5.943290188380639;5.664867730478343;0.6085797523471856;0.004134342182717661;0.20864147669830135;0.0;53.74618944285714;86.77927012857143
0.0061180789232181;0.035998727739976685;0.0723972672580809;-0.0713775874375446;0.03961345334397946;-0.0418068726419904;0.9825275168347878;0.014043479837855009;0.00019721932595624016;1.0173369638280763;0.03480944699328847;8.191450578331802;5.23297332378595;5.763968856787061;0.6085797523471856;0.010081186004798473;0.31573988230648337;0.0;53.74617775714285;86.77959124285715
-0.037728153359845;0.02934781387902658;0.0479249515652085;-0.0458855919241358;0.04622048649688205;0.0275313551544814;1.0173369638280763;0.016039937090014653;0.0002572795818516277;1.0210834633950612;0.03855594656027339;6.975449472564839;6.979677006501947;8.52049618517254;0.6085797523471856;0.016635472624107653;0.35227205651928195;0.0;53.746164657142856;86.7799658
0.0020393596410727;0.03494011217241368;0.0479249515652085;-0.0469052717446721;0.041896782542969295;0.0275313551544814;1.0151578379535668;0.020284647296563766;0.00041146691594599167;1.0354797116472638;0.05295219481247604;4.904183875886367;5.787327504341305;6.449230588494068;0.6085797523471856;0.04695112183811522;0.6415624926099569;0.0;53.746152342857144;86.780396
0.0479249515652085;0.03375594197747357;0.0479249515652085;-0.0418068726419904;0.03975319257398081;0.0275313551544814;0.9870616534818639;0.03344769409251467;0.0011187482401064407;1.0354797116472638;0.09879847619738125;4.166031216719305;5.239538603089017;5.711077929327006;0.6085797523471856;0.12105358442556129;1.0130258220791122;0.0;53.746143242857144;86.78085135714286
-0.0050983991026817;0.03590594225735263;0.0479249515652085;0.0275313551544814;0.044806833303505406;0.0683185479759355;1.0210834633950612;0.03495356487386452;0.0012217516973914559;1.0354797116472638;0.09879847619738125;2.6482889382051837;6.374662047755343;6.431639551069139;0.509016368288608;0.23564599948174644;1.3361005402404698;0.0;53.74614084285714;86.78132804285714
-0.0540430304884266;0.03511609127709303;0.0479249515652085;0.0152951973080452;0.04800752924227458;0.0764759865402263;1.0354797116472638;0.034653320133259495;0.001200852596258168;1.0354797116472638;0.09879847619738125;2.6482889382051837;7.412687392469778;7.0186667771530535;0.3999382756488843;0.3759983103670981;1.5917402421227642;0.0;53.74614667142857;86.78182758571428
-0.0285510349750178;0.03430950403738986;0.0479249515652085;0.0183542367696543;0.04830978967214934;0.1029876618741715;0.9366812354498826;0.034635230280571694;0.0011995991765882303;1.0354797116472638;0.09879847619738125;2.427481721544741;7.529355327724957;8.252297734299606;0.2928398700407023;0.481478293511516;1.7303421201376155;0.0;53.7461585;86.78235872857144
-0.0499643112062812;0.02342623177953449;0.0101967982053635;0.0683185479759355;0.04087147211366798;0.1152238197206077;1.0353813031118364;0.03374131441142072;0.0011384762982103475;1.0354797116472638;0.09879847619738125;-0.8463537370577271;5.366666041137038;5.730813244504998;0.2563076958279037;0.5241538758562031;1.9147448710091455;0.0;53.74617667142858;86.78286695714284
-0.0265116753339451;0.022184383769526184;0.0101967982053635;0.0764759865402263;0.041347206946187674;0.1152238197206077;1.003575282136751;0.03339002938749027;0.001114894062497464;1.0354797116472638;0.09879847619738125;-0.8463537370577271;5.544504656905482;5.730813244504998;-0.0329827402627713;0.41308828180199475;1.6791054889148884;0.0;53.746198042857145;86.78333815714286
-0.0112164780258998;0.018320486167801808;0.0101967982053635;0.1029876618741715;0.03289648178401948;0.1152238197206077;1.0147848246067341;0.030378215018884408;0.0009228359477335742;1.0353813031118364;0.09870006766195383;-1.1227806985686966;3.4764978648693194;5.454386282994029;-0.4044460697319266;0.24617898298999377;1.3076421594457333;0.0;53.7462217;86.78377872857143
0.0101967982053635;0.018471208147243616;0.0101967982053635;0.1152238197206077;0.026123180751900912;0.1152238197206077;1.0059589758294796;0.013545216890788555;0.00018347290061850356;1.0353813031118364;0.03922091649945458;-2.3409804249816824;2.257705740569733;4.236186556581043;-0.8270841719518617;0.10834967486636875;0.8850040572257981;30.0;53.74624465714286;86.78419665714286
-0.0183542367696543;0.016319428635750314;0.0101967982053635;0.1080860609768532;0.02775524196185948;0.1152238197206077;0.9961603866123818;0.0060629026165000335;3.675878813716295e-05;1.0147848246067341;0.018624437994352316;-2.3409804249816824;2.5034367433643507;4.236186556581043;-1.19180196647388;0.03548588209290379;0.5202862627037799;0.0;53.74625967142857;86.78466515714285
-0.0244723156928724;0.015839068224736;0.0101967982053635;0.0805547058223717;0.03374420588255931;0.1152238197206077;1.0007943163256727;0.010763647136813641;0.00011585609968583651;1.0265618680409723;0.03040148142859045;-1.8214802366707556;3.744147105299586;4.755686744891969;-1.4375022500969132;0.03101641276350971;0.5957916697190608;0.0;53.74626704285715;86.78512235714287
-0.0305903946160905;0.01855945329218119;0.0101967982053635;0.040787192821454;0.03196907453667106;0.1152238197206077;0.998549285746724;0.019165545652338332;0.00036731814015186466;1.0265618680409723;0.06465783878747666;-1.8214802366707556;3.4392320710272357;4.755686744891969;-1.6488044602187868;0.04358036530914083;0.49847481008121264;0.0;53.74625952857143;86.78561587142858
0.0071377587437544;0.03791796363227071;0.0071377587437544;0.0560823901294993;0.056450210921290905;0.1080860609768532;1.001902232531731;0.021208617746667394;0.00044980546672425506;1.0265618680409723;0.06465783878747666;3.657253612759261;10.478616892476229;9.886261820581;-1.6488044602187868;0.05608610767799824;0.49847481008121264;30.0;53.746179271428566;86.78622315714286
-0.0224329560517997;0.03815227646174979;0.0071377587437544;0.0326297542571632;0.06125842985889278;0.0836137452839808;1.0265618680409723;0.021096457365796947;0.0004450605133868883;1.0265618680409723;0.06465783878747666;3.657253612759261;12.3984989022262;8.643996863909045;-1.6488044602187868;0.0574411734283308;0.49847481008121264;0.0;53.74605454285715;86.78683717142857
-0.0387478331803813;0.03777291004790751;0.0071377587437544;0.0836137452839808;0.05941830517790995;0.0836137452839808;0.9619040292534956;0.022154580448263992;0.0004908254348386012;1.0265618680409723;0.06465783878747666;3.657253612759261;11.771367973886749;8.643996863909045;-1.6488044602187868;0.05698706695856759;0.5960656651148839;0.0;53.74588345714285;86.7874487142857
-0.1142041399000713;0.03748277001267012;0.0071377587437544;-0.0652595085143265;0.06184843554245239;0.0836137452839808;1.0230722602730526;0.025756403903922077;0.0006633923420619725;1.0344680676092293;0.07256403835573366;3.657253612759261;12.683424694120673;8.643996863909045;-1.6711259520535866;0.053009504843053945;0.7519613026813774;0.0;53.745670128571426;86.78805824285713
-0.0591414295911083;0.03240421275568448;-0.020393596410727;-0.0560823901294993;0.055479703622882855;0.0836137452839808;1.0005719623800116;0.027303003375989364;0.0007454539933492866;1.0344680676092293;0.07256403835573366;3.657253612759261;10.296612435771472;8.643996863909045;-2.033293919815974;0.0772406106763118;0.8000308073426705;0.0;53.74540651428572;86.78861382857143
-0.0311002345263587;0.03066939870943563;-0.020393596410727;-0.0367084735393086;0.054982174036044364;0.0836137452839808;0.9841480608294473;0.031128411498886087;0.0009689780024439835;1.0344680676092293;0.07366721532826093;4.809393216335181;10.463760568619687;9.796136467484967;-2.081766979363426;0.14644318555944033;0.9807739848632071;0.0;53.74509007142857;86.78917144285712
-0.0448659121035994;0.030880557862568558;-0.020393596410727;-0.0571020699500356;0.019116649608871092;-0.0224329560517997;1.0344680676092293;0.026586757336994043;0.0007068556656962065;1.0344680676092293;0.07366721532826093;4.809393216335181;1.2937176868392666;3.560572579544364;-2.081766979363426;0.18144672946654375;0.9807739848632071;0.0;53.74474241428572;86.78964298571428
-0.020393596410727;0.012826347757927617;-0.020393596410727;-0.0224329560517997;0.018225651985683846;-0.0224329560517997;1.029303520375814;0.025296686114893833;0.0006399223283954624;1.0344680676092293;0.07366721532826093;4.809393216335181;1.207546152447798;3.560572579544364;-2.081766979363426;0.17792485765618005;0.9807739848632071;0.0;53.744376814285715;86.79003441428571
-0.0428265524625267;0.01998125235417832;-0.020393596410727;-0.0805547058223717;0.0180674023111673;-0.0224329560517997;0.9608008522809683;0.037217414724783106;0.0013851359587965023;1.072994399528916;0.11219354724794761;4.809393216335181;1.1870163386688766;3.560572579544364;-2.2448701253336707;0.14561818462623077;1.0456279882758732;30.0;53.74400697142857;86.79041428571428
-0.0356887937187723;0.023455802366088803;-0.020393596410727;-0.0448659121035994;0.017913283040230005;-0.0224329560517997;0.9978753647272688;0.036750691566823084;0.0013506133306397615;1.072994399528916;0.11219354724794761;4.809393216335181;1.1561419870442362;3.560572579544364;-2.423087254734964;0.09793613981651517;0.9419859180045762;0.0;53.74363355714286;86.79076132857143
-0.0275313551544814;0.027534052588001394;-0.020393596410727;-0.0530233506678902;0.01914770415693198;-0.0224329560517997;0.9980170613252475;0.03615152262849108;0.0013069325883583026;1.072994399528916;0.11219354724794761;4.809393216335181;1.3112418003471795;3.560572579544364;-2.8333247271586446;0.03697110204886805;0.5317484455808956;0.0;53.74325475714286;86.79108104285714
-0.0815743856429081;0.026950649393289876;-0.023452635872336;-0.0520036708473539;0.014646994613654015;-0.0346691138982359;1.072994399528916;0.03727912883376586;0.0013897334466045127;1.072994399528916;0.11219354724794761;4.809393216335181;0.8090094822242015;2.85534381048042;-2.845576074380174;0.035733123371562696;0.5194970983593663;30.0;53.74288321428571;86.79135315714286
-0.0764759865402263;0.026635345220278054;-0.023452635872336;-0.0652595085143265;0.012108027008298492;-0.0305903946160905;1.0428912139317315;0.030035147609528284;0.0009021100919261526;1.072994399528916;0.08616715001274611;3.5876598317270023;0.448811338233752;1.8671935859775322;-2.675744953782698;0.06754056663588474;0.6893282189568422;0.0;53.74251837142857;86.79157345714286
-0.0856531049250535;0.027043494010691265;-0.023452635872336;-0.0346691138982359;0.012290662160053933;-0.0305903946160905;1.0167496391644282;0.031284917722881125;0.0009787460769274414;1.072994399528916;0.08616715001274611;3.5876598317270023;0.47462352763652577;1.8671935859775322;-2.656396300001238;0.09466365371026435;0.7086768727383022;0.0;53.742157642857144;86.79175398571428
-0.023452635872336;0.027250953991571097;-0.023452635872336;-0.0550627103089629;0.018180772873019814;-0.0305903946160905;0.9868272495161698;0.02868867545495553;0.0008230400993597678;1.072994399528916;0.08616715001274611;4.544153094723893;0.9929274819905082;2.823686848974423;-2.656396300001238;0.10138919245153415;0.7086768727383022;0.0;53.74184175714286;86.79186598571428
-0.0606709493219129;0.0267197901387934;-0.023452635872336;-0.0305903946160905;0.018824336861626444;-0.0305903946160905;1.0188888795385929;0.03451650795497966;0.0011913893214061742;1.0567002542905755;0.0975023462381941;4.544153094723893;1.0368513849119008;2.823686848974423;-2.656396300001238;0.08585829028509566;0.7086768727383022;0.0;53.74153298571429;86.79195584285715
-0.0326297542571632;0.026149465078760193;-0.023452635872336;-0.0418068726419904;0.021087083877837278;-0.0163148771285816;1.0567002542905755;0.033946678178048285;0.0011523769593239797;1.0567002542905755;0.0975023462381941;4.544153094723893;1.3390706052837889;3.5990759375725205;-2.656396300001238;0.05585176514824383;0.6699545198759567;0.0;53.74123312857143;86.79205095714285
-0.0938105434893443;0.03147645832904888;-0.0040787192821454;-0.0825940654634444;0.02422831841546646;-0.0112164780258998;1.0424948370527094;0.03404968966039867;0.00115938136596946;1.0567002542905755;0.0975023462381941;4.544153094723893;1.7881657147069674;3.900412753302655;-2.656396300001238;0.0418730963767843;0.5561502360369803;0.0;53.74090841428572;86.79216875714285
-0.07545630671969;0.030741154235622833;-0.0040787192821454;-0.0387478331803813;0.027498065051268047;0.0020393596410727;0.9591979080523814;0.0367881004022875;0.0013533643312087856;1.0567002542905755;0.0975023462381941;4.544153094723893;2.2881160699974754;4.654934441737867;-2.656396300001238;0.060570456812956495;0.6102578523272104;60.0;53.74059824285714;86.79229744285715
-0.0622004690527174;0.03306331051447572;-0.0040787192821454;-0.0163148771285816;0.030944424646030564;0.0061180789232181;0.9891425109193563;0.03687069366770228;0.0013594480515375408;1.0567002542905755;0.0975023462381941;4.544153094723893;2.9265687171589945;4.891255603126004;-2.656396300001238;0.05003793875189763;0.6102578523272104;60.0;53.74031078571429;86.79244884285716
-0.0040787192821454;0.03178482439683658;-0.0040787192821454;-0.0112164780258998;0.030742764795250812;0.0061180789232181;0.9983378880965655;0.033016443868044754;0.0010900855656917501;1.0547513303998217;0.09555342234744035;4.544153094723893;2.9059688895714206;4.891255603126004;-2.806943894157444;0.024304255475091793;0.4597102581710044;60.0;53.7400368;86.79262834285714
-0.029060874885286;0.03804197127048598;0.0193739165901906;0.0020393596410727;0.02118692955374084;0.0142755174875089;1.0547513303998217;0.033322855388612974;0.0011104126912504129;1.0547513303998217;0.09555342234744035;2.3151547114334785;1.4726694665798978;3.0983118621650556;-2.7088134303091067;0.03449632879934763;0.5578407220193418;0.0;53.739780014285714;86.79282504285713
-0.0836137452839808;0.036260814203038415;0.0193739165901906;0.0061180789232181;0.03810731570068393;0.0142755174875089;1.0099098586432302;0.04025197196556274;0.0016202212471164486;1.0547513303998217;0.11973607074807269;5.946635910739781;5.320430113844687;6.729793061471359;-2.4474570817796577;0.08896387799900522;0.8191970705487908;0.0;53.739541714285714;86.7930438857143
-0.0499643112062812;0.03377005656117467;0.0193739165901906;-0.0392576730906495;0.038207228645618777;0.0142755174875089;1.0287817739489105;0.03984409558062829;0.0015875519526382428;1.0547513303998217;0.11973607074807269;5.946635910739781;5.350042889171895;6.729793061471359;-2.2609918854909967;0.16101223182738544;1.0056622668374517;0.0;53.73932212857143;86.79327412857143
0.0193739165901906;0.052738602453168526;0.0193739165901906;0.0142755174875089;0.03844138828621265;0.0142755174875089;1.0444294244397905;0.03980730940760933;0.001584621882273142;1.0547513303998217;0.11973607074807269;5.946635910739781;5.41657722897213;6.729793061471359;-2.092714449007912;0.21245691572986558;1.1739397033205363;60.0;53.73915637142857;86.79349237142857
-0.0081574385642908;0.0532483792766265;0.0193739165901906;-0.0968695829509534;0.04181146154148297;0.0275313551544814;0.935015259651749;0.035460144153951934;0.0012574218234190514;1.0444294244397905;0.10941416478804145;5.946635910739781;6.313412748692598;7.5010394210169355;-1.9331114651251204;0.21926934125146644;1.2418244849260796;60.0;53.73899494285714;86.79370031428572
-0.0356887937187723;0.05165211638516599;0.0193739165901906;-0.0122361578464362;0.04263028838169067;0.0275313551544814;0.9949034350025099;0.03570207653400468;0.0012746382688399278;1.0444294244397905;0.10941416478804145;5.946635910739781;6.488186838815675;7.5010394210169355;-1.787233642472788;0.1913991541567643;1.2344292707812592;0.0;53.73884532857143;86.79385058571428
-0.1417354950545528;0.052586883046401627;0.0193739165901906;-0.0061180789232181;0.043194920089133206;0.0275313551544814;1.0234421261165276;0.03504786017659332;0.0012283525029580364;1.0444294244397905;0.10941416478804145;5.946635910739781;6.7228739287263055;7.5010394210169355;-1.660131689681124;0.13855476538494135;1.0486817406279827;0.0;53.73871551428572;86.7939402
-0.078515346181299;0.0476306445839825;-0.0050983991026817;0.0275313551544814;0.049429811622577646;0.0509839910268175;1.0149385027345468;0.03296225438624455;0.0010865102142234978;1.0342057024607665;0.09919044280901745;5.946635910739781;8.567232664641834;8.77233296480318;-1.5568563153803374;0.10479863562589604;0.8906007663993203;0.0;53.73861982857143;86.79397617142857
-0.0448659121035994;0.042889080705046025;-0.0050983991026817;-0.0520036708473539;0.03490816974558364;0.0509839910268175;0.9955402033545787;0.019100955923138763;0.0003648465171776898;1.0342057024607665;0.05349050051825455;2.994301552764538;3.904191639090738;5.819998606827937;-1.4824582282006429;0.08188191257076993;0.7785336572903538;0.0;53.73854965714286;86.79397182857143
-0.0744366268991536;0.05403077553416254;0.0254919955134087;0.0050983991026817;0.03404071254047898;0.0509839910268175;0.9807152019425119;0.019689294775487434;0.00038766832875603675;1.0342057024607665;0.05349050051825455;2.994301552764538;3.7228478851724187;5.819998606827937;-1.441988136772248;0.05862086930108834;0.6507263122356641;30.0;53.73849892857144;86.79395035714286
-0.0050983991026817;0.04676506734090644;0.0346691138982359;0.0509839910268175;0.07777864035978468;0.0509839910268175;1.0342057024607665;0.02970293747927794;0.0008822644948978942;1.0342057024607665;0.08947895218802493;10.44717079817867;21.688390882996902;13.272867852242069;-1.440496749725365;0.0357046066525984;0.49261471539975554;0.0;53.73845865714286;86.79391008571429
-0.0565922300397675;0.04154774476784124;0.0346691138982359;0.0374732334047109;0.07763145279856437;0.0509839910268175;1.0204101914196584;0.029296402991737296;0.0008582792282542739;1.0342057024607665;0.08947895218802493;10.44717079817867;21.616303760969178;13.272867852242069;-1.440496749725365;0.01685981078977923;0.34673689274742303;0.0;53.73844164285715;86.79385649999999
0.0254919955134087;0.040140363615470215;0.0346691138982359;0.020393596410727;0.08336153522461626;0.0876924645661262;0.9906471530674585;0.029421991149617296;0.0008656535632081585;1.0342057024607665;0.08947895218802493;10.44717079817867;24.904371636927365;15.457231448996875;-1.440496749725365;0.006527438291800276;0.2196349399557591;0.0;53.73843214285715;86.79383237142858
0.0346691138982359;0.030797473709051428;0.0346691138982359;-0.171306209850107;0.08566739240155322;0.0876924645661262;0.9447267502727416;0.030286286006274626;0.0009172591200538663;1.0342057024607665;0.08947895218802493;10.44717079817867;26.136964890348622;15.457231448996875;-1.440496749725365;0.009862716152515268;0.27990515145052464;0.0;53.73842327142857;86.79384178571429
-0.0066279188334862;0.03870612269277256;0.0346691138982359;0.0257469154685428;0.08547240019678197;0.0876924645661262;1.0103427214279779;0.02729130617962436;0.0007448153929900028;1.0204101914196584;0.07568344114691683;10.44717079817867;26.072959920218747;15.457231448996875;-1.440496749725365;0.032735141780462156;0.4848356682317956;30.0;53.7384047;86.79387441428571
-0.0010196798205363;0.039376361729349135;0.0346691138982359;0.0876924645661262;0.08411378142413108;0.0876924645661262;1.0041428730804016;0.024998784919303838;0.000624939247441613;1.0169720343541078;0.07224528408136621;10.44717079817867;25.226917425569926;15.457231448996875;-1.440496749725365;0.08172848299886261;0.753998432545631;30.0;53.738381957142856;86.79391384285714
-0.0275313551544814;0.039376361729349135;0.0346691138982359;-0.0438462322830631;0.08411378142413108;0.0876924645661262;0.973133080812273;0.024998784919303838;0.000624939247441613;1.0169720343541078;0.07224528408136621;10.44717079817867;25.226917425569926;15.457231448996875;-1.440496749725365;0.08172848299886261;0.753998432545631;30.0;53.738381957142856;86.79391384285714
-0.0672988681553992;0.039376361729349135;0.0346691138982359;0.0489446313857448;0.08411378142413108;0.0876924645661262;1.0169720343541078;0.024998784919303838;0.000624939247441613;1.0169720343541078;0.07224528408136621;10.44717079817867;25.226917425569926;15.457231448996875;-1.440496749725365;0.08172848299886261;0.753998432545631;0.0;53.738381957142856;86.79391384285714
-0.0601611094116447;0.039376361729349135;0.0346691138982359;-0.020393596410727;0.08411378142413108;0.0876924645661262;0.9992680153915032;0.024998784919303838;0.000624939247441613;1.0169720343541078;0.07224528408136621;10.44717079817867;25.226917425569926;15.457231448996875;-1.440496749725365;0.08172848299886261;0.753998432545631;0.0;53.738381957142856;86.79391384285714
-0.046395431834404;0.043268074243061484;0.0214132762312633;-0.0285510349750178;0.05284235673552804;0.0836137452839808;1.0170611066017625;0.032820197334723855;0.0010771653530902148;1.0665158765865375;0.09047986505872319;2.5148342186948307;8.759035188968381;7.2209518328118945;-2.441274045385573;0.39744006655697434;1.7108833045305674;0.0;53.7512298;86.76618202857142
-0.0897318242071989;0.043268074243061484;0.0214132762312633;0.0652595085143265;0.05284235673552804;0.0836137452839808;1.062199054597191;0.032820197334723855;0.0010771653530902148;1.0665158765865375;0.09047986505872319;2.5148342186948307;8.759035188968381;7.2209518328118945;-2.441274045385573;0.39744006655697434;1.7108833045305674;0.0;53.7512298;86.76618202857142
-0.1024778219639033;0.043268074243061484;0.0214132762312633;0.0836137452839808;0.05284235673552804;0.0836137452839808;1.0191215204529893;0.032820197334723855;0.0010771653530902148;1.0665158765865375;0.09047986505872319;2.5148342186948307;8.759035188968381;7.2209518328118945;-2.441274045385573;0.39744006655697434;1.7108833045305674;0.0;53.7512298;86.76618202857142
-0.0795350260018354;0.043268074243061484;0.0214132762312633;-0.0163148771285816;0.05284235673552804;0.0836137452839808;0.9964812894488393;0.032820197334723855;0.0010771653530902148;1.0665158765865375;0.09047986505872319;2.5148342186948307;8.759035188968381;7.2209518328118945;-2.441274045385573;0.39744006655697434;1.7108833045305674;0.0;53.7512298;86.76618202857142
0.0214132762312633;0.046630945180252674;0.0214132762312633;-0.0418068726419904;0.05123296190037422;0.0836137452839808;1.0136309830990091;0.03442989455619481;0.001185417639150693;1.0665158765865375;0.09047986505872319;2.5148342186948307;8.250667775605509;7.2209518328118945;-2.4150322343331694;0.2083817637380879;1.2211302320240556;0.0;53.7512029;86.7664221
-0.023452635872336;0.04461900319918879;0.0214132762312633;-0.0428265524625267;0.04845778631368086;0.0836137452839808;0.9760360115278143;0.029013360214968642;0.0008417750709635253;1.0665158765865375;0.09047986505872319;2.610200601151012;7.498452348154095;7.316318215268076;-2.4150322343331694;0.09267789479251072;0.8097184770576513;0.0;53.75117181428571;86.76666530000001
-0.0713775874375446;0.04323602190542038;0.0214132762312633;0.0356887937187723;0.031243978875155808;0.0356887937187723;1.0665158765865375;0.038023388070186466;0.0014457780403359982;1.0665158765865375;0.1253949025790615;2.610200601151012;3.1349914819753137;4.527845818056264;-2.4150322343331694;0.0317016686963646;0.4937068040805208;60.0;53.75114222857143;86.76691365714285
-0.0101967982053635;0.03953854641625255;0.0214132762312633;-0.0112164780258998;0.031635321400498885;0.0356887937187723;0.994303382020194;0.04531854788904656;0.002053770782771806;1.0665158765865375;0.1253949025790615;2.610200601151012;3.2219306067180873;4.527845818056264;-2.4150322343331694;0.009187488083453675;0.2639121664894275;60.0;53.75111402857143;86.76718534285713
-0.0163148771285816;0.03242445166731267;-0.0101967982053635;-0.0453757520138676;0.03581810042522199;0.0469052717446721;0.9963749855266983;0.04597758837637391;0.002113938632907273;1.0665158765865375;0.1253949025790615;2.610200601151012;4.134254819492351;5.225202477465077;-2.4150322343331694;0.011230949245264243;0.2980507794889067;60.0;53.751085728571425;86.76747887142858
-0.0963597430406852;0.03166817099211262;-0.0101967982053635;0.0142755174875089;0.03103569131057832;0.0469052717446721;0.941120974007476;0.04356369097492606;0.0018977951713588538;1.0665158765865375;0.1253949025790615;2.610200601151012;3.0492211866699788;5.225202477465077;-2.4150322343331694;0.026288842130964826;0.42740274726957894;60.0;53.75104737142858;86.76779525714286
-0.0397675130009177;0.03166817099211262;-0.0101967982053635;-0.0020393596410727;0.02952735917751772;0.0469052717446721;1.0632522780324787;0.03884282727047639;0.001508765230364064;1.0632522780324787;0.12213130402500272;2.610200601151012;2.8376739179891577;5.225202477465077;-2.4150322343331694;0.04517915034741286;0.5603243310072159;60.0;53.7509961;86.76812067142858
-0.0193739165901906;0.02824045031590142;-0.0163148771285816;0.0469052717446721;0.029611498978694757;0.0469052717446721;1.0280709091692761;0.03944928221406821;0.0015562458672051984;1.0632522780324787;0.12213130402500272;2.610200601151012;2.856553782426106;5.225202477465077;-2.438275272253854;0.05613770232176232;0.6214896998405792;60.0;53.750936357142855;86.76846687142857
-0.0458855919241358;0.029412694281746518;-0.0193739165901906;-0.0071377587437544;0.026608610484872793;0.0469052717446721;1.015643587024739;0.041150101066729707;0.0016933308178020692;1.0632522780324787;0.12213130402500272;1.9880970888511031;2.336687078588755;4.6030989651651675;-2.501820112544392;0.06885496474501536;0.7344424442968278;0.0;53.7508721;86.7688231857143
-0.0713775874375446;0.030877952339607887;-0.0193739165901906;0.0254919955134087;0.03041671787633476;0.0469052717446721;0.9767393723517652;0.036105730722847354;0.001303623791030763;1.0632522780324787;0.09330090930964541;2.069371203448876;2.966008812968744;4.68437307976294;-2.596483708601544;0.08033383335537185;0.7993675937803864;0.0;53.75077974285715;86.7692026
-0.0458855919241358;0.029860630696773187;-0.0193739165901906;-0.0122361578464362;0.031111973354931106;0.0469052717446721;0.9830993275228053;0.02926645747294968;0.0008565255330159721;1.0448265601002333;0.07487519137740006;2.069371203448876;3.09773587959783;4.68437307976294;-2.713083013822076;0.06473096519429637;0.6827682885598545;0.0;53.75066532857142;86.76956727142858
-0.095849903130417;0.024285470383303524;-0.0458855919241358;-0.0336494340776996;0.021939765718861054;0.0254919955134087;0.9699513687228333;0.0293142801234866;0.0008593270191582415;1.0448265601002333;0.07487519137740006;2.069371203448876;1.5840194937738186;3.5649079475601857;-2.8424349816027483;0.03885739083179302;0.5534163207791822;0.0;53.75052601428571;86.76990338571429
-0.1029876618741715;0.03226045832883623;-0.0122361578464362;-0.037728153359845;0.030486632113631916;0.0438462322830631;1.0448265601002333;0.03446947193101678;0.0011881444952031536;1.0448265601002333;0.10052486672610128;2.069371203448876;3.1819091039528025;4.730710962410644;-2.8193108635736785;0.04125809957102253;0.576540438808252;0.0;53.750363400000005;86.77020157142859
-0.0520036708473539;0.042970821909113055;0.0091771183848271;-0.020393596410727;0.029853168337367165;0.0438462322830631;1.0252813410998294;0.034267365389850514;0.001174252330761525;1.0448265601002333;0.10052486672610128;2.069371203448876;3.038621674725316;4.730710962410644;-2.640565696351815;0.07571941936826287;0.7552856060301156;0.0;53.75014474285714;86.77048760000001
-0.0876924645661262;0.043742787217390514;0.0091771183848271;0.0040787192821454;0.032042555201239706;0.0438462322830631;0.9767276626928919;0.03403643614008859;0.0011584789851183288;1.0448265601002333;0.10052486672610128;2.069371203448876;3.5030115086757596;4.730710962410644;-2.2445467642910035;0.17964978630758854;1.151304538090927;0.0;53.749866014285715;86.77077572857142
-0.0122361578464362;0.04065953306286709;0.0091771183848271;0.0438462322830631;0.03861791927490017;0.0438462322830631;0.9443016933741321;0.03734123835869706;0.0013943680821610286;1.046603858194947;0.102302164820815;3.742724271991291;4.844151794334018;6.404064030953059;-1.796261302975211;0.3511396321833353;1.5995899994067195;0.0;53.74956517142857;86.7710454
0.0091771183848271;0.035140052168187406;0.0091771183848271;0.0214132762312633;0.040458722918796784;0.0438462322830631;1.0005771581294225;0.0328639709047847;0.001080040583630535;1.046603858194947;0.102302164820815;3.742724271991291;5.391531362152162;6.404064030953059;-1.7125678149376582;0.40513420728842836;1.6160112952303787;30.0;53.7492608;86.77128594285713
-0.0326297542571632;0.04161338446593627;0.0091771183848271;-0.0356887937187723;0.0406978730365557;0.0438462322830631;0.9933262144026924;0.03104742761927689;0.0009639427617742373;1.046603858194947;0.102302164820815;3.742724271991291;5.461081021482116;6.404064030953059;-1.3516518832513185;0.4373457617726209;1.8179573674925844;0.0;53.74894877142857;86.77150785714286
-0.0214132762312633;0.03732508367399016;0.0091771183848271;-0.0683185479759355;0.042963331838665776;0.0438462322830631;1.046603858194947;0.03008555389038715;0.0009051405528913894;1.046603858194947;0.102302164820815;3.742724271991291;6.160531174345614;6.404064030953059;-1.025253844243212;0.43533568798673866;1.7940570193304666;0.0;53.74863341428572;86.77170815714285
-0.0774956663607627;0.04149005703325032;0.0142755174875089;-0.0520036708473539;0.030412648151289922;0.0214132762312633;0.994497863927892;0.02015186526846863;0.0004060976737985123;1.046603858194947;0.05492499681663898;3.742724271991291;2.953112729711258;4.969000542121696;-0.8314270817922244;0.418167326861054;1.8091386145595907;0.0;53.74831495714285;86.77189804285715
-0.0978892627714897;0.043816297906142894;0.0214132762312633;-0.0275313551544814;0.014761478612117736;-0.0275313551544814;1.008504582509304;0.02024019132522844;0.0004096653448818525;1.046603858194947;0.05492499681663898;3.742724271991291;0.6632585923089295;2.1784017328795264;-0.7677516277894643;0.30550924169207455;1.4767951365015393;0.0;53.7480285;86.7720541
-0.0336494340776996;0.05006281288875568;0.0316100744366268;-0.0632201488732537;0.015585399868104227;-0.0275313551544814;0.9916788613783081;0.01988363761705088;0.00039535904488620073;1.046603858194947;0.05492499681663898;3.742724271991291;0.7592505428796255;2.1784017328795264;-0.7074109825112828;0.20515918512859269;1.0888503204639282;0.0;53.74778772857143;86.77216441428571
0.0142755174875089;0.052172391702902825;0.0316100744366268;-0.0509839910268175;0.012618629741268001;-0.0275313551544814;1.0230900453444882;0.01610568329080237;0.00025939303426363074;1.0318570327570318;0.040178171378723704;3.6551205284110297;0.5475316629946843;2.090797989299265;-0.7074109825112828;0.13451239385327565;1.0051568324263753;0.0;53.74751535714285;86.77233821428571
0.0214132762312633;0.04731253671671935;0.0316100744366268;-0.0397675130009177;0.012512241268768582;-0.0275313551544814;0.999287784858825;0.014727002719114415;0.00021688460908880335;1.0318570327570318;0.040178171378723704;3.6551205284110297;0.529341504100603;2.090797989299265;-0.7074109825112828;0.050133039130040725;0.6442409007400357;0.0;53.74725561428571;86.77253927142858
0.0316100744366268;0.03351970083677899;0.0438462322830631;-0.0305903946160905;0.01353855721121164;-0.0305903946160905;1.0247031359862027;0.016143399262946403;0.0002606093397628985;1.0318570327570318;0.040178171378723704;3.6551205284110297;0.593467883584817;1.9444192708480514;-0.7074109825112828;0.03905219388875531;0.5525702397335782;0.0;53.74698597142857;86.7728438
0.0152951973080452;0.033725860058308604;0.0438462322830631;-0.0418068726419904;0.022119566026908625;-0.0305903946160905;1.0318570327570318;0.014081307120970011;0.00019828321023508073;1.0318570327570318;0.03256924789820681;5.376205525277966;1.6125260357574156;3.6655042677149874;-0.7074109825112828;0.10145685707501577;0.8834285099876255;0.0;53.74673272857142;86.77319398571429
-0.0458855919241358;0.03551077282781468;0.0438462322830631;-0.0336494340776996;0.026815280609480293;-0.0305903946160905;1.0059951507524498;0.01538505830279045;0.0002367000189802614;1.0318570327570318;0.03422551663329787;5.376205525277966;2.405460546647713;3.6655042677149874;-0.7074109825112828;0.1567390679117958;0.9998664893498909;0.0;53.746507342857136;86.773583
0.0438462322830631;0.036549647963422485;0.0438462322830631;-0.0642398286937901;0.031743713025684225;-0.0305903946160905;1.0307757655627867;0.017854888562336586;0.0003187970455734578;1.0318570327570318;0.045355934412984245;6.290244322550418;3.4736749203514545;4.57954306498744;-0.7074109825112828;0.17199814103767316;1.0435288806030747;30.0;53.746311842857146;86.77399824285715
-0.0346691138982359;0.03568601897193875;0.0438462322830631;-0.0938105434893443;0.028695471103940547;-0.0336494340776996;1.0012347222264346;0.01685526642955543;0.0002841000064112982;1.0318570327570318;0.045355934412984245;6.290244322550418;2.8426942663403696;4.373405810025707;-0.8691892007338671;0.1408869702448764;0.9926480726298714;0.0;53.74614921428571;86.77442807142857
-0.0254919955134087;0.032642839042023954;0.0438462322830631;-0.0907515040277353;0.027251181100833806;-0.0336494340776996;0.9976315161237339;0.014802421846530451;0.00021911169252264198;1.0307757655627867;0.04427466721873918;6.290244322550418;2.4772853641716703;4.373405810025707;-1.095456279850534;0.10761534255117561;0.9211534929440119;0.0;53.746058157142855;86.77480147142857
-0.0356887937187723;0.03810374253584231;0.0438462322830631;-0.1080860609768532;0.027464734597030534;-0.0642398286937901;0.9865010983440475;0.016166272509690063;0.00026134836685756067;1.0307757655627867;0.04427466721873918;8.945707985053085;2.6764655141224085;5.372614801140606;-1.259981222244861;0.09333530100656383;0.9507635696952987;0.0;53.74599655714286;86.77515312857143
-0.0540430304884266;0.019317291443506652;-0.0254919955134087;-0.092790863668808;0.03196984889689179;-0.0907515040277353;1.0070668886575973;0.01297746672511241;0.0001684146426013998;1.0214058248151585;0.03490472647111098;9.642225000821156;3.3356271145294816;4.422987106838941;-1.5908394924989082;0.09898355837750072;0.8942029830581522;0.0;53.74598404285714;86.7754149
-0.0392576730906495;0.018504349392804754;-0.0254919955134087;-0.1111451004384623;0.03632271794325594;-0.0907515040277353;1.0214058248151585;0.013304660355418819;0.0001770139871730532;1.0214058248151585;0.03490472647111098;9.928813762101928;4.2643310731522766;4.709575868119713;-1.7072774718611736;0.12500191866615376;0.8931068278778103;0.0;53.74599211428572;86.77564605714288
-0.0805547058223717;0.014962613264412143;-0.0356887937187723;-0.1539716529009891;0.034169237423003845;-0.092790863668808;0.9901810372861769;0.013711238755398168;0.00018799806820753273;1.0214058248151585;0.03490472647111098;9.928813762101928;3.7440762980182183;4.642098000664787;-1.7509398631143576;0.12082704569691409;0.8494444366246263;0.0;53.746011942857145;86.77585605714286
-0.0632201488732537;0.014755188298365534;-0.0367084735393086;-0.1702865300295707;0.03296113658582939;-0.092790863668808;1.016664246938297;0.010783360920241142;0.00011628087273618392;1.0214058248151585;0.031224787528981612;9.928813762101928;3.6054458485563963;4.642098000664787;-1.8618372733637385;0.08008770325434648;0.7385470263752454;0.0;53.746039242857144;86.77605158571428
-0.0530233506678902;0.016906182480235316;-0.0326297542571632;-0.1743652493117161;0.021952174132558164;-0.1111451004384623;1.0112557344743065;0.01074006632929554;0.00011534902475766777;1.0214058248151585;0.031224787528981612;9.928813762101928;1.6347556001962171;3.681757145753566;-1.9845655432368;0.06426766866756767;0.615818756502184;0.0;53.746064114285716;86.77623371428572
-0.0540430304884266;0.017378772371700758;-0.0326297542571632;-0.1651881309268889;0.008111789417078758;-0.1539716529009891;1.0173022142801287;0.00946457163156847;8.957811616909063e-05;1.0173022142801287;0.02712117699395178;9.928813762101928;0.19011833777526518;1.034091418543854;-1.50527146806276;0.1531061783304846;1.095112831676224;0.0;53.746083271428574;86.7763955
-0.0367084735393086;0.014938189222825225;-0.020393596410727;-0.1723258896706434;0.013378527883851328;-0.1356174161313347;1.0016484649317663;0.00874920729003278;7.654862820396273e-05;1.0173022142801287;0.02481007257326162;9.928813762101928;0.5247243664252064;2.075158194214665;-1.1805961878769282;0.3166854206349879;1.4197881118620557;0.0;53.74609987142857;86.77654741428572
-0.0326297542571632;0.014035928489774939;-0.0183542367696543;-0.1600897318242072;0.012869220389841016;-0.1356174161313347;1.0105418011258611;0.00796420034290167;6.342848710187507e-05;1.0173022142801287;0.02481007257326162;9.928813762101928;0.4934539849374125;2.075158194214665;-0.6586003091573366;0.5578869348884825;1.9417839905816474;0.0;53.7461146;86.77669745714286
-0.0356887937187723;0.014392956580903851;-0.0112164780258998;-0.1560110125420618;0.012262430905342575;-0.1356174161313347;1.009000361494034;0.007936348532089799;6.29856280228039e-05;1.0173022142801287;0.02481007257326162;9.906583040366092;0.4626690973998466;2.052927472478829;-0.3218413205649175;0.7201783784650285;2.245418477197193;0.0;53.74612765714286;86.77685314285714
-0.020393596410727;0.016077962964717852;0.0081574385642908;-0.1356174161313347;0.013551350990709024;-0.1356174161313347;0.9924921417068671;0.006470089274135411;4.186205521528209e-05;1.0109399071910654;0.018447765484198353;9.906583040366092;0.5886397043273038;2.0892892848943445;0.1328515790969926;0.811953773877334;2.4989805932952542;0.0;53.746138457142855;86.77701388571428
-0.0183542367696543;0.017202667897903635;0.0081574385642908;-0.1600897318242072;0.015536081376059123;-0.1182828591822167;1.0061553383487718;0.006357424610628124;4.041684767982016e-05;1.0109399071910654;0.018447765484198353;9.155261756279977;0.7523758350242907;2.384312584969231;0.4414209735242204;0.7777149167031423;2.42598651676102;0.0;53.746145757142855;86.77718575714286
-0.0112164780258998;0.028924041725496563;0.0530233506678902;-0.1458142143366982;0.01601316331091468;-0.1182828591822167;1.0109399071910654;0.006060964194110833;3.6735286962293574e-05;1.0109399071910654;0.018447765484198353;9.155261756279977;0.8088059681878011;2.384312584969231;0.7800956804579855;0.7090759016496616;2.2853671485207454;0.0;53.746151328571436;86.77737052857142
0.0081574385642908;0.025891158362852187;0.0530233506678902;-0.1366370959518711;0.014562241011210167;-0.1182828591822167;1.004576635947141;0.006408097948990344;4.106371932385426e-05;1.0109399071910654;0.018447765484198353;9.155261756279977;0.6691267747783289;2.384312584969231;1.0930305604174426;0.6558659996544005;2.2736267482943706;0.0;53.74615697142857;86.77756268571429
0.0061180789232181;0.023376776096394995;0.0530233506678902;-0.1182828591822167;0.015129205573546231;-0.1182828591822167;1.003243175471242;0.0073831783829436315;5.4511323034366136e-05;1.0109399071910654;0.02212068076898721;9.155261756279977;0.7478919791443377;2.384312584969231;1.2086188171171135;0.4985317230547264;1.86721912627445;0.0;53.746162057142854;86.77775428571428
0.0530233506678902;0.01998558822745579;0.0530233506678902;-0.1213418986438258;0.014113320160778951;-0.1182828591822167;1.0009465067835235;0.007335562021682453;5.381047017394996e-05;1.0109399071910654;0.02212068076898721;8.924181833455103;0.6537650925042707;2.153232662144357;1.2086188171171135;0.34471990376040934;1.530460137682031;0.0;53.74616642857143;86.77794517142856
0.0209034363209952;0.018662873459285637;0.0530233506678902;-0.1274599775670439;0.013829820119596294;-0.1182828591822167;0.9949596061024072;0.0061311204540508155;3.759063802208028e-05;1.0056964102591797;0.01687718383710146;8.924181833455103;0.6480365482718378;2.153232662144357;1.2086188171171135;0.1719649354353282;1.0757672380201209;0.0;53.746168714285716;86.77813762857143
0.0163148771285816;0.017190071405185952;0.0530233506678902;-0.1458142143366982;0.01401121422096621;-0.1182828591822167;0.9888192264220782;0.005821660017513514;3.389172535951545e-05;1.0056964102591797;0.01687718383710146;8.924181833455103;0.6673725249494479;2.153232662144357;1.2086188171171135;0.074583284426513;0.7671978435928931;0.0;53.746170000000006;86.77832542857143
0.0265116753339451;0.014978013017583404;0.0530233506678902;-0.1560110125420618;0.016914874581957364;-0.1052819414703783;1.0056964102591797;0.006071805378220228;3.686682055098409e-05;1.0056964102591797;0.01687718383710146;8.924181833455103;0.9389764088986471;2.8352477301756345;1.2086188171171135;0.0426948124607394;0.5336338149601542;0.0;53.74617242857143;86.77851071428572
0.0489446313857448;0.018063034283922;0.0489446313857448;-0.1254206179259712;0.028200920382330092;-0.0723972672580809;1.0032623484245127;0.005930090886423019;3.516597792123735e-05;1.0056964102591797;0.01687718383710146;8.924181833455103;2.6335310657447306;4.763654064227498;1.2086188171171135;0.0867288467350898;0.7943093538093924;0.0;53.746174357142856;86.77871012857142
0.0356887937187723;0.025088147405380762;0.0489446313857448;-0.1396961354134801;0.037624788868187806;-0.058121749770572;0.999543192020152;0.007026872170587479;4.9376932501776794e-05;1.008373639689385;0.01955441326730678;8.924181833455103;4.734003570809121;5.619873270731697;1.2086188171171135;0.16352455493163853;1.0600142470670444;0.0;53.74617031428571;86.77893648571428
0.017589476904252;0.02518417234543522;0.0489446313857448;-0.1052819414703783;0.044779026902330495;-0.0356887937187723;0.9925514282425114;0.007040140385515537;4.9563576647766856e-05;1.008373639689385;0.019606989843064415;8.924181833455103;6.580532856515479;6.855684162003311;1.1864360175638584;0.23585245678373057;1.315922314987002;0.0;53.74616104285714;86.77922344285716
-0.0091771183848271;0.02487782686274167;0.0489446313857448;-0.0723972672580809;0.04598458695516327;-0.0173345569491179;0.9978795325614565;0.009202972787431313;8.469470812620126e-05;1.008373639689385;0.027275253004254485;8.033957502831418;6.9678421220543;7.021573169994425;1.062357107875803;0.2962839723301418;1.4917344266307526;0.0;53.746145628571426;86.7795518
-0.023452635872336;0.022929776513643287;0.0356887937187723;-0.058121749770572;0.04905133235768631;-0.0010196798205363;1.008373639689385;0.010246631047084018;0.0001049934478150661;1.0093775726601402;0.02827918597500967;8.033957502831418;7.968705157009109;7.976076922074678;0.8858075081106811;0.34839978547183575;1.6286402389676917;0.0;53.74612844285714;86.77991861428573
0.0101967982053635;0.017161154543122375;0.017589476904252;-0.0356887937187723;0.04231784600216918;0.0152951973080452;0.9887666498463206;0.01210226652088486;0.00014646485494253052;1.0136776543208776;0.032579267635747144;6.088934103279469;5.92812107532631;6.953492482075913;0.6749850021569593;0.40059617180599866;1.766811710549328;0.0;53.746112700000005;86.78033075714286
0.0050983991026817;0.01995924878148705;0.0101967982053635;-0.0173345569491179;0.03680007647809098;0.0254919955134087;0.9810983866851305;0.012915298462283713;0.00016680493436986807;1.013856113461544;0.03275772677641353;4.160527769227605;4.420229127873235;5.601301934039188;0.4143094633077211;0.43061787480361;1.8014098024306657;0.0;53.74609817142857;86.78077337142858
-0.0285510349750178;0.02350008847876601;0.0101967982053635;-0.0010196798205363;0.03338501466334292;0.0326297542571632;1.0093775726601402;0.013031805450714196;0.00016982795330526424;1.013856113461544;0.03275772677641353;3.304308562723406;3.6228228608781037;5.157387833343963;0.148604570050069;0.3699519755570962;1.5381709408389899;0.0;53.746087342857145;86.78121968571429
-0.0010196798205363;0.02882201052029419;0.0101967982053635;0.0152951973080452;0.03665110544146809;0.0764759865402263;1.0136776543208776;0.012885358742541821;0.00016603246992399892;1.013856113461544;0.03275772677641353;2.0684976714517918;4.410767940057647;6.432009206442093;-0.1294862974231437;0.28527068885836343;1.386385422328577;0.0;53.74608728571428;86.78165482857143
-0.0448659121035994;0.024693862037446987;0.0050983991026817;0.0254919955134087;0.036423448204406274;0.078515346181299;1.013856113461544;0.01137404815865132;0.0001293689715153195;1.013856113461544;0.03275772677641353;1.0123843328369937;4.360400362799019;5.511081138700049;-0.4293773187549497;0.20179914439607624;1.2495594967368344;0.0;53.746094142857146;86.78204568571428
-0.0469052717446721;0.02007550042354354;-0.0010196798205363;0.0326297542571632;0.03321849740857132;0.078515346181299;1.0090627031430688;0.008988738143410845;8.079741341080906e-05;1.013856113461544;0.025691138696163907;0.0578805807567403;3.663733497668581;4.556577386619796;-0.7428327308570107;0.10600642178081728;0.9361040846347733;0.0;53.74610951428571;86.78241214285715
-0.0622004690527174;0.020252293957325685;-0.0010196798205363;0.0764759865402263;0.026920319735788966;0.078515346181299;1.0051514196066307;0.00901036847316467;8.118674002219983e-05;1.013856113461544;0.025691138696163907;-0.8645583787964446;2.422015511569564;3.6341384270666106;-1.0918267083923685;0.03599614536998882;0.5871101070994156;0.0;53.74612892857142;86.78274972857142
-0.0367084735393086;0.016429793346093534;-0.0173345569491179;0.078515346181299;0.02223120278137098;0.078515346181299;1.0010062339165653;0.008183268516111654;6.696588360678424e-05;1.013856113461544;0.025691138696163907;-1.4407741648115824;1.6589035030210297;3.057922641051473;-1.2973415838830091;0.01827290497921713;0.38159523160877495;0.0;53.746148514285714;86.78304725714285
-0.0193739165901906;0.018456459602836997;-0.0101967982053635;0.0764759865402263;0.02399834951101558;0.1019679820536351;0.9881649747653801;0.0069440929107539824;4.822042635318371e-05;1.0090627031430688;0.020897728377688662;-1.8530792706205572;1.9000494134143817;3.9670640641404447;-1.2973415838830091;0.018191478103567266;0.38159523160877495;30.0;53.746166914285716;86.7833253142857
-0.0254919955134087;0.017120444285987368;-0.0101967982053635;0.0448659121035994;0.02237771054594619;0.1029876618741715;1.0006176840489034;0.0062848679424187094;3.949956505364239e-05;1.006845403622013;0.01868042885663279;-2.56990215986188;1.6429622813679208;3.3301631850273843;-1.2973415838830091;0.01698852649289863;0.38159523160877495;0.0;53.74618697142857;86.78363062857144
-0.0173345569491179;0.008319701852200946;-0.0101967982053635;0.0509839910268175;0.02360519719039643;0.1029876618741715;1.006845403622013;0.008734952598512048;7.629939689825238e-05;1.0173390078821682;0.029174033116788123;-2.56990215986188;1.800815110743698;3.3301631850273843;-1.2973415838830091;0.017147340292878885;0.38159523160877495;0.0;53.74620321428571;86.78393944285713
-0.0101967982053635;0.006044805873718839;-0.0101967982053635;0.1019679820536351;0.02400556938639445;0.1029876618741715;1.0055413196518963;0.01123401918459231;0.00012620318703978806;1.0222421156424035;0.034077140877023404;-2.56990215986188;1.8772453480442473;3.3301631850273843;-1.2973415838830091;0.010358756265603439;0.30237162665788;0.0;53.74621912857143;86.78424792857142
-0.0265116753339451;0.006085622042134396;-0.0101967982053635;0.1029876618741715;0.02957573742230736;0.1029876618741715;1.0018871847123867;0.013055396103362066;0.0001704433674156814;1.0222421156424035;0.040495888321211315;-1.84511728449238;2.8062663453474226;4.054948060396884;-1.2973415838830091;0.006789314287060612;0.23085147457786093;0.0;53.746232299999996;86.78456098571428
-0.023452635872336;0.011955770484448262;0.0061180789232181;0.095849903130417;0.02728114292754933;0.1029876618741715;1.0173390078821682;0.013062931180737501;0.00017064017103268403;1.0222421156424035;0.040495888321211315;-1.84511728449238;2.391567251285441;4.054948060396884;-1.2973415838830091;0.00786211412180574;0.23085147457786093;0.0;53.74624327142857;86.78488647142856
-0.0265116753339451;0.012842261047729253;0.0061180789232181;0.0672988681553992;0.025148082910448788;0.1029876618741715;1.0222421156424035;0.014156465432148938;0.0002004055135316278;1.0222421156424035;0.040495888321211315;-1.84511728449238;2.027088244022208;4.054948060396884;-1.3238849641279224;0.0052713688109232775;0.2043080943329476;0.0;53.74625199999999;86.78523531428571
-0.0244723156928724;0.01579054203321291;0.0061180789232181;0.0316100744366268;0.02326478390399336;0.1029876618741715;0.9817462273211922;0.014098841875254575;0.00019877734222343194;1.0222421156424035;0.040495888321211315;-1.84511728449238;1.7176659640994796;4.054948060396884;-1.3238849641279224;0.00871230398733772;0.28764649472371917;0.0;53.746259371428565;86.78562302857142
0.0061180789232181;0.01579054203321291;0.0061180789232181;0.0764759865402263;0.020652037887408083;0.095849903130417;1.0113774372579032;0.013862502344216182;0.00019216897124339915;1.0222421156424035;0.040495888321211315;-1.84511728449238;1.313684319340646;3.561096715671974;-1.3238849641279224;0.02539179317750299;0.48548455181747197;0.0;53.746257171428574;86.7859975142857
-0.0050983991026817;0.016133298373686544;0.0061180789232181;0.084123585194249;0.017031647522139752;0.084123585194249;1.021124320986676;0.014489790873639434;0.00020995403956180464;1.0236615437665162;0.04191531644532398;-1.84511728449238;0.8870135787147122;2.880453495714071;-1.3238849641279224;0.09366819046040854;0.8814818597072551;0.0;53.74623858571429;86.78638852857144
-0.0418068726419904;0.02618848762259777;0.0061180789232181;0.0723972672580809;0.022364708048873607;0.084123585194249;1.010906480541407;0.015070325182354192;0.00022711470110189892;1.0236615437665162;0.04191531644532398;-1.4679173357059885;1.544997128103141;3.2576534445004626;-1.3238849641279224;0.17380964114391015;1.1197807198977712;0.0;53.746191628571424;86.78680602857142
-0.0265116753339451;0.035581114013971;0.0061180789232181;0.0571020699500356;0.0387744979607443;0.084123585194249;1.016532820935929;0.01082030493835858;0.00011707899895906704;1.0236615437665162;0.028548593644122655;1.5214831861613063;4.810566023235595;6.247053966367757;-1.461194953783294;0.26246520962347514;1.3155693641567439;30.0;53.74610691428571;86.787226
-0.0101967982053635;0.033223713705656;-0.0050983991026817;0.0622004690527174;0.05396177522202296;0.084123585194249;1.0236615437665162;0.015852627548833438;0.00025130580020203284;1.0236615437665162;0.04334558557853185;3.39899092286316;9.477627268726598;8.124561703069611;-1.461194953783294;0.3551570909645652;1.5722645646034135;30.0;53.74598598571429;86.78764632857143
-0.0723972672580809;0.030912607852759837;-0.0101967982053635;0.0254919955134087;0.053604243548479584;0.0723972672580809;0.9951129501223935;0.01771673547154887;0.00031388271576883795;1.0236615437665162;0.04642650255412406;3.39899092286316;9.417843154050367;7.50581184527066;-1.6115314588516416;0.40726731941451666;1.7463165354105603;30.0;53.74581652857143;86.78806932857142
-0.0887121443866625;0.03144852558547426;-0.0101967982053635;-0.0265116753339451;0.04996332025396599;0.0622004690527174;0.9984899323050493;0.019084402918952872;0.00036421443477293696;1.0236615437665162;0.04642650255412406;3.39899092286316;8.114312678933743;6.882584732335506;-1.8093695159453944;0.40855979621681077;1.79246934196414;0.0;53.745597814285716;86.78847598571429
-0.0734169470786173;0.03096901521294004;-0.0101967982053635;-0.058121749770572;0.044570845868198164;0.0622004690527174;0.9803159581879843;0.0181027691847049;0.0003277102521547013;1.0236615437665162;0.04642650255412406;3.39899092286316;6.448660086104319;6.882584732335506;-2.2053668238351776;0.37161881418726317;1.6661831792567012;0.0;53.745348657142856;86.78886682857144
-0.0178443968593861;0.030412444650741974;-0.0178443968593861;-0.037728153359845;0.02768021800159311;0.0254919955134087;0.9772350412123921;0.025608184877697733;0.0006557791327303468;1.051491635735801;0.07425659452340894;3.39899092286316;2.564869554848316;4.866908258569149;-2.4436656840256936;0.32961752676328876;1.5480937565088504;0.0;53.7450751;86.78924789999999
-0.0316100744366268;0.031255465705295395;-0.0178443968593861;-0.0418068726419904;0.01353855721121198;-0.0173345569491179;1.0210259290610786;0.028140323132160087;0.0007918777859823841;1.051491635735801;0.0784130475510274;3.39899092286316;0.6407474740733646;2.4543881197651993;-2.776764317940038;0.2539863592777755;1.3410854548581632;0.0;53.74478612857143;86.78960624285715
-0.0662791883348628;0.030170947364748135;-0.0178443968593861;-0.0489446313857448;0.014256429082646835;-0.0173345569491179;1.005725874770842;0.03524740846904805;0.0012423798037839203;1.051491635735801;0.10624844209860329;3.525265263646819;0.7634549014635001;2.5806624605488584;-3.0334595183867075;0.22113517136233893;1.3734812411676378;0.0;53.74448918571429;86.78995661428573
-0.1040073416947078;0.03147095242645531;-0.0178443968593861;-0.0173345569491179;0.015270899918108753;-0.0173345569491179;1.051491635735801;0.03479810159838571;0.001210907874851574;1.051491635735801;0.10624844209860329;3.654491864901326;0.8508109751858649;2.709889061803365;-3.357847994262202;0.16405384138868492;1.113378440206775;0.0;53.7441806;86.79030265714286
-0.0846334251045171;0.025189148258801915;-0.0316100744366268;-0.0367084735393086;0.015416109840286874;-0.0173345569491179;0.9730785881847737;0.034886850962150384;0.0012170923700552932;1.051491635735801;0.10624844209860329;3.654491864901326;0.8781402940838067;2.709889061803365;-3.6018388579095344;0.09172808672319223;0.8693875765594425;0.0;53.74387408571429;86.79062882857144
-0.0489446313857448;0.01800976214170383;-0.0489446313857448;-0.058121749770572;0.015406471758794423;-0.0173345569491179;0.9452431936371978;0.034102261634194525;0.0011629642485670559;1.051491635735801;0.10624844209860329;3.654491864901326;0.8751787613344892;2.709889061803365;-3.871550003091879;0.04585644187111371;0.5996764313770981;0.0;53.74357138571428;86.79092224285715
-0.0866727847455898;0.018973665929174464;-0.0489446313857448;-0.0632201488732537;0.017313121851332096;-0.0173345569491179;0.9918492233494517;0.03594814796634289;0.001292269342210082;1.051491635735801;0.10624844209860329;3.654491864901326;1.0394769978879184;2.709889061803365;-3.991759440534544;0.02694826379012837;0.47946699393443293;0.0;53.743262085714285;86.79118345714285
-0.0866727847455898;0.017462615008099817;-0.0489446313857448;-0.0356887937187723;0.01221844224738735;-0.0356887937187723;1.0199173782622848;0.028979874724202787;0.0008398331390304877;1.0295666298068877;0.08432343616968996;3.654491864901326;0.5096725945443874;1.649197300119178;-4.022945855603444;0.02457769519574417;0.44828057886553285;0.0;53.74294332857143;86.79140595714286
-0.0907515040277353;0.01992076171726678;-0.0489446313857448;-0.0428265524625267;0.01085703089916962;-0.0356887937187723;1.0103998028841115;0.028232837571778087;0.0007970931173544043;1.0295666298068877;0.08432343616968996;3.654491864901326;0.41745732685384257;1.649197300119178;-3.893092446308152;0.04076723693408432;0.578133988160825;0.0;53.7426233;86.79158695714285
-0.0601611094116447;0.01645237933487101;-0.0520036708473539;-0.0642398286937901;0.016359956923760632;-0.0356887937187723;1.0295666298068877;0.022618297916792884;0.0005115874006527974;1.0295666298068877;0.064311622196906;4.969387660960136;0.9856692194565498;2.964093096177988;-3.7067876985985855;0.06378721394841298;0.7644387358703915;0.0;53.74226548571428;86.79173748571428
-0.095849903130417;0.01993566874982228;-0.0458855919241358;-0.0453757520138676;0.0229152642730939;-0.0101967982053635;0.9998277822829209;0.022559577737899336;0.0005089345477123234;1.0295666298068877;0.064311622196906;4.969387660960136;1.8400933053372117;4.390091185823412;-3.7067876985985855;0.04575892310742454;0.5401911278514042;0.0;53.74191508571429;86.7918552
-0.0520036708473539;0.020613343122336217;-0.0458855919241358;-0.0504741511165494;0.024623586237652546;-0.0101967982053635;0.9795378140016076;0.02197048523761628;0.0004827022215763148;1.0295666298068877;0.064311622196906;4.969387660960136;2.1099067323588936;4.390091185823412;-3.5076057737495767;0.07238953940155231;0.739373052700413;30.0;53.74157715714285;86.79196344285712
-0.0774956663607627;0.019608883686631474;-0.0418068726419904;-0.0836137452839808;0.04837456992744424;0.0642398286937901;0.9652550076099817;0.021967353209313926;0.0004825646070227548;1.0295666298068877;0.064311622196906;4.969387660960136;7.770031397800952;8.61479482593984;-3.187972318349336;0.11529621044538423;1.0291198012731244;0.0;53.74125758571429;86.79206444285715
-0.0458855919241358;0.020132144897253818;-0.0418068726419904;-0.0101967982053635;0.05603977692591017;0.0642398286937901;1.0085396351824463;0.024921689886806438;0.0006210906268141503;1.0149796076890856;0.06404630346813955;4.969387660960136;10.80475581049084;8.61479482593984;-3.1165195303293958;0.12188570312750464;0.9064263252740483;0.0;53.74096191428571;86.79218202857143
-0.0489446313857448;0.015152096419667279;-0.0418068726419904;-0.0219231161415315;0.05466393737796032;0.0642398286937901;1.0149796076890856;0.026300486328917887;0.0006917155811375967;1.0149796076890856;0.06404630346813955;4.969387660960136;10.31210808886454;8.61479482593984;-2.897116441786911;0.1465443528365906;0.9959760045212409;0.0;53.740708257142856;86.79231968571428
-0.0418068726419904;0.025872745892384898;-0.0040787192821454;0.0642398286937901;0.05195759346744822;0.0642398286937901;1.0103550384319284;0.026058687996494745;0.0006790552200986593;1.0149796076890856;0.06404630346813955;4.969387660960136;9.307548596475764;8.61479482593984;-2.632371946885113;0.18543298144844264;1.1757928670951237;30.0;53.740492828571426;86.79248825714285
-0.0723972672580809;0.027966716914467914;-0.0040787192821454;0.0601611094116447;0.03997597607715147;0.0642398286937901;0.950933304220946;0.024661490006641154;0.0006081890893476615;1.0149796076890856;0.06404630346813955;1.6211022980283445;5.406843515370203;5.26650946300805;-2.4038528078298973;0.23617480703004193;1.4043120061503394;30.0;53.74035741428572;86.79268564285715
-0.0744366268991536;0.03759471597035985;-0.0040787192821454;0.0132558376669725;0.04215229664995241;0.0642398286937901;1.0133273112434646;0.024233465336926628;0.0005872608422360245;1.0149796076890856;0.06404630346813955;1.7503004197768035;6.000164331615141;5.395707584756509;-2.175265222307692;0.22024615999736988;1.332340551441885;0.0;53.74026041428572;86.79296532857143
-0.0040787192821454;0.03913815013672603;-0.0040787192821454;-0.0265116753339451;0.04227852314076003;0.0642398286937901;1.0047427413310641;0.02525230703678679;0.0006376790106801516;1.021760393949715;0.07082708972876905;1.7503004197768035;6.002103283669644;5.395707584756509;-1.9495891911109344;0.22332608968261067;1.2383831272384016;0.0;53.7401935;86.79324949999999
-0.0071377587437544;0.04135020049582876;-0.0040787192821454;-0.0275313551544814;0.03676238526396588;0.0601611094116447;0.9731902413677307;0.03541516227844556;0.0012542337192086334;1.0618882202390922;0.11095491601814622;1.7503004197768035;4.5839106297063354;5.377559259843108;-1.7298047150321176;0.25258554472246136;1.3867148152972781;30.0;53.740135842857136;86.79355024285714
-0.1080860609768532;0.04027842850844912;-0.0040787192821454;-0.0305903946160905;0.031272292230199984;0.040787192821454;1.0015270073827482;0.028514131366342885;0.0008130556875770592;1.0618882202390922;0.08869797887136155;1.9563430879569108;3.140621832941926;4.244115361404112;-1.5188917948637377;0.2435906228411923;1.3782246469231734;0.0;53.74006488571428;86.79386328571427
-0.0224329560517997;0.03655455821784709;-0.0040787192821454;0.040787192821454;0.030606575730481148;0.040787192821454;1.021760393949715;0.02958697365211396;0.0008753890098908856;1.0618882202390922;0.08869797887136155;1.9563430879569108;3.002622897461764;4.244115361404112;-1.3198304313982874;0.22548451046670204;1.3125415154868256;30.0;53.73998092857143;86.79416332857144
-0.0122361578464362;0.038598522749150516;-0.0071377587437544;0.0265116753339451;0.035473805316151366;0.040787192821454;1.0618882202390922;0.036729239776917576;0.0013490370545903043;1.0618882202390922;0.10767546177405907;3.3694132305300606;4.180624855224812;5.657185503977262;-1.1356006254282622;0.21075317633151602;1.268252182401635;0.0;53.73988264285715;86.79443441428573
-0.0142755174875089;0.043852865910760305;0.0214132762312633;-0.0336494340776996;0.04022984432183399;0.0458855919241358;0.9856886765125211;0.035498872765395685;0.0012601699676137513;1.0618882202390922;0.10767546177405907;3.3694132305300606;5.456100849951675;6.044204902307941;-0.9691823777461566;0.19093261840772013;1.2060828445615352;30.0;53.73977127142857;86.79466315714286
