acc_X;acc_X_std;acc_X_max;acc_Z;acc_Z_std;acc_Z_max;acc;acc_std;acc_var;acc_max;acc_range;fb_tilt_max;fb_tilt_var;fb_tilt_range;tilt_max;tilt_var;tilt_range;class;lat;lon
-0.5753293967503202;3.807287227445856;5.333952700690427;-0.0418068726419904;0.015447291912207348;-0.0336494340776996;1.0371790839455772;2.0908072835295295;4.37147509686013;6.7393959754712895;5.702216891525712;-0.9819516671765064;0.00044171606233285094;0.05710206995003608;0.1019679820536351;0.004398042895432225;0.1937391659019067;30.0;53.72859377142857;86.85086120000001
-5.89210625715447;3.807287227445856;5.333952700690427;-0.0384929132252472;0.015447291912207348;-0.0336494340776996;6.183702321230204;2.0908072835295295;4.37147509686013;6.7393959754712895;5.702216891525712;-0.9819516671765064;0.00044171606233285094;0.05710206995003608;0.1019679820536351;0.004398042895432225;0.1937391659019067;30.0;53.72859377142857;86.85086120000001
1.749482331258457;3.807287227445856;5.333952700690427;-0.040787192821454;0.015447291912207348;-0.0336494340776996;3.2132155641614153;2.0908072835295295;4.37147509686013;6.7393959754712895;5.702216891525712;-0.9819516671765064;0.00044171606233285094;0.05710206995003608;0.1019679820536351;0.004398042895432225;0.1937391659019067;30.0;53.72859377142857;86.85086120000001
-0.1746646673765702;3.807287227445856;5.333952700690427;-0.0795350260018354;0.015447291912207348;-0.0336494340776996;3.33782205658115;2.0908072835295295;4.37147509686013;6.7393959754712895;5.702216891525712;-0.9819516671765064;0.00044171606233285094;0.05710206995003608;0.1019679820536351;0.004398042895432225;0.1937391659019067;30.0;53.72859377142857;86.85086120000001
2.7511154836621348;3.8450401979043805;5.333952700690427;-0.0387478331803813;0.01879068955476873;-0.0336494340776996;4.693401485263207;1.4515660257073253;2.1070439269877594;6.7393959754712895;3.5261804113098743;-0.9819516671765064;0.00041693542701510167;0.05710206995003608;0.1019679820536351;0.0044789451094366245;0.1937391659019067;30.0;53.72868797142858;86.85067380000001
5.333952700690427;2.0819200433835725;5.333952700690427;-0.0438462322830631;0.018493978217779414;-0.0336494340776996;6.7393959754712895;1.408279109305453;1.98325004970616;6.7393959754712895;3.5261804113098743;-0.9819516671765064;0.0005919130773700143;0.060161109411644875;0.003059039461609;0.0013191294138100993;0.0948302233098806;30.0;53.728808771428575;86.85049105714288
4.646825860795507;2.285112827926262;5.333952700690427;-0.0336494340776996;0.024996767731507996;-0.0336494340776996;6.328731246955356;1.2572512967860088;1.5806808232701008;6.7393959754712895;3.4015739188901395;-0.9819516671765064;0.0016288378435231076;0.12134189864382605;0.003059039461609;0.001588040154208748;0.0948302233098806;30.0;53.72896028571429;86.8503061142857
3.838380803231823;2.078303322863226;5.333952700690427;-0.0744366268991536;0.0241290027276344;-0.0336494340776996;5.800565095085016;1.1147190688196948;1.2425986023902476;6.7393959754712895;2.6785364213448464;-0.9819516671765064;0.0015747710028298353;0.12134189864382605;-0.0020393596410727;0.0013079026224848262;0.0897318242071989;30.0;53.72914814285714;86.8501246
0.5041431150525256;2.2020277206497916;5.333952700690427;-0.0418068726419904;0.023020085908972542;-0.0336494340776996;4.31863270970954;1.2493457161799966;1.5608647185373086;6.7393959754712895;3.095213839411213;-0.9819516671765064;0.0016448796533991303;0.12134189864382605;-0.0020393596410727;0.0014636171041517998;0.0897318242071989;30.0;53.72937351428572;86.84994402857141
0.1054926435116892;1.7591961655597244;4.646825860795507;-0.0978892627714897;0.03679267589406484;-0.0336494340776996;4.134624597086559;1.0416447522275591;1.085023789843213;6.328731246955356;2.6845491108952797;-1.0003059039461608;0.0012339815664820523;0.10298766187417163;-0.0020393596410727;0.0009624095690437632;0.0805547058223717;30.0;53.72963015714286;86.84976912857142
1.1566931723053515;1.6723632889076718;4.308748261145729;-0.0723972672580809;0.03252260298440546;-0.0418068726419904;4.060859554126443;0.7739359613460589;0.5989768722646485;5.800565095085016;2.1563829590249397;-1.0003059039461608;0.00118763856017354;0.10298766187417163;-0.0020393596410727;0.0009132443924792792;0.0774956663607627;30.0;53.72987727142857;86.8496359
0.6660942910049524;1.5259576014699237;4.308748261145729;-0.0499643112062812;0.033813646206791934;-0.0418068726419904;3.6441821360600763;0.4930479466310762;0.24309627767712058;5.145440113654694;1.501257977594618;-1.0074436626899157;0.0010558382580439733;0.09584990313041675;-0.0020393596410727;0.0007773841261218299;0.0774956663607627;30.0;53.730141628571424;86.84952357142856
2.087103317198531;1.9521528975499107;5.392135661362149;-0.1396961354134801;0.030501042135507337;-0.0499643112062812;3.8377210176771936;0.8097860853292919;0.6557535039929392;5.827293145694637;2.1831110096345605;-1.0023452635872336;0.0012798294552018024;0.10094830223309881;-0.0020393596410727;0.0012140778394136291;0.092790863668808;0.0;53.7304143;86.84943052857143
4.308748261145729;2.219840713714922;6.628589759430072;-0.0836137452839808;0.029776571327518785;-0.0499643112062812;5.145440113654694;1.2389187078855586;1.534919564748822;6.892407014383242;3.2482248783231653;-0.9890894259202612;0.0005922101479232706;0.06322014887325378;-0.0122361578464362;0.001505355516884792;0.10298766187417151;0.0;53.730676828571426;86.84936757142859
2.996151354035535;2.492364940677942;7.598402826154127;-0.0555725502192311;0.04288504006540992;0.0040787192821454;3.8709128904935954;1.622507497514299;2.6325305794901133;7.757120948280417;4.1129388122203405;-0.9890894259202612;0.0006231054854622834;0.06322014887325378;-0.0122361578464362;0.0018790702728855282;0.1213418986438258;0.0;53.73092248571428;86.84932797142856
5.392135661362149;2.0544480944715158;7.598402826154127;-0.0683185479759355;0.05455581999355785;0.0224329560517997;5.827293145694637;1.5261791933516262;2.3292229302194207;7.757120948280417;3.9193999306032237;-0.9819516671765066;0.0005658698922009054;0.07035790761700833;-0.037728153359845;0.0012339815664820298;0.095849903130417;0.0;53.7311452;86.84932394285715
6.628589759430072;1.6411599107171129;7.598402826154127;-0.0693382277964719;0.04743886168827559;0.0254919955134087;6.892407014383242;1.3209275938225722;1.74484970812189;7.757120948280417;3.886208057786822;-0.9819516671765066;0.0005135854748271916;0.07035790761700833;-0.0530233506678902;0.0007792655729591404;0.0805547058223718;0.0;53.73134475714286;86.84934064285714
7.598402826154127;1.506281639171004;7.598402826154127;0.0040787192821454;0.0523033084937348;0.0601611094116447;7.757120948280417;1.247169049436372;1.5554306378720237;7.757120948280417;3.886208057786822;-0.9819516671765066;0.00010585614047821253;0.029570714795554287;-0.0530233506678902;0.0006830147137029888;0.0805547058223718;0.0;53.73152264285714;86.84935395714285
6.690845987551902;1.0930279720898415;7.598402826154127;0.0224329560517997;0.049318502274226565;0.0601611094116447;6.79153162519173;1.1099933037443923;1.2320851343573909;7.757120948280417;3.4533730296746157;-0.9819516671765066;7.614908515223924e-05;0.021413276231263434;-0.07545630671969;0.00036386191598428716;0.058121749770571995;0.0;53.73170595714286;86.84935075714286
6.893373305540331;1.0558898669018593;7.598402826154127;0.0254919955134087;0.03940794119113684;0.0601611094116447;6.937559852367316;1.1156946682010573;1.2447745926522675;7.757120948280417;3.4533730296746157;-0.9819516671765066;6.921743890951202e-05;0.021413276231263434;-0.07545630671969;0.00034430477122802196;0.058121749770571995;0.0;53.731877342857146;86.8493392857143
5.985760034688477;1.075605046321086;7.598402826154127;0.0601611094116447;0.022883102103498636;0.0601611094116447;6.005930418244813;1.123148898096802;1.2614634472960609;7.757120948280417;3.4533730296746157;-0.9819516671765066;7.268326203087662e-05;0.021413276231263434;-0.07545630671969;0.0003558905228051512;0.058121749770571995;0.0;53.732048157142856;86.84931261428571
4.300016815721771;0.9046847099231904;6.893373305540331;0.0183542367696543;0.02321498428541402;0.0601611094116447;4.303747918605802;0.9278725809919651;0.8609475265566909;6.937559852367316;2.633811933761514;-0.9819516671765066;7.446568535043515e-05;0.021413276231263434;-0.07545630671969;0.0002473607473475977;0.0458855919241358;0.0;53.73221575714285;86.84926444285715
5.751254255774712;0.9643066685342786;7.070332658630737;0.0071377587437544;0.023319254871070144;0.0601611094116447;5.759453361539682;0.9840654117549913;0.9683847346125205;7.137372894906333;2.8336249763005315;-0.9901091057407974;4.269151409136405e-05;0.013255837666972692;-0.07545630671969;0.0002835662210261267;0.04741511165494029;0.0;53.73238108571428;86.84919205714286
5.514035506934987;1.020442706886165;7.224762805392815;-0.0132558376669725;0.02682635672751122;0.0601611094116447;5.539680633555897;1.0378533346011447;1.0771395441427156;7.2581319694835305;2.954384050877729;-0.9890894259202612;4.581075490058988e-05;0.014275517487508882;-0.07545630671969;0.0003076289358401646;0.0499643112062812;0.0;53.73254214285714;86.84909345714286
6.672630535933459;1.0451099078844415;7.224762805392815;0.0010196798205363;0.016130229164418017;0.0183542367696543;6.716593151732376;1.061651358837984;1.1271036077225376;7.2581319694835305;2.954384050877729;-0.9890894259202612;5.5490303760970945e-05;0.01835423676965453;-0.07545630671969;0.0003273841276319362;0.0499643112062812;0.0;53.732691471428566;86.84897215714285
7.070332658630737;0.6396051543425708;7.224762805392815;0.0081574385642908;0.019237993596078057;0.0305903946160905;7.137372894906333;0.6515055747608949;0.4244595139445239;7.2581319694835305;1.7184513359276332;-0.9890894259202612;7.472562208453868e-05;0.021413276231263323;-0.0968695829509534;0.0001224054458827244;0.028551034975017806;0.0;53.732804457142855;86.84884011428572
7.224762805392815;0.5720658958280102;7.224762805392815;-0.023452635872336;0.020828394831982396;0.0305903946160905;7.2581319694835305;0.5830780745066657;0.3399800409704008;7.2581319694835305;1.7184513359276332;-0.9890894259202612;6.729885825304542e-05;0.021413276231263323;-0.0968695829509534;9.408471980529705e-05;0.028551034975017806;0.0;53.73290082857143;86.8486878
6.694879219545252;0.59258197270698;7.224762805392815;-0.0214132762312633;0.02175620405448742;0.0305903946160905;6.7213012920970625;0.609937094529219;0.3720232592827453;7.2581319694835305;1.8066898635245163;-0.9890894259202612;0.00010265025409095338;0.02651167533394494;-0.0968695829509534;9.408471980529705e-05;0.028551034975017806;0.0;53.73297709999999;86.84850075714287
6.559214932971444;0.6213687114275802;7.224762805392815;0.0305903946160905;0.02182777257691957;0.0305903946160905;6.572367923190027;0.6361188255788774;0.40464716025585035;7.2581319694835305;1.8066898635245163;-0.9890894259202612;0.00010413560685725171;0.02651167533394494;-0.0968695829509534;0.00010403658333949793;0.028551034975017806;0.0;53.73303549999999;86.84829950000001
6.190820755819071;0.6008245257328912;7.224762805392815;0.0203935964107269;0.02146177748531569;0.0305903946160905;6.1936074820919735;0.6097607616029409;0.3718081863905985;7.2581319694835305;1.8066898635245163;-0.9890894259202612;8.57543663743065e-05;0.02651167533394494;-0.0968695829509534;9.902351775324002e-05;0.028551034975017806;0.0;53.73308121428572;86.84807824285714
5.447384507424309;0.5289815556515507;7.045638135433517;-0.020393596410727;0.02520486814379165;0.040787192821454;5.451442105959014;0.5348297221500435;0.28604283169509276;7.059938655620634;1.60849654966162;-0.9890894259202612;8.57543663743065e-05;0.02651167533394494;-0.0968695829509534;8.100123752214984e-05;0.026511675333945106;0.0;53.733115100000006;86.84785247142858
7.045638135433517;0.629745509807326;7.365115748727183;-0.0061180789232181;0.022752910820682887;0.040787192821454;7.059938655620634;0.6387886859538711;0.4080509853026733;7.402746740587337;1.9513046346283227;-0.9890894259202612;0.00011843212723287753;0.028551034975017764;-0.0968695829509534;0.0001273442438306674;0.03466911389823592;0.0;53.73314535714286;86.84759747142857
6.872545149399258;0.7165354390674271;7.4589930938358195;-0.0081574385642908;0.025591825773475834;0.040787192821454;6.894431862021805;0.7292030810695214;0.5317371334412829;7.504255821730508;2.052813715771494;-0.9890894259202612;0.0001149663041115116;0.028551034975017764;-0.0968695829509534;0.0001606161457957571;0.03466911389823592;0.0;53.73316714285715;86.84733765714286
6.406096277845535;0.9612605778136273;7.4589930938358195;0.040787192821454;0.024840794087132707;0.040787192821454;6.440449489067671;0.9524127060148924;0.9070899625786097;7.504255821730508;2.439990560002075;-0.9890894259202612;0.0001169467744665761;0.028551034975017764;-0.0866727847455898;0.0002926640067197063;0.04486591210359951;0.0;53.73318662857143;86.84705725714285
7.365115748727183;1.300965186158523;7.4589930938358195;-0.0020393596410727;0.02772847099273684;0.040787192821454;7.402746740587337;1.260860565915221;1.5897693666800514;7.504255821730508;3.307886888122555;-0.9890894259202612;8.377389601923937e-05;0.028551034975017764;-0.0713775874375446;0.0005340338312432347;0.06016110941164471;0.0;53.73320495714286;86.84677935714285
7.4589930938358195;1.6776985894158405;7.4589930938358195;-0.0367084735393086;0.028792792338190182;0.040787192821454;7.504255821730508;1.6146956268285406;2.6072419672992138;7.504255821730508;4.042676248611375;-0.9890894259202612;8.377389601923979e-05;0.028551034975017764;-0.0571020699500356;0.0008816063785571164;0.07443662689915372;0.0;53.73322197142858;86.84648185714286
4.975716451973152;1.6773005341636469;7.4589930938358195;-0.0254919955134087;0.029464201671565344;0.040787192821454;5.064265261728433;1.614786707546995;2.6075361108704644;7.504255821730508;4.042676248611375;-0.9890894259202612;8.29817078772142e-05;0.028551034975017764;-0.0571020699500356;0.0008837848959476878;0.07443662689915372;0.0;53.73323944285715;86.84618115714285
4.057343955868409;1.6299170236739724;7.4589930938358195;-0.0418068726419904;0.01774806496418872;0.0020393596410727;4.196368933607953;1.5689598783211027;2.461635099781369;7.504255821730508;4.042676248611375;-0.9952075048434792;5.575024049507373e-05;0.022432956051799735;-0.0571020699500356;0.0008449676769884166;0.07443662689915372;0.0;53.733255214285705;86.84586412857142
3.258696561632236;1.3402321815268547;7.4589930938358195;-0.0336494340776996;0.015461008112549666;0.0020393596410727;3.4615795731191334;1.3011529796439705;1.6929990764363827;7.504255821730508;4.042676248611375;-0.9850107066381156;4.624398279075899e-05;0.020393596410727244;-0.0571020699500356;0.0005417081538691113;0.07341694707861741;0.0;53.73326518571429;86.8455595857143
4.305083290440193;0.8968876710549145;5.871563475769287;0.0020393596410727;0.016111801630796122;0.0020393596410727;4.461277182691059;0.9023351021300858;0.8142086365361124;6.064004633090969;2.6024250599718353;-0.9850107066381156;6.634575689466937e-05;0.02549199551340886;-0.0571020699500356;0.0002456278357869152;0.0469052717446722;0.0;53.733273642857135;86.84524621428571
4.716976193488066;1.0822847735493364;6.267801150927694;-0.0367084735393086;0.016111801630796122;0.0020393596410727;4.934614946684083;1.0797320189307886;1.1658212327043571;6.403677272509983;2.942097699390849;-0.9850107066381156;6.184018683689793e-05;0.02549199551340886;-0.0571020699500356;0.0003617824221114687;0.05302335066789031;0.0;53.733278185714276;86.84494355714287
5.557201676871644;1.331606919157966;7.253286087081375;-0.0152951973080452;0.015202660636746029;0.0020393596410727;5.773216687031659;1.3169121353329973;1.7342575721873146;7.408509316432418;3.946929743313284;-0.9850107066381156;5.847338723328686e-05;0.02549199551340886;-0.0571020699500356;0.000552402693786461;0.07035790761700829;0.0;53.733281771428565;86.84465091428571
5.871563475769287;0.997038114270031;7.253286087081375;-0.0418068726419904;0.01652294884231288;0.0020393596410727;6.064004633090969;0.9862694461803304;0.9727274204688557;7.408509316432418;2.947232133741359;-0.979912307535434;0.00011729335677870992;0.030590394616090477;-0.07545630671969;0.0003073689991060624;0.05200367084735388;0.0;53.733283571428565;86.84437477142856
6.267801150927694;0.7706739744290635;7.253286087081375;-0.0254919955134087;0.011740559471869865;-0.0152951973080452;6.403677272509983;0.7483175165541999;0.5599791055818452;7.408509316432418;2.4738943697483347;-0.979912307535434;0.00014447531240197628;0.03161007443662689;-0.0825940654634444;0.00018675835448261357;0.044865912103599484;0.0;53.73328117142857;86.84411271428571
7.253286087081375;0.5833528811334995;7.253286087081375;-0.0163148771285816;0.017502264201229915;0.0050983991026817;7.408509316432418;0.579681219469774;0.33603031620596435;7.408509316432418;1.717431646738465;-0.979912307535434;0.00015309035844650914;0.03161007443662689;-0.095849903130417;0.00010732911530479379;0.03161007443662689;0.0;53.73327935714286;86.84386587142856
6.229570476800711;0.7482522084968903;7.253286087081375;-0.0428265524625267;0.017258700455183518;0.0050983991026817;6.415666213377687;0.7693075253827575;0.5918340686105421;7.408509316432418;2.5245963764222985;-0.979912307535434;0.00011506532762926525;0.03161007443662689;-0.0836137452839808;0.0001729817075751934;0.043846232283063086;0.0;53.733279028571424;86.84362417142857
5.86661790579163;0.9773605917972568;7.253286087081375;-0.037728153359845;0.01685228319594403;0.0050983991026817;6.028998211470707;1.0085281655613019;1.0171290607304446;7.408509316432418;2.996899857162548;-0.979912307535434;0.0001391280424432991;0.03161007443662689;-0.0744366268991536;0.00030723284176915194;0.05302335066789028;0.0;53.73327738571429;86.84338481428571
5.584047740633771;1.1522300689181921;7.253286087081375;0.0050983991026817;0.01669732655949007;0.0050983991026817;5.691077669693953;1.191505664158539;1.4196857477218812;7.408509316432418;3.3835546972039587;-0.979912307535434;0.0001391280424432991;0.03161007443662689;-0.0693382277964719;0.00041714894647525077;0.05812174977057198;0.0;53.73327647142857;86.84313887142856
4.791923001499614;0.9440602644030065;6.229570476800711;-0.0183542367696543;0.016780148173700472;0.0050983991026817;4.883912940010119;0.9891984723076749;0.9785136176158379;6.415666213377687;2.438866375682744;-0.979912307535434;0.00013645440746396108;0.03161007443662689;-0.0683185479759355;0.00027500068674047136;0.0387478331803814;0.0;53.73327402857143;86.84288042857143
4.3304396237151765;0.7741325579338866;5.86661790579163;-0.0061180789232181;0.014704348030912607;0.0050983991026817;4.41160945926987;0.8061668446511152;0.6499049814147353;6.028998211470707;2.0521983737757643;-0.9829713469970428;8.090221400439634e-05;0.028551034975018097;-0.0683185479759355;0.00020055975726947095;0.03568879371877229;0.0;53.73327558571429;86.84260038571429
3.95637208356196;0.5710761202204317;5.584047740633771;-0.020393596410727;0.020385097307873686;0.0295707147955541;4.024954619228459;0.5859073860935743;0.34328746507900476;5.691077669693953;1.7142778319990097;-0.9829713469970428;6.159262804251272e-05;0.023452635872336258;-0.0683185479759355;0.00010586851841793301;0.030080554705822396;0.0;53.73329167142857;86.84223978571428
3.914657981292073;0.3007904179584834;4.791923001499614;-0.0142755174875089;0.019584881822905697;0.0295707147955541;3.976799837694943;0.311298259725909;0.0969066065083795;4.883912940010119;0.9071131023151762;-0.9829713469970428;7.466373238594174e-05;0.027531355154481685;-0.0683185479759355;2.7330490899892426e-05;0.015295197308045294;0.0;53.733313371428565;86.84186285714286
4.324712876051666;0.5217785699872067;4.463431828913494;-0.0326297542571632;0.019356019203839156;0.0295707147955541;4.39534831695014;0.5315730983513482;0.2825699588908522;4.5574497599425206;1.5735787969205388;-0.9829713469970428;7.466373238594174e-05;0.027531355154481685;-0.0509839910268175;8.436803712576033e-05;0.027531355154481504;0.0;53.73334018571428;86.84147275714285
4.463431828913494;0.5918172544904715;4.790099661450872;0.0295707147955541;0.025825818550957124;0.0295707147955541;4.5574497599425206;0.5916345250980122;0.35003141128795034;4.8201538813211835;1.8362829182992018;-0.9972468644845518;3.0103149396986274e-05;0.013255837666972692;-0.0509839910268175;0.00011357997486296672;0.0336494340776996;0.0;53.73337857142858;86.84108325714286
4.212549084191203;0.6389733544420034;4.790099661450872;-0.0142755174875089;0.03315583783193568;0.0397675130009177;4.28921301194426;0.6324558934919742;0.40000045721273136;4.8201538813211835;1.8362829182992018;-0.9972468644845518;3.01031493969865e-05;0.013255837666972692;-0.0509839910268175;0.00013160225509405697;0.0336494340776996;0.0;53.73345047142857;86.84065778571428
2.926629013350088;0.6546953098320659;4.790099661450872;-0.0061180789232181;0.03422642568280909;0.0397675130009177;2.9838709630219817;0.6434894850649233;0.4140787173891201;4.8201538813211835;1.8362829182992018;-0.9972468644845518;2.6934396828884636e-05;0.013255837666972692;-0.0509839910268175;0.00013754366615925158;0.0336494340776996;0.0;53.733549342857145;86.84023734285714
4.790099661450872;0.7001641441084792;4.973585694455303;-0.0550627103089629;0.03408145922999086;0.0397675130009177;4.8201538813211835;0.6837887413964221;0.467567042860503;4.9773509291605444;1.9934799661385627;-0.9895992658305292;5.274240114332213e-05;0.02090343632099534;-0.0509839910268175;0.00015236006000308032;0.035178953808504096;0.0;53.733661714285724;86.83983405714285
4.759921750588143;0.738263450241718;5.024307865659304;0.0397675130009177;0.03125962368917759;0.0397675130009177;4.779536510588229;0.719602963122516;0.5178284245347052;5.040395984939875;2.056525021917893;-0.9895992658305292;5.571310667591773e-05;0.02090343632099534;-0.0509839910268175;0.00016773346113427125;0.0367084735393087;0.0;53.7337748;86.83949731428571
4.748527784179278;1.01473167920376;5.024307865659304;0.0173345569491179;0.031227929851879842;0.0397675130009177;4.7578911486637665;1.007246914388916;1.014546346545992;5.040395984939875;2.364747768477141;-0.9895992658305292;0.00015686563006085932;0.03925767309064965;-0.0479249515652085;0.00030611882719442735;0.0397675130009177;0.0;53.73388631428572;86.83914437142857
4.973585694455303;1.0462271979500497;5.024307865659304;-0.0316100744366268;0.031656247403361155;0.0397675130009177;4.9773509291605444;1.0512422084956026;1.1051101809227117;5.040395984939875;2.364747768477141;-0.9895992658305292;0.000204693989135682;0.03925767309064965;-0.0479249515652085;0.000314412046806261;0.0397675130009177;0.0;53.733991628571424;86.8387632857143
5.024307865659304;1.1642090520547055;5.024307865659304;-0.020393596410727;0.025688377183224413;0.0397675130009177;5.040395984939875;1.1648370711666622;1.3568454023641277;5.040395984939875;2.364747768477141;-0.9839910268175792;0.0002908444495809992;0.04486591210359958;-0.0458855919241358;0.00040189932474125087;0.0418068726419904;0.0;53.73408621428571;86.83835684285714
2.666906842519466;1.1184086939697906;5.024307865659304;-0.0061180789232181;0.016162426792813354;0.0173345569491179;2.6756482164627338;1.1166955174854334;1.24700887877206;5.040395984939875;2.364747768477141;-0.9839910268175792;0.00029579562546866266;0.04486591210359958;-0.0458855919241358;0.00036830559634346347;0.0418068726419904;30.0;53.734151485714285;86.83796497142858
2.787817510688288;1.1231145832218887;5.024307865659304;-0.023452635872336;0.017885621993709012;0.0224329560517997;2.788487773186048;1.110477435056117;1.2331601337688125;5.040395984939875;2.5520527147628833;-0.9839910268175792;0.00030255398055532097;0.04486591210359958;-0.0418068726419904;0.0003713505695143755;0.0458855919241358;0.0;53.73421434285715;86.83749754285715
2.6694260891189763;1.1137007011648488;5.024307865659304;-0.0183542367696543;0.04615456018278828;0.1029876618741715;2.691711881361268;1.0739990275058826;1.1534739110835814;5.040395984939875;3.4806823939398743;-0.9839910268175792;0.0002553816522856224;0.04486591210359958;-0.0244723156928724;0.0003758437616324299;0.0632201488732538;0.0;53.73427217142857;86.83701045714285
3.4028683241068003;1.0110678335375096;4.693629802364736;-0.0224329560517997;0.04478749154761215;0.1029876618741715;3.4369668059175784;0.9986354564523166;0.9972727748837266;4.804293079488165;3.2445794884881645;-0.968695829509534;0.0004730353443072443;0.060161109411644764;-0.0244723156928724;0.00028593040751248594;0.055062710308963;0.0;53.734310028571436;86.83649974285716
2.3950685276051398;1.0125044004616057;4.693629802364736;0.0224329560517997;0.04497282902053165;0.1029876618741715;2.4883432701769914;1.0019721897426672;1.0039482690177157;4.804293079488165;3.2445794884881645;-0.9442235138166616;0.0007894649952877164;0.0815743856429082;-0.0244723156928724;0.00028553431344147297;0.055062710308963;0.0;53.73432461428571;86.8359877
1.3829303065769727;1.2358840295427984;4.831333629078329;0.1029876618741715;0.04273744008429325;0.1029876618741715;1.5597135910000006;1.22422306879791;1.4987221221769726;4.929512692784522;3.3697991017845217;-0.9442235138166616;0.0005648796570233561;0.06729886815539932;-0.0244723156928724;0.00044075367751968044;0.0591414295911084;30.0;53.734316885714286;86.83548991428573
4.693629802364736;1.2883782770738574;4.831333629078329;0.0071377587437544;0.04029501979897658;0.1029876618741715;4.804293079488165;1.26958051864682;1.6118346933275287;4.929512692784522;3.3697991017845217;-0.9442235138166616;0.000602508593769591;0.06729886815539932;-0.0244723156928724;0.0004760060498398347;0.0591414295911084;30.0;53.734280857142856;86.8350004
3.1522656507880096;1.291731753927493;4.831333629078329;-0.0091771183848271;0.036108761516520364;0.1029876618741715;3.3200395690346887;1.276092952470507;1.6284132233448956;4.929512692784522;3.3697991017845217;-0.9442235138166616;0.000602508593769591;0.06729886815539932;-0.0244723156928724;0.0004730353443072375;0.0591414295911084;0.0;53.734209885714286;86.83452348571429
4.831333629078329;1.259465785912772;4.831333629078329;0.0173345569491179;0.03844637888673846;0.1029876618741715;4.929512692784522;1.2400772385259329;1.5377915575101033;4.929512692784522;3.3697991017845217;-0.9442235138166616;0.0007495585176331591;0.07749566636076277;-0.0244723156928724;0.0004515472409547838;0.0591414295911084;0.0;53.73408147142857;86.83411712857142
2.153182257586716;1.2405532335507043;4.831333629078329;0.0142755174875089;0.03661258471926887;0.0978892627714897;2.2712845292569264;1.2295580688716883;1.5118130447274754;4.929512692784522;3.323977598126891;-0.9442235138166616;0.0007004428528275498;0.07749566636076277;-0.0254919955134087;0.0004414963539028302;0.0581217497705721;0.0;53.733898357142856;86.83374018571429
2.712237844641608;1.0625332462363706;4.831333629078329;0.0163148771285816;0.03659432390871528;0.0978892627714897;2.829669893130103;1.0477373908345826;1.0977536401528591;4.929512692784522;3.323977598126891;-0.9442235138166616;0.000642514094941906;0.07749566636076277;-0.0254919955134087;0.00033722458970866564;0.0581217497705721;0.0;53.73367245714285;86.83340822857143
3.1416689360682097;1.099930041354964;4.831333629078329;-0.0101967982053635;0.038074332405816265;0.0978892627714897;3.246901464706687;1.0743230610769954;1.1541700395618455;4.929512692784522;3.323977598126891;-0.9890894259202612;0.00021829734488702256;0.040787192821454044;-0.0254919955134087;0.0003706450269503851;0.0581217497705721;0.0;53.733414114285715;86.83313525714286
1.4647097320153464;0.8196612806976807;3.7381730466739103;0.0978892627714897;0.04211954216641262;0.0978892627714897;1.6055350946576312;0.7888628908917011;0.622304660626012;3.744524460073415;2.138989365415784;-0.99214846538187;0.0001923408052959552;0.03772815335984525;-0.0254919955134087;0.00022488240881761226;0.041806872641990504;0.0;53.733126742857145;86.83292102857142
3.4696827715309584;0.7857854128551246;3.7381730466739103;0.0346691138982359;0.042850245949579965;0.0978892627714897;3.5197717886405093;0.7583402574241429;0.5750799460301154;3.744524460073415;2.138989365415784;-0.9666564698684612;0.0004499009749721391;0.063220148873254;-0.0254919955134087;0.00020656305803326246;0.041806872641990504;0.0;53.73281465714285;86.83275888571428
3.7381730466739103;0.8772032257882497;3.7381730466739103;-0.0183542367696543;0.04591741216577904;0.0978892627714897;3.744524460073415;0.827648964175414;0.6850028079006357;3.744524460073415;2.138989365415784;-0.9666564698684612;0.00044395956390694334;0.063220148873254;-0.0254919955134087;0.00025538165228561105;0.041806872641990504;0.0;53.732480457142856;86.83264411428571
2.114964627104837;0.9897509704127827;3.7381730466739103;-0.0254919955134087;0.04695696614786186;0.0978892627714897;2.1484191738659333;0.8682069650641013;0.7537833341858177;3.744524460073415;2.138989365415784;-0.9666564698684612;0.00036778572287525984;0.063220148873254;-0.0214132762312633;0.0003159840451505957;0.04588559192413591;0.0;53.73212657142857;86.83256451428572
2.838250161345461;1.0615575203020147;3.7381730466739103;-0.0050983991026817;0.029837408338535775;0.0346691138982359;2.906933620168969;0.8800315086824309;0.7744554562738754;3.744524460073415;2.204713105773975;-0.9666564698684612;0.0003657309848818799;0.063220148873254;-0.0183542367696543;0.00036138632804045705;0.048944631385744904;0.0;53.73176357142857;86.83250505714285
1.7596995836458855;0.9314762347778958;3.7381730466739103;-0.0316100744366268;0.01817396333951239;-0.0050983991026817;1.9842294462251162;0.7594890462414895;0.5768236113608073;3.744524460073415;2.204713105773975;-0.9666564698684612;0.0004015774983085532;0.063220148873254;-0.0183542367696543;0.0002782065731277338;0.048944631385744904;0.0;53.73139855714286;86.83245455714287
1.221016635870243;0.7940283909457199;3.232824122046704;-0.023452635872336;0.019488578766615108;-0.0050983991026817;1.7373017321583852;0.6879269894903391;0.47324354286924125;3.505497207646481;1.9656858533470407;-0.9666564698684612;0.00028527437670736454;0.04996431120628109;-0.0183542367696543;0.0001760143028063868;0.036708473539308596;0.0;53.73103165714286;86.83239485714286
1.056526423728264;0.8010900315718621;3.232824122046704;-0.0642398286937901;0.020527897598120532;-0.0050983991026817;1.5398113542994403;0.6843262799664563;0.4683024574527288;3.505497207646481;1.9656858533470407;-0.9666564698684612;0.0003212322915915093;0.04996431120628109;-0.0183542367696543;0.0001798267082398867;0.036708473539308596;0.0;53.73064927142857;86.83231967142856
2.066958146279735;0.8151900602120727;3.232824122046704;-0.0316100744366268;0.018736017998369985;-0.0081574385642908;2.333229770897835;0.6540404627085746;0.4277689268600465;3.505497207646481;1.9656858533470407;-0.974813908432752;0.0007512914291938514;0.0795350260018356;-0.0142755174875089;0.00018799614845452892;0.040787192821454;0.0;53.73024961428571;86.83222721428571
3.232824122046704;1.3176568731089318;3.232824122046704;-0.0081574385642908;0.018778581540122113;-0.0081574385642908;3.505497207646481;0.6507609676079094;0.4234898369619824;3.505497207646481;1.9656858533470407;-0.974813908432752;0.0007580374063407904;0.0795350260018356;0.0183542367696543;0.0005112089104011114;0.0734169470786172;0.0;53.729843585714285;86.83213204285714
1.7356098953209356;1.3368356971622375;3.232824122046704;-0.0101967982053635;0.018806245547568077;-0.0081574385642908;2.3282819874777037;0.6322353269672493;0.39972150866538464;3.505497207646481;1.9656858533470407;-0.974813908432752;0.0008155453142759824;0.0795350260018356;0.0183542367696543;0.000525369273439825;0.0734169470786172;0.0;53.72941855714286;86.83202152857143
0.7752985343012896;1.3451858571740691;3.232824122046704;-0.0346691138982359;0.026937556684971293;-0.0081574385642908;1.8335105624304078;0.6015703660764696;0.36188690534137774;3.505497207646481;1.8051479038500031;-0.974813908432752;0.0008580264033921214;0.0795350260018356;0.0183542367696543;0.0005324989667180585;0.0734169470786172;60.0;53.72897632857143;86.83190478571429
-1.0586877011906115;1.5163477003480048;3.232824122046704;-0.0331395941674313;0.03098419962945574;0.0050983991026817;2.063425140652192;0.6978245421061668;0.4869590915656814;3.505497207646481;2.1017434734840874;-0.974813908432752;0.0008331715004360582;0.0795350260018356;0.0183542367696543;0.0006758726424850339;0.0734169470786172;60.0;53.72852877142857;86.83176442857143
1.9037796655174055;1.1421289698804853;1.9037796655174055;-0.037728153359845;0.04936804586736201;0.0713775874375446;2.6056890309488066;0.5333394430697008;0.28445096153389865;2.6056890309488066;1.555507673943684;-0.9758335882532884;0.0008037615156633502;0.07851534618129918;0.0183542367696543;0.00038838261456793376;0.0509839910268175;60.0;53.728020300000004;86.83155950000001
0.889599270825122;1.201353781355459;1.9037796655174055;-0.0897318242071989;0.04940313528394046;0.0713775874375446;1.7003493037964779;0.4938598445907789;0.2438975460992283;2.6056890309488066;1.555507673943684;-0.9809319873559702;0.0006862701118491308;0.07341694707861735;0.0244723156928724;0.00043955301736692216;0.0571020699500356;60.0;53.727525571428565;86.83134271428571
-0.7788877852173064;1.3624524498608335;1.9037796655174055;0.0050983991026817;0.04961015666230297;0.0713775874375446;1.4037537341623938;0.5026176236150096;0.25262447556839945;2.6056890309488066;1.555507673943684;-0.974813908432752;0.00037538577786281994;0.04486591210359958;0.0244723156928724;0.000556128453641926;0.0571020699500356;60.0;53.72704407142857;86.83112087142857
0.2857772233144177;1.3385440438691534;1.9037796655174055;0.0713775874375446;0.050943187506054;0.0713775874375446;1.0501813570051226;0.5547495477634559;0.30774706074375885;2.6056890309488066;1.576485988155711;-0.974813908432752;0.0005784458789555687;0.06118078923218129;0.0244723156928724;0.0005415224847733227;0.0571020699500356;60.0;53.72656285714286;86.83087737142857
-1.3755905851147852;1.142053013055975;1.8558022894088928;-0.0305903946160905;0.05002125794688622;0.0713775874375446;1.6313269951961522;0.48400618725657363;0.23426198930264544;2.005854633191971;1.4161639327295852;-0.968695829509534;0.000691332689194264;0.0672988681553992;0.0244723156928724;0.0003939774433209919;0.0560823901294992;60.0;53.726098285714286;86.83065051428571
1.8558022894088928;1.1996856994654537;1.8558022894088928;-0.0387478331803813;0.04674878647423972;0.0713775874375446;2.005854633191971;0.460024878829555;0.21162288914214675;2.005854633191971;1.4161639327295852;-0.968695829509534;0.0007218319326622627;0.0672988681553992;0.0244723156928724;0.00043363636218116526;0.0560823901294992;60.0;53.725647314285716;86.83044091428573
-0.9021473273946304;1.8740656682335743;4.016109749533884;0.0132558376669725;0.04631572589400375;0.0713775874375446;1.0292030427930956;1.1831023084266485;1.3997310722044647;4.1712826871533295;3.5815919866909436;-0.968695829509534;0.0007398542128933521;0.0672988681553992;0.0244723156928724;0.0010971805767059242;0.095849903130417;60.0;53.7252006;86.83026848571429
-0.4824021422333117;1.8701281308232487;4.016109749533884;-0.0173345569491179;0.030938023896216124;0.0132558376669725;0.5896907004623858;1.1485246701380896;1.3191089179158073;4.1712826871533295;3.5815919866909436;-0.968695829509534;0.0007461422062706831;0.0672988681553992;0.0244723156928724;0.0010939623123789436;0.095849903130417;60.0;53.724813257142856;86.830192
1.2519311777004951;1.6211014261374357;4.016109749533884;-0.0764759865402263;0.03101155275731109;0.0132558376669725;1.403491804439857;1.146295935632937;1.3139943720485905;4.1712826871533295;3.5815919866909436;-0.968695829509534;0.0006914317127120164;0.0672988681553992;0.0163148771285816;0.0008230339678060729;0.0876924645661262;60.0;53.72442541428571;86.83015158571429
4.016109749533884;1.583697709529133;4.016109749533884;-0.0061180789232181;0.031128678625575355;0.0132558376669725;4.1712826871533295;1.1652332438852393;1.3577685126553174;4.1712826871533295;3.5815919866909436;-0.968695829509534;0.0006605363751730053;0.0672988681553992;0.0163148771285816;0.0007908513245362697;0.0876924645661262;0.0;53.72404214285714;86.830145
1.0301498181760798;1.3690614241181398;4.016109749533884;0.0081574385642908;0.031042670036832812;0.0112164780258998;1.730242012854209;1.1900398153819853;1.4161947621943896;4.1712826871533295;3.5815919866909436;-0.968695829509534;0.0005113574456777446;0.05914142959110835;0.0081574385642908;0.0005881501836953825;0.0795350260018354;0.0;53.72367105714285;86.8301762
0.7000994592905999;1.288526188188265;4.016109749533884;-0.0071377587437544;0.031070569267014715;0.0112164780258998;1.841936431447134;1.166349469027261;1.3603710839001737;4.213891193083028;2.8103993886431713;-0.9605383909452432;0.0006155301863541547;0.0672988681553992;-0.0122361578464362;0.0005008114410370226;0.05914142959110841;0.0;53.723308214285716;86.83022295714285
1.0229692922603886;1.3141892804439093;4.016109749533884;0.0112164780258998;0.02247044541222497;0.0112164780258998;2.386904654134981;1.1282477559481268;1.272942998801984;4.228040539443749;2.4977985265895404;-0.9605383909452432;0.000491750789162603;0.0672988681553992;-0.0122361578464362;0.0005201210269989044;0.05914142959110841;30.0;53.72295545714285;86.83026882857142
1.7289917062104858;1.1058923126090083;3.3405925471073945;-0.0418068726419904;0.027933945655699066;0.0112164780258998;3.20035177496015;1.1921325239085474;1.4211799545605632;4.536562478145579;2.8063204652913702;-0.9605383909452432;0.0004955136828372271;0.0672988681553992;-0.0122361578464362;0.00035792050491909277;0.0438462322830631;0.0;53.72261031428571;86.83031500000001
3.3405925471073945;1.026866935904889;3.3405925471073945;-0.0224329560517997;0.030835431202865204;0.0112164780258998;4.213891193083028;1.0457921325830768;1.0936811845726595;4.536562478145579;2.694626046698445;-0.9605383909452432;0.0006327602784432237;0.0785153461812993;-0.0122361578464362;0.0003099931223265233;0.0438462322830631;0.0;53.72227601428572;86.83033909999999
2.966990966916129;0.8432402738176262;3.3405925471073945;-0.0448659121035994;0.029381746506509213;0.0112164780258998;4.228040539443749;0.8241621186061173;0.6792431977453237;4.701605510408959;2.314700856273978;-0.9605383909452432;0.0007343584076580497;0.0785153461812993;-0.0183542367696543;0.00019992848234379426;0.037728153359845;0.0;53.721952400000006;86.83033365714286
2.977287969099032;0.9969970166935956;3.3405925471073945;-0.061180789232181;0.046083167878695576;-0.0224329560517997;4.536562478145579;0.4771878738615622;0.22770826696051819;4.701605510408959;1.5012537354488091;-0.9605383909452432;0.0006498789690748146;0.0785153461812993;-0.0091771183848271;0.00028815843666193377;0.046905271744672204;0.0;53.7215987;86.83024327142857
2.2417242784741416;1.284451549551464;3.3405925471073945;-0.0774956663607627;0.05743707866620787;-0.0224329560517997;4.108303457764932;0.2186218360102485;0.047795507180492;4.701605510408959;0.5933020526440274;-0.9605383909452432;0.000633812403319351;0.0785153461812993;-0.0040787192821454;0.0004889781306655093;0.052003670847353904;0.0;53.721285200000004;86.83008702857144
3.025860772000523;1.4229677079210767;3.025860772000523;-0.0601611094116447;0.05050148722061201;-0.0448659121035994;4.701605510408959;0.21759894264857912;0.04734929984177962;4.701605510408959;0.5933020526440274;-0.9819516671765066;0.0003026530040730712;0.05710206995003586;0.0020393596410727;0.0006244423029519449;0.0550627103089629;0.0;53.721040585714285;86.82989361428572
0.5138499714764233;2.6921729058628543;3.025860772000523;-0.1641684511063526;0.055147169258608235;-0.0214132762312633;4.176652070929027;0.8721437913898182;0.7606347928598068;6.5657269045795115;2.4574234468145795;-0.9819516671765066;0.0003301815420084719;0.05710206995003586;0.0825940654634444;0.0022191170328501593;0.1356174161313346;60.0;53.72088105714285;86.82967922857142
0.2301946674764349;2.5177020466088473;3.025860772000523;-0.1672274905679616;0.05449600279779698;-0.0214132762312633;4.22217848597897;0.8713711901014685;0.7592877509388495;6.5657269045795115;2.4574234468145795;-0.9819516671765066;0.00038825883517074907;0.05710206995003586;0.0825940654634444;0.0019352289853913336;0.1345977363107983;60.0;53.72080005714286;86.82944462857142
-0.1149762423682307;2.4742871692696706;3.025860772000523;-0.1080860609768532;0.05757784600747763;-0.0214132762312633;4.228384843388331;0.8646603995950451;0.7476376066278632;6.5657269045795115;2.3890748336504846;-0.9554399918425616;0.0005628372969697031;0.07392678698888533;0.0825940654634444;0.0018222183957554473;0.1345977363107983;60.0;53.72079258571428;86.82920675714286
-4.747955337532094;1.9901327718011523;0.5138499714764233;-0.0214132762312633;0.06388779522155154;-0.0142755174875089;6.5657269045795115;0.9033021693038076;0.8159548090689647;6.5657269045795115;2.3890748336504846;-0.9554399918425616;0.0005160981965901746;0.07392678698888533;0.0825940654634444;0.001190572131886953;0.0917711838482715;60.0;53.720851999999994;86.82898457142856
-0.990961169496678;1.8921010812172803;0.2301946674764349;-0.0683185479759355;0.06579371610255033;0.0316100744366268;4.754444149370142;0.8637586434869595;0.7460789941984324;6.5657269045795115;2.343548418600541;-0.9554399918425616;0.000677258971733569;0.07392678698888533;0.0825940654634444;0.0010737491368175663;0.0866727847455898;60.0;53.72101117142857;86.82883654285715
-2.624637129994516;1.708375290662001;-0.1149762423682307;-0.0448659121035994;0.0729453818035829;0.0316100744366268;5.377085495206713;0.7876200209314738;0.6203452973720952;6.5657269045795115;2.3373420611911806;-0.9554399918425616;0.0006649552996527276;0.07392678698888533;0.0825940654634444;0.0008765685570914231;0.0805547058223717;60.0;53.72119621428571;86.8287473
-3.156817893695509;2.0549858162600283;-0.1213237818626501;-0.0142755174875089;0.07429914580738975;0.0316100744366268;5.6034737665161165;1.0171392322956687;1.0345722178750225;7.3188107974053365;2.8344087968320197;-0.9554399918425616;0.0009143707849937113;0.08055470582237167;0.1111451004384623;0.0013772067069723806;0.1091057407973896;60.0;53.72137167142857;86.82870332857144
-0.1213237818626501;2.167262179273166;0.2924070260593668;0.0316100744366268;0.07306008540174656;0.0316100744366268;4.484402000573317;1.101714242165937;1.2137742713912647;7.3188107974053365;3.4839154272363433;-0.9554399918425616;0.0009146678555469715;0.08055470582237167;0.1111451004384623;0.001541140140612872;0.116243499541144;60.0;53.721509371428574;86.82870205714285
-2.364439621735091;2.2295292795031254;0.2924070260593668;-0.1916998062608341;0.07303619308198983;0.0316100744366268;5.041708205479785;1.2354446032154078;1.5263233676140764;7.3188107974053365;3.6107196040301206;-0.9554399918425616;0.0007149993099372735;0.08055470582237167;0.1111451004384623;0.001629778566941743;0.116243499541144;60.0;53.72161155714286;86.82872012857142
-6.08356770212804;2.5304509648909117;1.259104877422241;-0.1193025390027531;0.0745516926074441;0.0316100744366268;7.3188107974053365;1.3144009289992344;1.7276498021540505;7.3188107974053365;3.6107196040301206;-0.962577750586316;0.0004910081127794482;0.07341694707861723;0.1111451004384623;0.0020964268943538967;0.133578056490262;60.0;53.721683128571435;86.82875147142856
0.2924070260593668;3.310436524639469;4.726758358406074;-0.0382379932701131;0.07822671037628848;0.0316100744366268;3.834895370168993;1.336212695790568;1.785464368391897;7.3188107974053365;3.6107196040301206;-0.9248495972264708;0.0013180525330545266;0.11114510043846249;0.1111451004384623;0.003341895188895302;0.18762108697868862;60.0;53.721725185714284;86.82877524285716
-0.4079642100645664;3.426757558435409;4.726758358406074;-0.0652595085143265;0.065356004228001;0.0101967982053635;3.708091193375216;1.4000783927474008;1.9602195058381449;7.3188107974053365;3.6107196040301206;-0.9248495972264708;0.0011997813190380003;0.11114510043846249;0.1111451004384623;0.0035921399961974638;0.18762108697868862;60.0;53.721744349999994;86.82880172142858
1.259104877422241;3.743854667511596;5.076610619397068;-0.1111451004384623;0.045282533415001866;0.0101967982053635;3.7525443340037;1.4655086823522039;2.147715698049693;7.3188107974053365;3.6107196040301206;-0.9248495972264708;0.0011997813190380003;0.11114510043846249;0.1111451004384623;0.00434947185997426;0.1998572448251248;60.0;53.72174387857143;86.82882685
4.726758358406074;2.1335034184813737;5.076610619397068;0.0101967982053635;0.039243994575242615;0.0101967982053635;5.803178497831509;1.1451524688816639;1.31137417698577;5.888681386492061;2.974173289117696;-0.9248495972264708;0.0008859015236396556;0.08973182420719916;0.0071377587437544;0.0012952152342726893;0.0958499031304169;60.0;53.72172553571429;86.82885239285714
1.93275191089599;2.285303145559204;5.076610619397068;-0.0563373100846334;0.038395113884282586;0.0101967982053635;3.724835462818498;1.2996727720838597;1.6891493144961445;5.888681386492061;3.2810427066726486;-0.9248495972264708;0.0013757461100855127;0.12134189864382594;0.0122361578464362;0.0015026942598451696;0.1009483022330987;60.0;53.72169540714286;86.8288588357143
5.076610619397068;2.0811465078457982;5.076610619397068;-0.0938105434893443;0.04067243119462595;0.0101967982053635;5.888681386492061;1.4014470228482097;1.9640537578501105;5.888681386492061;3.2810427066726486;-0.9248495972264708;0.0014792009302582161;0.12134189864382594;0.0122361578464362;0.001238895608550533;0.1009483022330987;60.0;53.721666864285716;86.82886320714286
0.9285917222671596;2.0757561541364065;5.076610619397068;-0.0662791883348628;0.03269962122340718;0.0101967982053635;2.9145080973743647;1.5180013836975472;2.3043282009076678;5.888681386492061;3.5080179948773287;-0.9248495972264708;0.001753000956845935;0.12134189864382594;0.0122361578464362;0.0012304290977826306;0.1009483022330987;60.0;53.72163906428572;86.82886100714286
-0.6693327015114036;1.7396309757507287;5.076610619397068;-0.0499643112062812;0.027057850691133426;-0.0112164780258998;2.607638679819412;1.315476053702107;1.730477247863669;5.888681386492061;3.9140279596695944;-0.980422147445702;0.0006003672101982005;0.0657693484245947;0.0122361578464362;0.0009268229923511898;0.1009483022330987;60.0;53.721623949999994;86.82886417857144
1.428794431554984;1.7392087764176638;5.076610619397068;-0.0254919955134087;0.03549822214095919;0.0132558376669725;2.669515340908362;1.3873017612075063;1.9246061766494487;5.888681386492061;4.151848441912184;-0.9941878250229428;0.0003529693290314472;0.05200367084735391;0.0122361578464362;0.0009277513378301267;0.1009483022330987;60.0;53.72162564285714;86.8288549
1.3428583200495947;1.7659461923772373;5.15399951002056;-0.0418068726419904;0.026974521468430615;0.0132558376669725;2.380663391614732;1.1545489437933547;1.332983263614351;5.238086425761325;3.5012534811814486;-0.9370857550729071;0.001345581070989943;0.10910574079738955;0.0122361578464362;0.0008449676769884162;0.0968695829509533;60.0;53.721638199999994;86.82884917142859
1.0851686792351145;2.3573408635935116;5.763712405879435;-0.0112164780258998;0.023933272622932888;0.0132558376669725;1.9746534268224663;1.6226298664764514;2.632927683581386;5.788015146199005;4.051182201619128;-0.8687672070969715;0.004394465670853392;0.17742428877332517;0.0122361578464362;0.0013544436758288487;0.0999286224125624;0.0;53.72166814285714;86.82883157142858
1.144522035391833;2.3573408635935116;5.763712405879435;0.0132558376669725;0.023933272622932888;0.0132558376669725;1.7368329445798765;1.6226298664764514;2.632927683581386;5.788015146199005;4.051182201619128;-0.8687672070969715;0.004394465670853392;0.17742428877332517;0.0122361578464362;0.0013544436758288487;0.0999286224125624;0.0;53.72166814285714;86.82883157142858
5.15399951002056;2.3573408635935116;5.763712405879435;-0.0479249515652085;0.023933272622932888;0.0132558376669725;5.238086425761325;1.6226298664764514;2.632927683581386;5.788015146199005;4.051182201619128;-0.8687672070969715;0.004394465670853392;0.17742428877332517;0.0122361578464362;0.0013544436758288487;0.0999286224125624;0.0;53.72166814285714;86.82883157142858
5.763712405879435;2.3573408635935116;5.763712405879435;-0.0061180789232181;0.023933272622932888;0.0132558376669725;5.788015146199005;1.6226298664764514;2.632927683581386;5.788015146199005;4.051182201619128;-0.8687672070969715;0.004394465670853392;0.17742428877332517;0.0122361578464362;0.0013544436758288487;0.0999286224125624;60.0;53.72166814285714;86.82883157142858
2.7441064778391606;4.596476671198061;4.226500203240967;-0.0346691138982359;0.05252788707664363;0.0509839910268175;3.9865513303876723;2.5187476678083445;6.3440898140899735;10.42971825474474;7.209310711348921;-0.9850107066381156;0.0007496080293920494;0.07137758743754452;0.1764046089527888;0.006648736052505959;0.2498215560314061;90.0;53.72844592857143;86.85125095714285
-2.425524448961545;4.596476671198061;4.226500203240967;-0.0622004690527174;0.05252788707664363;0.0509839910268175;3.905005852216698;2.5187476678083445;6.3440898140899735;10.42971825474474;7.209310711348921;-0.9850107066381156;0.0007496080293920494;0.07137758743754452;0.1764046089527888;0.006648736052505959;0.2498215560314061;90.0;53.72844592857143;86.85125095714285
-0.0550489359707788;4.596476671198061;4.226500203240967;-0.1019679820536351;0.05252788707664363;0.0509839910268175;3.2204075433958192;2.5187476678083445;6.3440898140899735;10.42971825474474;7.209310711348921;-0.9850107066381156;0.0007496080293920494;0.07137758743754452;0.1764046089527888;0.006648736052505959;0.2498215560314061;90.0;53.72844592857143;86.85125095714285
-9.871786004439157;4.596476671198061;4.226500203240967;-0.0484347914754767;0.05252788707664363;0.0509839910268175;10.42971825474474;2.5187476678083445;6.3440898140899735;10.42971825474474;7.209310711348921;-0.9850107066381156;0.0007496080293920494;0.07137758743754452;0.1764046089527888;0.006648736052505959;0.2498215560314061;90.0;53.72844592857143;86.85125095714285
-1.8251904030649784;4.7995123840105895;4.226500203240967;-0.1040073416947078;0.052274428376590756;0.0509839910268175;3.947115687096683;2.4865144827574146;6.182754272962373;10.42971825474474;7.209310711348921;-0.9850107066381156;0.0007089217415351848;0.07137758743754452;0.1764046089527888;0.007260701392220997;0.2498215560314061;90.0;53.728456585714284;86.85110801428571
0.7784930447093146;5.028205012233763;4.226500203240967;-0.0703579076170082;0.052583469914832225;0.0509839910268175;3.6988325069976264;2.420410540081145;5.858387182535901;10.42971825474474;7.209310711348921;-0.99214846538187;0.0005480085251861639;0.06423982869379019;0.1764046089527888;0.007985058424585963;0.2498215560314061;90.0;53.728483114285716;86.85095168571429
4.226500203240967;5.079203599553693;4.226500203240967;0.0509839910268175;0.05101663460879269;0.0509839910268175;5.6268748418366945;2.2739213830754097;5.1707184564075845;10.42971825474474;6.730885747747114;-0.99214846538187;0.0005604112207847575;0.0652595085143266;0.1764046089527888;0.008169242167606996;0.2498215560314061;0.0;53.728534514285705;86.85079097142857
4.093645076096215;2.2756684492737578;4.226500203240967;-0.0723972672580809;0.059843007273582174;0.0509839910268175;5.581239397820544;0.8388502769937578;0.7036697872125043;5.6268748418366945;1.928042334839068;-0.9727745487916796;0.0008915706200310396;0.08463342510451699;0.0326297542571632;0.0015907137891880859;0.10604670133578051;0.0;53.72861521428571;86.85061567142857
3.9924207754258094;1.2742451339421763;4.226500203240967;-0.0734169470786173;0.056761159022869614;0.0509839910268175;5.546437039921083;0.7283463530826291;0.5304884100487658;5.6268748418366945;1.928042334839068;-0.9727745487916796;0.0008933035315917223;0.08463342510451699;-0.0142755174875089;0.0004758575145632077;0.05914142959110841;0.0;53.728749871428576;86.85042484285714
2.153503385642151;0.7068195426585651;4.226500203240967;-0.0173345569491179;0.056514640064438855;0.0509839910268175;4.438791557102392;0.41815904372739987;0.17485698585101353;5.6268748418366945;1.1880832847343026;-0.9727745487916796;0.0008192091844328604;0.08463342510451699;-0.0397675130009177;0.0001368133677158249;0.0336494340776996;30.0;53.728916471428576;86.85022572857143
3.744738238415515;0.6522735805896239;4.093645076096215;-0.1305190170286529;0.03303840547293392;-0.0173345569491179;5.398745557322153;0.4002109697120927;0.16016882027789356;5.581239397820544;1.1424478407181518;-0.9727745487916796;0.0008516146306176083;0.08463342510451699;-0.0397675130009177;0.00011787511994551715;0.032629754257163204;30.0;53.72911855714286;86.8500365
3.291664724890719;0.5874416410693031;3.9924207754258094;-0.0652595085143265;0.033045148539897345;-0.0173345569491179;5.075849661557591;0.3686314157151215;0.1358891206521347;5.546437039921083;1.1076454828186915;-0.939634954624248;0.0013701017695735872;0.11777301927194861;-0.0397675130009177;8.928207919426848e-05;0.030590394616090505;0.0;53.72936061428572;86.84985798571428
3.557416483139461;0.939292859966546;5.322459438956924;-0.0642398286937901;0.03303840547293392;-0.0173345569491179;5.212282790473551;0.5367540137489843;0.2881048712756448;6.161304957755702;1.7225134006533098;-0.9330070357907616;0.001790184287762281;0.12440093810543496;-0.0397675130009177;0.00019875257807047786;0.04741511165494029;0.0;53.72966415714286;86.84970438571428
3.248646871336613;0.8310155591189576;5.322459438956924;-0.0774956663607627;0.022974874567310614;-0.0642398286937901;4.940761680333578;0.461867613164052;0.2133216920898584;6.161304957755702;1.3032377274190754;-0.9330070357907616;0.0007011236395121205;0.07545630671969006;-0.0560823901294993;0.00017696740416476458;0.03110023452635869;0.0;53.72998052857143;86.84957824285713
3.4670744216111107;1.1264339052006165;5.988884174429022;-0.0734169470786173;0.008505097278617217;-0.0642398286937901;4.858067230336626;0.6420771964487673;0.41226312619950883;6.50597925301818;1.6479120226815533;-0.9330070357907616;0.001002377936396919;0.08361374528398069;-0.0560823901294993;0.0004015527424291189;0.0509839910268176;0.0;53.73029894285714;86.84948340000001
5.322459438956924;1.6349030437664736;7.744503676834213;-0.0723972672580809;0.011609091595045737;-0.0520036708473539;6.161304957755702;1.1592816515382003;1.3439339475931373;8.16145326748331;3.3033860371466837;-0.9330070357907616;0.0009529899569174911;0.08361374528398069;-0.0560823901294993;0.0008933530433505978;0.08055470582237179;30.0;53.73059058571429;86.84942395714286
4.902372475383236;1.6914392637064952;7.744503676834213;-0.0734169470786173;0.023822337841694553;-0.0173345569491179;5.692747907309442;1.2377645526035803;1.5320610876819412;8.16145326748331;3.3033860371466837;-0.9330070357907616;0.0010165630553150733;0.08361374528398069;-0.0560823901294993;0.0009633874262815787;0.08055470582237179;30.0;53.73086874285714;86.84938394285714
5.988884174429022;1.5062106933304293;7.744503676834213;-0.0897318242071989;0.030606575730481086;-0.0101967982053635;6.50597925301818;1.1510661213293847;1.3249532156722736;8.16145326748331;3.3033860371466837;-0.9330070357907616;0.0010885283968422427;0.08361374528398069;-0.0571020699500356;0.0008011126365634523;0.0795350260018355;0.0;53.731124514285725;86.84936542857143
7.744503676834213;1.0436071785084515;7.744503676834213;-0.0520036708473539;0.03539975447891248;-0.0010196798205363;8.16145326748331;0.8526124427161822;0.726947977474455;8.16145326748331;2.4687053601738684;-0.9330070357907616;0.0007482712119023825;0.08361374528398069;-0.0846334251045171;0.00039561133136392337;0.052003670847353994;0.0;53.73134677142857;86.84936094285715
7.044717776844551;0.949802237050959;7.744503676834213;-0.0173345569491179;0.041173809927373864;0.023452635872336;7.476180188905172;0.8483591373476411;0.7197132259212339;8.16145326748331;2.4687053601738684;-0.9839910268175792;9.768670026357971e-05;0.03262975425716308;-0.0846334251045171;0.0002938027771738706;0.052003670847353994;0.0;53.73150692857143;86.84935652857143
7.1892028068338805;0.9443223265989374;7.744503676834213;-0.0101967982053635;0.03702742382414038;0.023452635872336;7.428354994971463;1.0276074648148141;1.0559771017431296;8.16145326748331;3.1378834569451373;-0.9941878250229428;5.084857636629744e-05;0.022432956051799513;-0.0866727847455898;0.0002740970971409754;0.049964311206281295;0.0;53.73167651428572;86.84933594285714
6.743718115304132;1.1270001195316568;7.744503676834213;-0.0010196798205363;0.022834367359962013;0.023452635872336;6.938721744999691;1.2480429743103845;1.5576112657255112;8.16145326748331;3.2004876636351938;-0.9931681452024064;2.3518085466401098e-05;0.013255837666972692;-0.0846334251045171;0.0004037188818799702;0.052003670847353994;0.0;53.73184145714286;86.84930340000001
6.028753240707255;1.0412251673798578;7.1892028068338805;0.023452635872336;0.016003884799284274;0.023452635872336;6.190822770774023;1.1504475596291217;1.3235295874566015;7.476180188905172;2.5152145850570555;-0.9931681452024064;2.3518085466401098e-05;0.013255837666972692;-0.0846334251045171;0.00033717507794979077;0.0418068726419904;0.0;53.732004628571424;86.84926177142857
4.921717681736003;0.9337699355783965;7.1892028068338805;-0.0132558376669725;0.01613790109311086;0.023452635872336;5.023569810538173;1.0033252222200548;1.0066615015429223;7.428354994971463;2.467389391123347;-0.9850107066381156;5.505707587080708e-05;0.021413276231263434;-0.0846334251045171;0.0002747902617652478;0.0418068726419904;0.0;53.7321693;86.84920335714285
4.869376472552639;0.8664215936386979;6.914035511275309;-0.023452635872336;0.01659769340569711;0.023452635872336;4.960965603848116;0.8823751747322874;0.7785859489838348;6.938721744999691;1.9777561411515752;-0.9850107066381156;5.456195828203956e-05;0.021413276231263434;-0.0846334251045171;0.0002272589732436916;0.0356887937187723;0.0;53.73233342857144;86.84912611428571
4.99477366352444;0.9850953155943971;7.267660603777432;0.0061180789232181;0.019487308448928632;0.023452635872336;5.035621946472795;0.9596564599078456;0.9209405210428585;7.271302930517425;2.310337326669309;-0.9850107066381156;6.228579266679051e-05;0.021413276231263434;-0.0846334251045171;0.00028314537107567827;0.041297032731722305;0.0;53.73249097142857;86.84903131428572
5.498683875996021;1.1629372098784925;7.404176552115362;0.0122361578464362;0.01974099931912988;0.0122361578464362;5.513025025513345;1.1285620164218968;1.2736522249102578;7.409352576296076;2.4483869724479597;-0.9850107066381156;7.342593841403159e-05;0.021413276231263434;-0.0846334251045171;0.0004124948411408515;0.04588559192413591;0.0;53.7326382;86.84892254285715
6.914035511275309;1.2215144315243487;7.741281406537077;-0.0142755174875089;0.02407764906892611;0.0122361578464362;6.917448516194642;1.1957647857996658;1.4298534229585205;7.747131709086616;2.7861661052384994;-0.9850107066381156;6.302846904993882e-05;0.01835423676965442;-0.0846334251045171;0.0004539361833205829;0.0494544712960131;0.0;53.7327498;86.84881105714285
7.267660603777432;1.074745286359157;7.741281406537077;-0.0285510349750178;0.0264901898550832;0.0122361578464362;7.271302930517425;1.0632253152164022;1.1304480709170177;7.747131709086616;2.7115097626138205;-0.9850107066381156;7.13464445412117e-05;0.01835423676965442;-0.0876924645661262;0.0003477829722891063;0.046395431834404005;0.0;53.73284905714286;86.84868357142857
7.404176552115362;0.9024572614218886;7.741281406537077;-0.0448659121035994;0.027426850942324863;0.0122361578464362;7.409352576296076;0.8941430658606352;0.7994918222266562;7.747131709086616;2.2341066835732706;-0.9850107066381156;8.248659028845175e-05;0.021413276231263434;-0.0948302233098807;0.00024559070196776003;0.03925767309064951;0.0;53.73293354285715;86.848534
7.741281406537077;0.7811944038238595;7.741281406537077;-0.0520036708473539;0.024646698960657305;0.0122361578464362;7.747131709086616;0.767726509560732;0.5894039934823047;7.747131709086616;1.9662276714225406;-0.9850107066381156;6.644478041242777e-05;0.021413276231263434;-0.1009483022330988;0.000174887910291945;0.03313959416743141;0.0;53.73300112857142;86.84834192857144
5.762392019227947;0.8116389766492295;7.741281406537077;0.0091771183848271;0.025546320552141056;0.0122361578464362;5.780904037664075;0.8025114177912527;0.6440245756853266;7.747131709086616;1.9662276714225406;-0.9850107066381156;6.406821598635036e-05;0.021413276231263434;-0.1009483022330988;0.0001911277672034768;0.03313959416743141;0.0;53.733055214285706;86.84813635714286
5.8997664626123525;0.8567204925511562;7.741281406537077;0.0122361578464362;0.025832527676150886;0.0122361578464362;5.935063259124944;0.8544523231340522;0.7300887725091787;7.747131709086616;1.9662276714225406;-0.9850107066381156;5.802778140340341e-05;0.021413276231263434;-0.1009483022330988;0.00021269013819424538;0.03313959416743141;0.0;53.733101471428576;86.84792295714286
6.2421568110377015;0.8265655492270069;7.741281406537077;-0.0224329560517997;0.0233987399160228;0.0122361578464362;6.296141018239921;0.8282312349258959;0.6859669785068746;7.747131709086616;1.9662276714225406;-0.9850107066381156;6.57516157881566e-05;0.021413276231263434;-0.1009483022330988;0.0001948411491192233;0.03313959416743141;0.0;53.73313987142857;86.84769804285715
7.333793653610896;0.7862565675312397;7.633326578664921;-0.0020393596410727;0.012014123150071008;0.0122361578464362;7.383285185185773;0.79838673969018;0.6374213861131154;7.688843159044305;1.9079391213802301;-0.989089425920261;4.817494138695659e-05;0.01733455694911812;-0.1009483022330988;0.00017863842602684914;0.0316100744366269;0.0;53.73316904285714;86.8474565857143
7.633326578664921;0.795627720280586;7.633326578664921;-0.0010196798205363;0.016934712437862987;0.0122361578464362;7.688843159044305;0.78605329558865;0.6178797835057775;7.688843159044305;1.8497953908662437;-0.989089425920261;5.015541174202177e-05;0.01733455694911812;-0.1004384623228306;0.00018164626537860393;0.032119914346895095;0.0;53.73318879999999;86.8472057142857
6.988797950582033;0.9514023732246771;7.633326578664921;0.0112164780258998;0.017269096723731975;0.0112164780258998;7.042111727972738;0.9202727932254092;0.8469020139508968;7.688843159044305;2.354048963258358;-0.986030386458652;5.609682280721377e-05;0.020393596410727022;-0.0897318242071989;0.00027903589508891793;0.0428265524625268;0.0;53.73320305714286;86.84694934285714
7.50958584813926;0.9950449680374737;7.633326578664921;-0.0015295197308045;0.022011580916119985;0.0112164780258998;7.572328596236033;0.9570765040635734;0.9159954346305512;7.688843159044305;2.354048963258358;-0.986030386458652;0.00013996974234421237;0.03364943407769949;-0.0897318242071989;0.00029500343732662853;0.0428265524625268;0.0;53.733216842857146;86.84670712857142
5.71893450041839;1.1888462520155627;7.633326578664921;-0.0336494340776996;0.021523688110285072;0.0112164780258998;5.8390477681780615;1.142594795573144;1.3055228668708345;7.688843159044305;2.9589394850753683;-0.986030386458652;0.00013996974234421237;0.03364943407769949;-0.0795350260018354;0.0004269027629739475;0.053023350667890295;0.0;53.733229542857146;86.8464565142857
5.197284348262205;1.20902425600618;7.50958584813926;-0.0305903946160905;0.02055230383475721;0.0112164780258998;5.334794195785947;1.1472750124344047;1.3162399541563632;7.572328596236033;3.1297762999001195;-0.986030386458652;0.00012145234452435703;0.03364943407769949;-0.0734169470786173;0.0004541837421149656;0.05710206995003571;0.0;53.73323990000001;86.84618892857144
5.817649588223615;1.0700418846236024;7.50958584813926;-0.0479249515652085;0.01777976947228249;-0.0015295197308045;5.945328397858471;1.0184610330927237;1.037262875928298;7.572328596236033;3.1297762999001195;-0.986030386458652;0.0001150158158703954;0.03364943407769949;-0.0734169470786173;0.00034924356917596716;0.05710206995003571;0.0;53.7332498;86.84586968571429
4.555160494443265;0.6307318553945119;5.817649588223615;-0.0081574385642908;0.015401650456295024;-0.0081574385642908;4.729903673968937;0.6159122484736798;0.3793478978199038;5.980435291397072;1.5378829950611586;-0.986030386458652;9.763718850470254e-05;0.03364943407769949;-0.0734169470786173;0.000133124741679515;0.03059039461609049;0.0;53.73325798571428;86.8455414142857
4.197242489238422;0.6039768818989008;5.817649588223615;-0.0142755174875089;0.01538235013485824;-0.0081574385642908;4.442552296335913;0.6050352015865124;0.3660675951588317;5.980435291397072;1.5378829950611586;-0.986030386458652;9.912254127100143e-05;0.03364943407769949;-0.0734169470786173;0.00012298720904952676;0.03059039461609049;0.0;53.733262814285716;86.84520978571429
5.462900841720868;0.688950173890698;6.07472800745893;-0.0428265524625267;0.017913283040229756;-0.0071377587437544;5.687556939350019;0.6923670614221171;0.47937214774229764;6.31413134436931;1.8715790480333965;-0.9982665443050882;7.327740313741051e-05;0.021413276231263323;-0.0734169470786173;0.00016220052207981063;0.03466911389823589;0.0;53.733263328571425;86.84488115714285
5.704883969805787;1.065482576676242;7.467089530833;-0.0448659121035994;0.018304263774271193;-0.0071377587437544;5.980435291397072;1.0681694287041337;1.1409859284181154;7.682564588153622;3.240012291817709;-0.9982665443050882;3.4559207695889566e-05;0.017334556949117896;-0.0734169470786173;0.0003640599630197956;0.05812174977057201;0.0;53.733261485714294;86.84456480000001
5.448800509473431;1.0003533053461933;7.467089530833;-0.0305903946160905;0.016056392137418902;-0.0071377587437544;5.73140199426247;0.9915359026727374;0.98314344628904;7.682564588153622;3.240012291817709;-0.9992862241256244;3.8421124888268804e-05;0.016314877128581706;-0.0734169470786173;0.0003215788739036549;0.05812174977057201;0.0;53.733259257142855;86.84425537142859
6.07472800745893;0.7195773944004498;7.467089530833;-0.0071377587437544;0.014717810471847314;-0.0071377587437544;6.31413134436931;0.7020810273195577;0.49291776892208544;7.682564588153622;1.995007648803603;-0.9992862241256244;3.8421124888268804e-05;0.016314877128581706;-0.095849903130417;0.0001668546274142139;0.035688793718772316;0.0;53.73325811428571;86.843958
7.467089530833;0.7206953156848628;7.467089530833;-0.0499643112062812;0.014652064239861576;-0.0071377587437544;7.682564588153622;0.6888595247186587;0.4745274447956164;7.682564588153622;1.9511625938911523;-0.9992862241256244;3.73318661929833e-05;0.016314877128581706;-0.095849903130417;0.0001645770865058894;0.035688793718772316;0.0;53.73325691428571;86.84370811428572
6.380847020698261;0.7784790371546286;7.467089530833;-0.0346691138982359;0.01685815814232998;-0.0071377587437544;6.6369273246841445;0.7676904291574886;0.589348595020009;7.682564588153622;2.1970087225827477;-1.0003059039461608;3.099436105677664e-05;0.015295197308045294;-0.0938105434893443;0.00018953101297970645;0.037728153359845015;0.0;53.73325622857143;86.84346605714286
5.640818210551747;1.4557484674319716;7.467089530833;-0.0469052717446721;0.016852283195944107;-0.0071377587437544;5.9334807485974554;1.450793968537817;2.1048031391457087;7.682564588153622;4.525899039260958;-0.9992862241256244;3.792600729950339e-05;0.016314877128581706;-0.0509839910268175;0.0006688048389054007;0.08055470582237181;0.0;53.73325582857142;86.84322062857142
6.784681872912748;1.5747513314275008;7.467089530833;-0.0295707147955541;0.015617135596076411;-0.0081574385642908;6.971854619861458;1.5872040060818056;2.519216556922132;7.682564588153622;4.525899039260958;-0.9992862241256244;1.8616421337619744e-05;0.012236157846436502;-0.0509839910268175;0.0007814440903497142;0.08055470582237181;0.0;53.733255199999995;86.84296034285714
5.319720529861272;1.3675291564436698;6.784681872912748;-0.0081574385642908;0.013160248194864022;-0.0081574385642908;5.485555865570874;1.39370106365487;1.9424026548327158;6.971854619861458;3.815189070968794;-0.9870500662791885;5.872094602768044e-05;0.02447231569287245;-0.0509839910268175;0.0005980030237118321;0.0683185479759356;0.0;53.7332554;86.84268259999999
2.9194457675370824;1.2392151989188407;6.784681872912748;-0.0295707147955541;0.018851933726182768;0.0122361578464362;3.1566655488926636;1.2577428257614687;1.581917015754444;6.971854619861458;3.815189070968794;-0.9870500662791885;5.545316994182326e-05;0.023452635872336036;-0.0509839910268175;0.000483630860706837;0.0683185479759356;0.0;53.73325678571428;86.84238044285713
4.130818402340619;1.1851501964249478;6.784681872912748;-0.0132558376669725;0.014621620116432069;0.0122361578464362;4.2417582663884845;1.1850261479217241;1.4042869712582;6.971854619861458;3.815189070968794;-0.9870500662791885;5.690138888896519e-05;0.023452635872336036;-0.0509839910268175;0.00044352633601677356;0.0683185479759356;0.0;53.73326872857143;86.84200107142858
4.252839450540938;0.7457181713066928;5.319720529861272;-0.0214132762312633;0.013343323608469172;0.0122361578464362;4.330848565759422;0.7117405278802168;0.5065745790272096;5.485555865570874;2.3288903166782107;-0.9870500662791885;7.051712258003506e-05;0.023452635872336036;-0.0509839910268175;0.00017933159065112235;0.0428265524625268;0.0;53.73328921428572;86.84161927142857
4.672377852941954;0.6594911663189289;4.755449695261352;0.0122361578464362;0.01334332360846917;0.0122361578464362;4.718421042540739;0.6097365814410222;0.3717786987473843;4.773199527383822;1.6165339784911583;-0.9870500662791885;6.34864528195536e-05;0.023452635872336036;-0.0509839910268175;0.00013685050153498115;0.0326297542571633;0.0;53.73331974285714;86.84122922857144
4.755449695261352;0.4690605119710252;4.755449695261352;-0.020393596410727;0.011698311909629621;0.0122361578464362;4.773199527383822;0.4662598581679835;0.2173982553388281;4.773199527383822;1.3272071696450944;-0.9870500662791885;8.056800963198608e-05;0.023452635872336036;-0.0601611094116447;6.852427428524375e-05;0.0234526358723361;0.0;53.73336532857143;86.84084327142857
4.173267635889167;0.5823756251485793;5.268498050485692;-0.0101967982053635;0.013103693364243659;0.0122361578464362;4.185850104227944;0.5769871548946564;0.3329141769134301;5.268798520618519;1.8228061628797918;-0.9870500662791885;7.866180691523505e-05;0.023452635872336036;-0.0601611094116447;0.00010427176419416435;0.031610074436626896;0.0;53.733431071428576;86.84047381428572
3.430671664400619;0.577596829348949;5.268498050485692;-0.0193739165901906;0.015594927367639911;0.0173345569491179;3.4459923577387275;0.5759907528731606;0.3317653473953904;5.268798520618519;1.8228061628797918;-0.9890894259202612;6.306560286910306e-05;0.021413276231263323;-0.0601611094116447;0.00010100398810830742;0.031610074436626896;0.0;53.733518242857144;86.8401148142857
4.714116144829995;0.590870105386778;5.268498050485692;-0.0163148771285816;0.0228441226261721;0.040787192821454;4.715392576479981;0.5887919164566466;0.34667592088469074;5.268798520618519;1.8228061628797918;-0.9890894259202612;4.214688474372816e-05;0.016314877128581706;-0.0601611094116447;0.0001044698112296709;0.031610074436626896;0.0;53.73362622857143;86.83978394285714
5.268498050485692;0.5840257805297501;5.268498050485692;0.003059039461609;0.02124031889788318;0.040787192821454;5.268798520618519;0.5794818468026027;0.3357992107737551;5.268798520618519;1.8228061628797918;-0.9890894259202612;0.0001471118135621696;0.03619863362904052;-0.0601611094116447;9.980332795554927e-05;0.031610074436626896;0.0;53.73374432857143;86.83953632857141
4.349178073841098;0.7171893034103269;5.268498050485692;0.0173345569491179;0.021556155897030683;0.040787192821454;4.353740408183251;0.6968366877881264;0.48558136944752667;5.268798520618519;1.8382161163046096;-0.9890894259202612;0.0002458877725210335;0.041806872641990234;-0.0601611094116447;0.0001428785581782096;0.031610074436626896;0.0;53.733859485714284;86.83926382857143
4.846868579587041;0.6558247751054308;5.268498050485692;0.040787192821454;0.01963254096939003;0.040787192821454;4.872650120856651;0.6214515054568533;0.38620197363458947;5.268798520618519;1.8382161163046096;-0.974813908432752;0.00039353183749111544;0.05608239012949945;-0.0601611094116447;0.00012376701925183393;0.031610074436626896;0.0;53.733962500000004;86.83897918571428
4.294092324363169;0.9012619350587701;5.268498050485692;-0.003059039461609;0.023619613059532734;0.040787192821454;4.357373152088219;0.8623805269195962;0.7437001732101205;5.268798520618519;2.534448435912291;-0.974813908432752;0.0003990771544853037;0.05608239012949945;-0.0469052717446721;0.0002373965058736795;0.0448659121035995;0.0;53.73405138571428;86.83866944285715
3.3396070935131887;0.780661136692789;4.846868579587041;-0.0132558376669725;0.02759714211616679;0.040787192821454;3.4305824043139097;0.7454031551859959;0.5556258637612378;4.872650120856651;2.1383000361504227;-0.974813908432752;0.000391501855377185;0.05608239012949945;-0.0469052717446721;0.00017934396859084053;0.037728153359845;0.0;53.734124071428575;86.83833252857143
3.770315835617929;0.7409853193764959;4.846868579587041;-0.0005098399102681;0.025897850561049096;0.040787192821454;3.855735655155315;0.7125689283746846;0.5077544776850463;4.872650120856651;2.1383000361504227;-0.9493219129193432;0.0009443006432346557;0.0815743856429082;-0.0469052717446721;0.00016743639058101295;0.037728153359845;0.0;53.73417761428572;86.83795452857144
2.6269898393972326;0.5560644622932375;4.294092324363169;-0.0346691138982359;0.017330629165881583;-0.0005098399102681;2.7343500847062283;0.5364364416595692;0.2877640559403803;4.357373152088219;1.623023067381991;-0.9493219129193432;0.0009443006432346557;0.0815743856429082;-0.0469052717446721;9.694402388042314e-05;0.030080554705822396;0.0;53.73422345714285;86.83753225714285
3.141365701280709;0.587885222665755;3.770315835617929;-0.0367084735393086;0.015935288931753725;-0.0005098399102681;3.252181366443427;0.5322505287361956;0.2832906253399598;3.855735655155315;1.5680655232838596;-0.9493219129193432;0.0010837505121106493;0.0815743856429082;-0.0336494340776996;0.0001043088980133197;0.03059039461609049;0.0;53.73425905714286;86.83707414285716
3.4727765404992006;0.5838660936920446;3.770315835617929;-0.0071377587437544;0.01558659112403552;-0.0005098399102681;3.580699915536118;0.5383772289520202;0.289850040654056;3.855735655155315;1.5680655232838596;-0.9493219129193432;0.0010588460973957098;0.0795350260018356;-0.0336494340776996;0.00010193233358724176;0.03059039461609049;0.0;53.7342771;86.83655092857143
2.8950509996462097;0.518405583685376;3.4727765404992006;-0.040787192821454;0.025606331693608445;-0.0071377587437544;3.036191284532664;0.4629282255382117;0.21430254199995744;3.580699915536118;1.2930297836646627;-0.9493219129193432;0.0011451698489970965;0.0795350260018356;-0.0336494340776996;8.940585859145638e-05;0.025491995513408694;0.0;53.73427414285714;86.83602134285715
2.009731180235648;0.5209396237622979;3.4727765404992006;-0.0285510349750178;0.025637250224763736;-0.0071377587437544;2.2876701318714554;0.4773972266429857;0.22790811200641423;3.580699915536118;1.2930297836646627;-0.9493219129193432;0.0009949264166859847;0.0795350260018356;-0.0336494340776996;9.257461115956017e-05;0.025491995513408694;0.0;53.73424797142858;86.83549414285713
3.2894274051522565;0.5785945450160354;3.4727765404992006;-0.0173345569491179;0.02627813732082694;-0.0071377587437544;3.4981288032745135;0.5017162142508131;0.2517191596421678;3.580699915536118;1.2930297836646627;-0.9493219129193432;0.0008454627945771826;0.0795350260018356;-0.0336494340776996;0.00010594278605624751;0.025491995513408694;0.0;53.73419154285715;86.83496960000001
2.413808290621218;0.4966037245590078;3.2894274051522565;-0.0876924645661262;0.03978369510250336;0.0469052717446721;2.7540076327941034;0.44700227969286066;0.19981103805061443;3.5227442037359102;1.2350740718644548;-0.9584990313041704;0.0005856250839926811;0.07035790761700844;-0.0336494340776996;8.982670854190714e-05;0.025491995513408694;0.0;53.734093185714286;86.83446164285714
3.1490448621179654;0.5347711922081894;3.2894274051522565;-0.0326297542571632;0.04367878895748878;0.0469052717446721;3.5227442037359102;0.48159011268852187;0.23192903663934317;3.5227442037359102;1.2350740718644548;-0.9584990313041704;0.0009688460976977382;0.08463342510451732;-0.0336494340776996;0.00011080731636587544;0.025491995513408694;0.0;53.73393732857143;86.83399127142857
2.1529557277803573;0.46069562157135235;3.2894274051522565;-0.020393596410727;0.04339675992963115;0.0469052717446721;2.6819840875787584;0.36717080237572153;0.13481439811723117;3.5227442037359102;0.8407601161571518;-0.9635974304068522;0.0006955411886987923;0.07953502600183548;-0.037728153359845;7.961490827360452e-05;0.021413276231263295;0.0;53.73372394285714;86.8335621142857
2.412668378369757;0.40805103644144247;3.1880280274771784;0.0469052717446721;0.043428693635511655;0.0469052717446721;2.8306566614446322;0.33881703320804574;0.11479698199190196;3.5227442037359102;0.8407601161571518;-0.9635974304068522;0.0007367349720841294;0.07953502600183548;-0.037728153359845;6.159262804251443e-05;0.020393596410727;0.0;53.7334687;86.83325201428572
3.1880280274771784;0.42386292872697073;3.1880280274771784;0.0275313551544814;0.036743525158151415;0.0469052717446721;3.4152782381705316;0.38413531382855204;0.14755993933016018;3.5227442037359102;1.019408580003173;-0.962577750586316;0.0007470334179304647;0.08055470582237167;-0.037728153359845;6.654380393017653e-05;0.020393596410727;0.0;53.73318498571429;86.83300487142857
3.00904888385311;0.5045276030611434;3.1880280274771784;-0.020393596410727;0.03576847563668169;0.0469052717446721;3.207723722066327;0.4555069539657729;0.20748658511117676;3.4152782381705316;1.3863869776542095;-0.962577750586316;0.0007428744301848283;0.08055470582237167;-0.0300805547058223;8.77719705485279e-05;0.028041195064749704;0.0;53.7328733;86.83281752857144
2.6656939772842896;0.5445941185983042;3.1880280274771784;-0.0091771183848271;0.040064588139403834;0.0469052717446721;2.8583533915966464;0.5080287132060652;0.25809317344181054;3.4152782381705316;1.3863869776542095;-0.962577750586316;0.0008822005196636443;0.08055470582237167;-0.0300805547058223;9.777334584160526e-05;0.028041195064749704;0.0;53.73253725714285;86.83268262857142
2.300360863933408;0.546086584398218;3.1880280274771784;-0.0622004690527174;0.0299690391241012;0.0275313551544814;2.5033356237327373;0.5087912865395962;0.25886857325861745;3.4152782381705316;1.3863869776542095;-0.962577750586316;0.0008774969025703663;0.08055470582237167;-0.0300805547058223;9.824370755093318e-05;0.028041195064749704;0.0;53.73218602857143;86.83260568571428
1.7255995248033078;0.7710207319744896;3.00904888385311;-0.020393596410727;0.02196232125655313;-0.0071377587437544;2.028891260516322;0.6028480031471929;0.36342571489855785;3.207723722066327;1.8598851838795194;-0.962577750586316;0.0004982863413343191;0.062200469052717366;-0.0112164780258998;0.0001699862461631569;0.0407871928214541;0.0;53.731826885714284;86.83255008571427
1.8778702693780749;0.6532621391778238;2.6656939772842896;-0.0560823901294993;0.02196232125655313;-0.0071377587437544;2.1991227610257518;0.4820108788908817;0.23233448736916018;2.8583533915966464;1.510514853409839;-0.962577750586316;0.0006109255927786293;0.062200469052717366;-0.0112164780258998;0.00011965754326507103;0.0336494340776996;0.0;53.73140041428571;86.8324747
2.3438813494204105;0.6058351238177844;2.3438813494204105;-0.0224329560517997;0.02071158803440836;-0.0071377587437544;2.55396178796282;0.4654780507218396;0.2166698157038035;2.55396178796282;1.2061232497760126;-0.962577750586316;0.0005851794781627928;0.062200469052717366;-0.0112164780258998;0.00010517535379365909;0.029570714795554204;0.0;53.7309809142857;86.83239165714285
0.6391597861355619;0.7378358414405317;2.3438813494204105;-0.0071377587437544;0.024737933214297396;0.0275313551544814;1.3478385381868074;0.4792803192808448;0.22970962444994855;2.55396178796282;1.2061232497760126;-0.9635974304068522;0.0003959455357363518;0.061180789232181176;-0.0056082390129499;0.00016390867776105053;0.0351789538085041;0.0;53.73055995714286;86.83229618571428
1.9389996036708277;1.3328813460358586;2.3438813494204105;-0.020393596410727;0.024697871757703608;0.0275313551544814;2.2005150121117953;0.5051318182759562;0.2551581538347737;2.55396178796282;1.2061232497760126;-0.9635974304068522;0.0007169674023526509;0.0831039053737126;0.0285510349750178;0.0005582079475147408;0.06933822779647181;0.0;53.730136442857145;86.83219084285714
1.2351260711961416;1.3169185296523787;2.3438813494204105;-0.020393596410727;0.020366873001723483;0.0275313551544814;1.5002760692092405;0.5277818889942957;0.278553722350387;2.55396178796282;1.2061232497760126;-0.9635974304068522;0.0007245922132196437;0.0831039053737126;0.0285510349750178;0.000537611055822066;0.06933822779647181;0.0;53.72971171428571;86.83207697142858
0.3247437180706214;1.5588187036607393;1.9389996036708277;0.0275313551544814;0.024562181945251317;0.0275313551544814;1.3603403433095342;0.5341986552713572;0.2853682032937263;2.5872071046058585;1.239368566419051;-0.9635974304068522;0.0007320189770511383;0.0831039053737126;0.0356887937187723;0.0007455604431038737;0.0683185479759355;30.0;53.729286671428575;86.83195912857143
-1.562311729409306;1.5626461337868358;1.9389996036708277;-0.0152951973080452;0.026047970471910046;0.0275313551544814;2.3148184001707937;0.47434796354542763;0.22500599051969436;2.5872071046058585;1.2268667612963242;-0.9635974304068522;0.0008186645550852283;0.0831039053737126;0.0356887937187723;0.0007502145484382762;0.0683185479759355;0.0;53.72886141428571;86.83184107142858
1.7272054749091614;1.3953735127099274;1.7272054749091614;-0.037728153359845;0.027541469167957532;0.0275313551544814;2.3952293141569445;0.4876980841771441;0.23784942131005674;2.5872071046058585;1.2268667612963242;-0.979912307535434;0.0005007000395795715;0.06678902824513078;0.0356887937187723;0.0006080662887034963;0.06525950851432641;0.0;53.72849641428571;86.83174304285716
-2.0243296850207657;1.2954543233786127;1.7272054749091614;-0.0499643112062812;0.02750369120784949;0.0275313551544814;2.5872071046058585;0.4742243501166274;0.22488873424353759;2.5872071046058585;1.2268667612963242;-0.979912307535434;0.0005162714877462686;0.06678902824513078;0.0356887937187723;0.0005211731518750259;0.06525950851432641;30.0;53.72812457142857;86.83163085714286
0.7396383174461372;1.3195439850150559;1.7272054749091614;-0.0453757520138676;0.016749507566930336;-0.0091771183848271;1.7694631547275619;0.397344760311007;0.1578828585466116;2.5872071046058585;0.987909876252048;-0.979912307535434;0.00046614083188369136;0.06678902824513078;0.0356887937187723;0.0005381556851697065;0.06525950851432641;30.0;53.727737142857144;86.8314848
-0.0574057618895953;1.7161367598748398;1.7272054749091614;-0.0474151116549403;0.01729917479505942;-0.0091771183848271;1.6203107608843528;0.7867780274405438;0.6190196644632332;3.8185874104194553;2.2192901820656448;-0.979912307535434;0.0002186439271991791;0.04588559192413577;0.0591414295911083;0.0008953830254645273;0.08871214438666239;0.0;53.72733557142857;86.83130265714286
-0.2630306341263889;1.5666766955232292;0.7396383174461372;-0.0214132762312633;0.018870637185330556;-0.0091771183848271;1.5992972283538105;0.9475679545874646;0.8978850285610713;3.8185874104194553;2.2192901820656448;-0.9982665443050882;0.00021062302226117015;0.03670847353930862;0.0591414295911083;0.0007741534838551205;0.0723972672580808;0.0;53.726878757142856;86.8310725857143
-1.111784661473224;1.6178981491662139;0.7396383174461372;-0.0091771183848271;0.02401201386926915;0.0122361578464362;1.988975536009445;0.9829501729552289;0.9661910425127144;3.8185874104194553;2.2192901820656448;-0.9982665443050882;0.00023419061948644292;0.03670847353930862;0.0591414295911083;0.0008258932718811893;0.0723972672580808;0.0;53.726423314285704;86.83083291428571
-3.3867705072605703;1.4275387080994502;0.1708495046943462;-0.0122361578464362;0.033165356281265816;0.0122361578464362;3.8185874104194553;0.9568726791056703;0.9156053240188632;3.8185874104194553;2.2192901820656448;-0.9982665443050882;0.00021537615111332507;0.03670847353930862;0.0591414295911083;0.0006424522052433084;0.0622004690527173;30.0;53.72596875714286;86.83061241428571
-3.0415474257808137;1.4814975860942332;0.2807061754251267;-0.0520036708473539;0.04683119145675343;0.0122361578464362;3.6374618386996747;0.9157300875513769;0.8385615932468523;3.8185874104194553;2.2192901820656448;-0.9982665443050882;0.00028860404249184867;0.03670847353930862;0.0591414295911083;0.0006928056640208313;0.06423982869379;30.0;53.72551534285714;86.83042597142857
0.1708495046943462;1.8382137147687105;1.6812622142018123;0.0122361578464362;0.048469535018158774;0.0122361578464362;1.6907748121720934;0.8551551408432593;0.7312903149106545;3.8185874104194553;2.127812598247362;-0.9982665443050882;0.0002585008930948618;0.03670847353930862;0.0591414295911083;0.001060195292825078;0.08871214438666239;30.0;53.72504691428571;86.83027937142857
-1.4470568110435844;2.442092829880989;3.2993662446732666;-0.0866727847455898;0.054053450739869065;0.0285510349750178;2.207744953977976;0.9713706756653364;0.9435609895425321;4.150731816289961;2.459957004117868;-0.9901091057407974;0.00031355796896566455;0.04486591210359947;0.0591414295911083;0.0018437188770476082;0.1162434995411439;30.0;53.72459211428571;86.83018297142858
0.2807061754251267;2.196643037846941;3.2993662446732666;-0.1177730192719486;0.05870943900272886;0.0285510349750178;2.0237003409890777;0.9598915059046967;0.9213917031079865;4.150731816289961;2.459957004117868;-0.9901091057407974;0.0002770678026735946;0.04486591210359947;0.0550627103089629;0.0015137725158938069;0.1121647802589985;30.0;53.72415037142857;86.83013985714285
1.6812622142018123;1.6506995039788532;3.2993662446732666;-0.0040787192821454;0.058804237719422746;0.0285510349750178;2.978786681481236;1.0230889516662363;1.046711003021518;4.150731816289961;2.459957004117868;-0.9901091057407974;0.0002547379994202361;0.04384623228306306;0.0254919955134087;0.0008293219611833985;0.0825940654634443;0.0;53.72376645714286;86.83017285714286
3.2993662446732666;1.6223276918226157;3.2993662446732666;0.0285510349750178;0.05528313231101251;0.0285510349750178;4.150731816289961;0.9348611300725793;0.8739653325205801;4.21638170163909;2.1926813606500124;-0.9901091057407974;0.0002132966572405021;0.04384623228306306;0.0254919955134087;0.0008011002586237251;0.0825940654634443;0.0;53.72338541428571;86.83023067142858
2.299724161352276;1.012117639890177;3.2993662446732666;-0.1019679820536351;0.05251822473846252;0.0285510349750178;3.740854000401801;0.9251254582431785;0.855857113489651;4.798820129913581;2.7751197889245036;-0.9901091057407974;0.0002132966572405021;0.04384623228306306;-0.0050983991026817;0.0003082602107658409;0.0520036708473539;0.0;53.72299618571429;86.83028761428571
2.467716053669617;0.558144596152103;3.2993662446732666;-0.0336494340776996;0.04126389932819004;0.0285510349750178;4.056003183526294;0.5716101659204725;0.3267381817836302;4.798820129913581;1.8200334484323455;-0.9901091057407974;6.47613806106379e-05;0.020393596410727133;-0.0295707147955541;9.183193477641085e-05;0.027531355154481497;0.0;53.722614414285715;86.83033007142856
2.397834349855877;0.43111420795112615;3.2993662446732666;-0.0152951973080452;0.044010788666102044;0.0285510349750178;4.21638170163909;0.382357486054319;0.14619724714177876;4.798820129913581;1.0579661295117804;-0.9901091057407974;0.00012640352041202885;0.03262975425716297;-0.0382379932701131;5.358410104422103e-05;0.018864076679922494;0.0;53.72225637142857;86.8303487142857
3.131517949705201;0.33946340950991344;3.131517949705201;-0.0458855919241358;0.030521529176363794;-0.0152951973080452;4.798820129913581;0.4714289316897486;0.22224523763413762;5.080006053264866;1.3391520528630654;-0.9901091057407974;0.00012640352041202885;0.03262975425716297;-0.0382379932701131;3.40022004085174e-05;0.016824717038849794;0.0;53.72190955714286;86.83033104285714
2.168570237142999;0.7276057629368675;4.32003936673416;-0.0520036708473539;0.022205576026130675;-0.0152951973080452;4.394658580079115;0.7062456463939681;0.4987829130504338;6.162706968490328;2.1067037849640338;-0.9707351891506067;0.00026736349793376747;0.05200367084735358;-0.0382379932701131;0.00014253197586607195;0.0351789538085042;0.0;53.72158148571429;86.83026994285714
2.5024789872748623;1.1229570879707413;4.32003936673416;-0.0887121443866625;0.06699221036472953;-0.0152951973080452;4.76694218174228;0.6379340631594441;0.4069598689391176;6.162706968490328;1.9463252668512379;-0.954420312022025;0.0005495805235305071;0.06831854797593528;-0.0101967982053635;0.00036672122005941224;0.0632201488732538;0.0;53.72127602857143;86.83015465714287
2.8860677864202544;2.1003654958338194;4.32003936673416;-0.0438462322830631;0.06964681898753382;-0.0438462322830631;5.080006053264866;0.5710494969078236;0.3260975279186784;6.162706968490328;1.7680483884112128;-0.954420312022025;0.000623650114809933;0.06831854797593528;0.037728153359845;0.0013495791455192185;0.1111451004384623;0.0;53.721010642857145;86.8299624142857
4.32003936673416;2.3209141345929725;4.32003936673416;-0.0469052717446721;0.06667012655761913;-0.0438462322830631;6.162706968490328;0.5849199877559745;0.34213139207644944;6.162706968490328;1.7680483884112128;-0.954420312022025;0.000654842522902204;0.06831854797593528;0.037728153359845;0.0016411538935436393;0.1111451004384623;0.0;53.72082832857143;86.82973987142859
0.5969220728757069;2.323177805052088;4.32003936673416;-0.2166819618639747;0.06886488526484082;-0.0356887937187723;4.629263060369711;0.535193591914392;0.28643218082622873;6.162706968490328;1.5588760443577634;-0.954420312022025;0.0006449401711268787;0.06831854797593528;0.037728153359845;0.0016376385586633988;0.1111451004384623;60.0;53.72072617142857;86.82951337142858
-2.099574379287616;2.2532175746754803;4.32003936673416;-0.1662078107474253;0.06876271579147183;-0.0356887937187723;4.901195738603224;0.5256905776356149;0.27635058341486646;6.162706968490328;1.5588760443577634;-0.954420312022025;0.0004810067374863866;0.061180789232181065;0.037728153359845;0.001520345201884683;0.1111451004384623;60.0;53.72069328571428;86.82929397142857
-1.2361430247206473;2.514129162685507;4.32003936673416;-0.0836137452839808;0.0757644848647343;-0.0020393596410727;4.603830924132565;0.6901345852414312;0.4762857457463623;6.2153774257117105;1.611546501579146;-0.954420312022025;0.0009809764786225129;0.09075150402773546;0.0672988681553992;0.0019445371960601348;0.1407158152340165;60.0;53.72073362857143;86.82910025714285
0.1187924710637324;1.4759672961459043;0.5969220728757069;-0.0356887937187723;0.07483242165267226;-0.0020393596410727;4.945475912723515;0.5714371469402301;0.3265404129031901;6.2153774257117105;1.611546501579146;-0.954420312022025;0.0009263154968227263;0.09075150402773546;0.0672988681553992;0.0007145413261676708;0.0774956663607627;60.0;53.720836757142855;86.82893275714287
-0.1187858331984443;1.563599985615059;0.1187924710637324;-0.0968695829509534;0.05175123246024383;-0.0020393596410727;4.945646940821304;0.7068576398293971;0.4996477229851857;6.418619058818254;1.8147881346856893;-0.9788926277148976;0.0010686618035930199;0.09279086366880784;0.0713775874375446;0.0008432718992468858;0.0734169470786173;60.0;53.72099232857143;86.82879575714286
-3.6841961448797087;1.628721368590837;0.1187924710637324;-0.0020393596410727;0.03640237237562805;-0.0020393596410727;6.2153774257117105;0.6861878622333146;0.47085378227632635;6.418619058818254;1.8147881346856893;-0.9788926277148976;0.0010707412974658378;0.09279086366880784;0.0713775874375446;0.0009075134063893012;0.0734169470786173;60.0;53.72117291428572;86.82873862857143
-1.3181373510346674;1.959100621687004;0.1187924710637324;-0.0571020699500356;0.04036744985935272;-0.0020393596410727;5.5005206085852505;0.7279939030642564;0.5299751228987298;6.834561912063111;1.8890859993395965;-0.9788926277148976;0.0010755934498357462;0.09279086366880784;0.0876924645661262;0.001263589598290241;0.0897318242071989;60.0;53.72133298571429;86.82873412857143
-3.800300999545037;1.6889423768066036;-0.1187858331984443;-0.078515346181299;0.03749977300749691;-0.0020393596410727;6.418619058818254;0.6243342580158551;0.38979326573220835;6.834561912063111;1.8889149712418067;-0.9788926277148976;0.0009757777439404807;0.09279086366880784;0.0876924645661262;0.000951269423296514;0.0856531049250535;60.0;53.72145398571429;86.82874175714285
-2.9526107096930843;1.9794394879624488;0.8555073894078432;-0.1040073416947078;0.03667001308058335;-0.0020393596410727;5.732972951914897;0.7782361964629503;0.6056515774851197;6.834561912063111;2.413303612099348;-1.0105027021515245;0.0005271516967594211;0.061180789232180954;0.0876924645661262;0.0012963663826665625;0.1029876618741714;60.0;53.721546471428574;86.82875744285715
-4.929090993099198;2.9009104070746634;2.9925661390016662;-0.113184460079535;0.025895699685950856;-0.037728153359845;6.834561912063111;0.8050737015492755;0.648143664926252;6.834561912063111;2.413303612099348;-1.0105027021515245;0.0005624535808384481;0.061180789232180954;0.0876924645661262;0.0027452784944320043;0.14071581523401638;60.0;53.721607042857144;86.8287668142857
-4.07470440081723;3.435559777061935;2.9925661390016662;-0.0774956663607627;0.025121243572749568;-0.037728153359845;6.043062582517462;0.8508752296420288;0.7239886564183752;6.834561912063111;2.413303612099348;-0.9839910268175792;0.0008679906448660742;0.08769246456612623;0.0876924645661262;0.003802416436146464;0.14071581523401638;60.0;53.721636585714286;86.82878172857144
0.8555073894078432;3.7035558021172807;3.829621229557359;-0.0856531049250535;0.026307325321617336;-0.037728153359845;4.421258299963763;0.7824162844257022;0.6121752421345213;6.834561912063111;2.413303612099348;-0.9839910268175792;0.00045679548739572693;0.07239726725808093;0.0876924645661262;0.004389155534713865;0.1560110125420617;60.0;53.72164207142857;86.82880915714284
2.9925661390016662;3.7640569983084853;3.945828602302434;-0.037728153359845;0.036497456908894554;-0.037728153359845;5.154561961759063;0.777332343130115;0.6042455716761548;6.834561912063111;2.413303612099348;-0.9788926277148976;0.000656922016775023;0.07749566636076255;0.0876924645661262;0.004515831369799703;0.1560110125420617;60.0;53.72162855714286;86.82883952857142
2.930401249064756;2.9709392027544386;3.945828602302434;-0.0632201488732537;0.03847341346144719;-0.037728153359845;4.991493107371157;0.7965269649997239;0.6344552059716714;6.043062582517462;2.4607471423668787;-0.9788926277148976;0.0006688048389054108;0.07749566636076255;0.07545630671969;0.002843571713741822;0.1437748546956255;60.0;53.72159761428571;86.82885247142858
3.829621229557359;1.7743348042512979;3.945828602302434;-0.1009483022330988;0.03865700332946386;-0.037728153359845;5.442652477058546;0.805145724589813;0.6482596378252551;5.442652477058546;1.8632867561053907;-0.9788926277148976;0.0005527492760986135;0.06933822779647192;0.0163148771285816;0.0009623724352246007;0.0846334251045171;60.0;53.72156495714285;86.82885638571429
3.945828602302434;1.839597580403156;3.945828602302434;-0.15091261343938;0.05208263370427272;0.0112164780258998;5.39266950802809;1.0253925089153144;1.0514297973396434;5.442652477058546;2.453520873105548;-0.9788926277148976;0.0008452152357828203;0.07545630671968995;0.0163148771285816;0.0010342635091134546;0.0846334251045171;60.0;53.72154428571428;86.82885034285714
-0.9316133570091684;1.823672880985797;3.945828602302434;-0.0438462322830631;0.059369538607156644;0.0112164780258998;3.582315440150583;0.9930700167965092;0.9861880582602192;5.442652477058546;2.453520873105548;-0.9472825532782706;0.001479213308197949;0.10706638115631695;0.0163148771285816;0.001003590974489388;0.0846334251045171;60.0;53.721537242857146;86.82884695714287
1.5543880642657208;1.8292192144557602;3.945828602302434;-0.0907515040277353;0.05939830322314898;0.0112164780258998;3.5793657209531555;1.1214783996026136;1.2577138007752395;5.442652477058546;2.9223994605321617;-0.9472825532782706;0.0024134011746820474;0.14479453451616198;0.0163148771285816;0.0010060789403729378;0.0846334251045171;60.0;53.72155141428572;86.82885747142858
0.387854581609284;1.9390268419109833;4.371997076135445;0.0112164780258998;0.05698261384797978;0.0112164780258998;2.9891316039529983;0.9976622832107136;0.995330031341214;5.39266950802809;2.872416491501706;-0.919241358213521;0.003875545304007265;0.17283572958091153;0.0163148771285816;0.001031924078506534;0.0866727847455898;60.0;53.721577242857144;86.82886135714286
2.773032678440501;2.1597094919735262;5.009595045988867;0.0101967982053635;0.03774078241507932;0.0112164780258998;3.856463644535227;0.9684372814793848;0.9378707681591812;5.2795555029819825;2.759302486455598;-0.919241358213521;0.0038946073311747656;0.17283572958091153;0.0163148771285816;0.001287800848380913;0.1019679820536351;60.0;53.72161748571428;86.82885405714285
0.8543239632371801;1.786260740754734;5.009595045988867;-0.0662791883348628;0.03754678000087035;0.0112164780258998;2.5202530165263846;1.2290072429780405;1.5104588032924842;5.2795555029819825;3.4571676470264556;-0.919241358213521;0.003970335566376559;0.17283572958091153;-0.0071377587437544;0.0008531866289619331;0.0785153461812991;60.0;53.72168141428572;86.82883752857143
4.371997076135445;1.786260740754734;5.009595045988867;-0.0433363923727949;0.03754678000087035;0.0112164780258998;4.82163784489047;1.2290072429780405;1.5104588032924842;5.2795555029819825;3.4571676470264556;-0.919241358213521;0.003970335566376559;0.17283572958091153;-0.0071377587437544;0.0008531866289619331;0.0785153461812991;60.0;53.72168141428572;86.82883752857143
5.009595045988867;1.786260740754734;5.009595045988867;-0.023452635872336;0.03754678000087035;0.0112164780258998;5.2795555029819825;1.2290072429780405;1.5104588032924842;5.2795555029819825;3.4571676470264556;-0.919241358213521;0.003970335566376559;0.17283572958091153;-0.0071377587437544;0.0008531866289619331;0.0785153461812991;60.0;53.72168141428572;86.82883752857143
1.3065880187371424;1.786260740754734;5.009595045988867;-0.0336494340776996;0.03754678000087035;0.0112164780258998;1.822387855955527;1.2290072429780405;1.5104588032924842;5.2795555029819825;3.4571676470264556;-0.919241358213521;0.003970335566376559;0.17283572958091153;-0.0071377587437544;0.0008531866289619331;0.0785153461812991;60.0;53.72168141428572;86.82883752857143
1.4972497734831984;1.7713879357325848;3.801522025477441;-0.0876924645661262;0.04367297916634907;-0.0209034363209952;4.708386502122508;0.4725009952201915;0.22325719048407142;5.8287517109481914;1.3509038927109245;-0.9554399918425616;0.0021343157678342293;0.13969613541348003;0.0285510349750178;0.0009754435395680326;0.09483022330988061;60.0;53.7284448;86.85111085714286
1.3664964411967238;1.7713879357325848;3.801522025477441;-0.0209034363209952;0.04367297916634907;-0.0209034363209952;4.677997190847607;0.4725009952201915;0.22325719048407142;5.8287517109481914;1.3509038927109245;-0.9554399918425616;0.0021343157678342293;0.13969613541348003;0.0285510349750178;0.0009754435395680326;0.09483022330988061;60.0;53.7284448;86.85111085714286
-0.8453019575465925;1.7713879357325848;3.801522025477441;-0.1529519730804527;0.04367297916634907;-0.0209034363209952;4.560234553254378;0.4725009952201915;0.22325719048407142;5.8287517109481914;1.3509038927109245;-0.9554399918425616;0.0021343157678342293;0.13969613541348003;0.0285510349750178;0.0009754435395680326;0.09483022330988061;60.0;53.7284448;86.85111085714286
0.0607959178548562;1.7713879357325848;3.801522025477441;-0.1029876618741715;0.04367297916634907;-0.0209034363209952;4.477847818237267;0.4725009952201915;0.22325719048407142;5.8287517109481914;1.3509038927109245;-0.9554399918425616;0.0021343157678342293;0.13969613541348003;0.0285510349750178;0.0009754435395680326;0.09483022330988061;60.0;53.7284448;86.85111085714286
0.4986422476501472;2.1818898604083357;4.048773135865662;-0.0484347914754767;0.04474477193767125;-0.0209034363209952;4.493981825872461;0.646176096636681;0.4175435478646172;5.963735685785574;1.485887867548307;-0.9554399918425616;0.002215911146462903;0.13969613541348003;0.0285510349750178;0.001451647636443376;0.09788926277148971;60.0;53.728474157142855;86.85094638571427
-1.6005738895956891;2.3898222786529555;4.048773135865662;-0.1121647802589986;0.040532234693203;-0.0423167125522585;4.7274509766763755;0.6759797941212291;0.4569486820601793;5.963735685785574;1.485887867548307;-0.9554399918425616;0.0019385215173566308;0.13969613541348003;0.0285510349750178;0.0017547833801654887;0.09788926277148971;60.0;53.72851475714286;86.85077852857144
3.801522025477441;2.1882741674537884;4.048773135865662;-0.0672988681553992;0.02829606033944588;-0.0423167125522585;5.8287517109481914;0.6507423022391088;0.42346554392345565;5.963735685785574;1.485887867548307;-0.9554399918425616;0.00047074542545919794;0.06118078923218073;0.0285510349750178;0.0014593467149486908;0.09788926277148971;60.0;53.72858135714286;86.85060741428572
4.048773135865662;2.0497205130602487;4.048773135865662;-0.058121749770572;0.02378411703438069;-0.0423167125522585;5.963735685785574;0.620569658497882;0.38510670104817796;5.963735685785574;1.469753859913113;-0.9778729478943612;0.00030087058075350975;0.05200367084735402;0.0285510349750178;0.0012819955946526335;0.09788926277148971;0.0;53.728679199999995;86.85044194285716
3.600318783492313;1.9556777058938177;4.048773135865662;-0.0423167125522585;0.02306279357909236;-0.0423167125522585;5.62929462027309;0.5470963022380498;0.29931436392254757;5.963735685785574;1.2821596135327331;-0.9666564698684612;0.0005078297328577897;0.063220148873254;0.0285510349750178;0.001159218810578331;0.09788926277148971;0.0;53.72881208571429;86.85027494285714
2.180516645169837;1.2676910023732704;5.840183882632404;-0.0458855919241358;0.00989804995325422;-0.0423167125522585;4.789028304098448;0.8156470811825635;0.6652801610416353;7.072396927786016;2.3908208555331756;-0.9554399918425616;0.0007283798627737027;0.07443662689915365;-0.037728153359845;0.0004224838384942091;0.060161109411644695;0.0;53.728982828571425;86.8501202
2.0944487763425417;1.3380022690986284;5.840183882632404;-0.0601611094116447;0.018082810444201635;-0.0423167125522585;4.681576072252841;0.9006690549605971;0.8112047465636151;7.072396927786016;2.5569815691883164;-0.9554399918425616;0.000734098470923953;0.07443662689915365;-0.037728153359845;0.0004748796573253937;0.060161109411644695;0.0;53.72918212857143;86.84996475714286
3.252066243381367;1.3284389454206766;5.840183882632404;-0.0683185479759355;0.020971422845417746;-0.0423167125522585;5.229776135245595;0.8677183366097987;0.7529351116888758;7.072396927786016;2.5569815691883164;-0.9554399918425616;0.0007212254136160305;0.07443662689915365;-0.037728153359845;0.0004748796573253937;0.060161109411644695;30.0;53.729416300000004;86.84981127142858
5.840183882632404;1.3256967332402116;5.840183882632404;-0.0550627103089629;0.020348632373827617;-0.0458855919241358;7.072396927786016;0.9053826699248473;0.8197177790002449;7.072396927786016;2.5573355984163246;-0.9554399918425616;0.0007409063377694894;0.07443662689915365;-0.037728153359845;0.0004713395665657154;0.060161109411644695;30.0;53.72967064285714;86.84967064285715
2.3315001427348747;1.2564224368444112;5.840183882632404;-0.0968695829509534;0.018059179264858803;-0.0550627103089629;4.5154153585977;0.9464000319005793;0.8956730203814175;7.072396927786016;2.6915176290414857;-0.9554399918425616;0.0008441383550272454;0.07443662689915365;-0.037728153359845;0.00042081281663212326;0.060161109411644695;30.0;53.72997228571428;86.84955537142856
3.933561340428584;1.499729559825436;6.156408068506356;-0.0897318242071989;0.020005088027792627;-0.0550627103089629;5.40353068885431;1.132055606601;1.2815498964367578;7.072396927786016;2.6915176290414857;-0.9554399918425616;0.0006725801105197565;0.07137758743754441;-0.0402773529111858;0.0006058630154334952;0.06372998878352198;30.0;53.730272885714285;86.84945368571428
3.033686180816343;1.770539183170022;6.640714173282131;-0.092790863668808;0.020620547646278114;-0.0550627103089629;4.515061329369692;1.3015119518238532;1.693933360740336;7.180740525897974;2.7998612271534435;-0.9554399918425616;0.0006318814447231724;0.07137758743754441;-0.0402773529111858;0.0008657502377768797;0.0739267869888855;30.0;53.730562157142856;86.84936992857145
2.8946695443811223;2.1143807705246087;7.651709923217427;-0.058121749770572;0.022424125917211754;-0.0469052717446721;4.380879298744531;1.5089277816507185;2.2768630502373584;8.05354145920952;3.6726621604649887;-0.9584990313041704;0.0004807468007522845;0.06831854797593562;-0.0402773529111858;0.0013119749646524287;0.09330070357907619;0.0;53.730832628571434;86.84931125714284
6.156408068506356;2.076389090242736;7.651709923217427;-0.1050270215152442;0.0308016935182762;-0.0163148771285816;6.905408965833535;1.5558155040650052;2.4205618826890465;8.05354145920952;3.6726621604649887;-0.9584990313041704;0.0004770457967762566;0.06831854797593562;-0.0520036708473539;0.001269877591667581;0.0815743856429081;0.0;53.73108431428572;86.84927768571428
6.640714173282131;2.019167431034021;7.651709923217427;-0.0632201488732537;0.03508505877422124;-0.0122361578464362;7.180740525897974;1.520679392570207;2.3124658149876933;8.05354145920952;3.6726621604649887;-0.9584990313041704;0.0004562508580480758;0.06831854797593562;-0.0520036708473539;0.0012189299917835384;0.0815743856429081;0.0;53.73130161428571;86.84926824285715
7.651709923217427;1.6044307106774873;7.651709923217427;-0.0469052717446721;0.03673409147404404;0.0010196798205363;8.05354145920952;1.233089611690326;1.5205099904585992;8.05354145920952;3.6726621604649887;-0.9584990313041704;0.00044496217702420516;0.06831854797593562;-0.0520036708473539;0.0007568367461880327;0.0815743856429081;0.0;53.73149865714286;86.84927145714286
7.55887840505174;1.0575271399657709;7.651709923217427;-0.0163148771285816;0.04018120139079643;0.0061180789232181;7.925912044839737;1.0688785880536855;1.1425014359996404;8.05354145920952;3.170489843926095;-0.9584990313041704;0.00022215926207941227;0.04282655246252687;-0.0795350260018354;0.00034777059434938813;0.0540430304884266;0.0;53.731639585714284;86.8492734142857
6.80768427654612;1.1309329460021513;7.651709923217427;-0.0122361578464362;0.02506500964263619;0.0061180789232181;7.150521456249155;1.176112572816925;1.3832407839380467;8.05354145920952;3.170489843926095;-0.9788926277148976;8.818044255927101e-05;0.022432956051799624;-0.0795350260018354;0.0003852014840601134;0.0540430304884266;0.0;53.73176782857143;86.84927365714285
6.058655100698635;1.2176762702456685;7.651709923217427;0.0010196798205363;0.01902057891104975;0.0061180789232181;6.383349004813767;1.27736835614522;1.631669917281142;8.05354145920952;3.170489843926095;-0.979912307535434;6.679136272456976e-05;0.023452635872336036;-0.0795350260018354;0.0004446155947120589;0.0540430304884266;0.0;53.731896185714284;86.8492667
4.541369396117898;1.0306166906605143;7.55887840505174;0.0061180789232181;0.015401650456294987;0.0061180789232181;4.883051615283424;1.081399956825823;1.1694258666228918;7.925912044839737;3.0428604295563124;-0.979912307535434;7.050474464031653e-05;0.023452635872336036;-0.0795350260018354;0.00031638013922161;0.05200367084735391;0.0;53.732030314285716;86.84924357142857
5.414406656431532;0.7164474141546096;6.80768427654612;-0.020393596410727;0.01551694826365701;0.0061180789232181;5.631152397432165;0.7486285643485905;0.5604447273586317;7.150521456249155;2.267469840965731;-0.979912307535434;0.00014952551180740206;0.03976751300091752;-0.0795350260018354;0.00015135744688583137;0.0397675130009177;0.0;53.73216834285714;86.8492024
5.107018945865101;0.6700099548139671;6.640710617476969;-0.0367084735393086;0.016811101084335697;0.0061180789232181;5.257543314101304;0.639393970458738;0.4088246494589895;6.761786544004808;1.878734928721384;-0.979912307535434;0.0001967597297757002;0.03976751300091752;-0.0795350260018354;0.00011818456843849486;0.034669113898235904;0.0;53.73231251428571;86.84914542857143
5.643820642725681;0.9360026031608655;7.297809239594142;-0.0295707147955541;0.01551694826365701;0.0061180789232181;5.780455509137404;0.8785062755926792;0.7717732762557206;7.406942320563721;2.523890705280297;-0.9809319873559702;0.00014551505933839708;0.03874783318038133;-0.0795350260018354;0.00025255948202964495;0.047924951565208485;0.0;53.73245380000001;86.8490746
5.482500736155466;1.0301141057126397;7.727272800140299;-0.020393596410727;0.012622552834706875;0.0010196798205363;5.6106449173346755;1.0034552843212075;1.006922507632155;7.825810874238795;2.5682675601374907;-0.9809319873559702;0.0001732911560681831;0.03874783318038133;-0.0897318242071989;0.00029716957677748093;0.0438462322830631;0.0;53.7325837142857;86.84899605714286
6.640710617476969;0.9925406633988372;7.727272800140299;0.0010196798205363;0.017157998667688187;0.0010196798205363;6.761786544004808;0.9788718989684789;0.958190194590156;7.825810874238795;2.5682675601374907;-0.9809319873559702;0.00017170677978413192;0.03874783318038133;-0.0897318242071989;0.0002757804969427809;0.0438462322830631;0.0;53.7326987;86.84890258571428
7.297809239594142;0.8252729742163529;7.727272800140299;-0.0122361578464362;0.026126023575605617;0.0010196798205363;7.406942320563721;0.8180049283554455;0.6691320628137976;7.825810874238795;2.2151659569041193;-0.9809319873559702;0.0001645770865058984;0.03874783318038133;-0.0978892627714897;0.0001918085538880314;0.0356887937187723;0.0;53.73279445714286;86.84880085714285
7.727272800140299;0.6945015022901421;7.727272800140299;-0.0295707147955541;0.026350576966847165;0.0010196798205363;7.825810874238795;0.6882447302901412;0.4736808087721493;7.825810874238795;2.2151659569041193;-0.9809319873559702;0.00016071516931352159;0.03874783318038133;-0.0978892627714897;0.0001275422908661771;0.0356887937187723;0.0;53.732867757142856;86.8486913
6.8473947212153226;0.38686248496655756;7.727272800140299;-0.0520036708473539;0.026032997436007854;0.0010196798205363;7.000858029657852;0.3681687540738469;0.13554823147628875;7.825810874238795;1.0640243302339867;-0.9809319873559702;4.80759178692099e-05;0.01937391659019061;-0.1142041399000713;4.4659606506713315e-05;0.019373916590190693;0.0;53.73292635714286;86.84857435714285
6.95338058848973;0.45815750193144333;7.727272800140299;-0.0774956663607627;0.02421503170296967;-0.0081574385642908;7.115676817193851;0.4321513345074029;0.18675477591652925;7.825810874238795;1.3665392810940427;-0.9839910268175792;2.6686838034509183e-05;0.016314877128581595;-0.1091057407973896;6.14936045247643e-05;0.024472315692872393;0.0;53.73296954285714;86.84845297142859
6.8849780099927855;0.6111373440768477;7.727272800140299;-0.0224329560517997;0.024370947037075718;-0.0081574385642908;7.043930215430275;0.59407467856275;0.3529247237094347;7.825810874238795;1.9184007210520466;-0.9839910268175792;3.881721895928145e-05;0.01835423676965442;-0.1009483022330988;0.00010654930510248927;0.032629754257163204;0.0;53.73300347142857;86.84831867142859
6.664418157420672;0.4465142159117599;6.95338058848973;-0.0367084735393086;0.024337593449143866;-0.0081574385642908;6.824614957798014;0.4392469211342445;0.19293785772591324;7.115676817193851;1.2082666640071027;-0.9901091057407974;3.446018417813891e-05;0.016314877128581706;-0.1009483022330988;6.406821598634815e-05;0.02141327623126331;0.0;53.733031942857146;86.84816794285715
6.28816383841592;0.5753539562497326;7.575372124976155;-0.0081574385642908;0.027593721920016363;-0.0081574385642908;6.459271593144752;0.5540684712263676;0.30699187080712415;7.663463218122276;1.7560530649355277;-0.9901091057407974;3.148947864554186e-05;0.016314877128581706;-0.1009483022330988;0.0001046183465063012;0.0316100744366269;0.0;53.733056714285716;86.84799522857143
5.750629346560316;0.6091494068426251;7.575372124976155;-0.0112164780258998;0.03225734071596946;0.0346691138982359;5.907410153186748;0.5899963696878551;0.3480957162448481;7.663463218122276;1.7560530649355277;-0.9901091057407974;3.5499931114548406e-05;0.016314877128581706;-0.1009483022330988;0.00011427313948724224;0.0316100744366269;0.0;53.73307811428572;86.84781182857144
6.928808004361635;0.6987637134953574;7.575372124976155;-0.0308453145712246;0.032267891420895395;0.0346691138982359;7.027336915969065;0.6753771889453859;0.4561343473477715;7.663463218122276;1.7560530649355277;-0.9890894259202612;4.7283729727184076e-05;0.017334556949117896;-0.1009483022330988;0.0001454655475795139;0.0316100744366269;0.0;53.733098057142854;86.84761965714286
7.575372124976155;0.8093897121648455;7.575372124976155;-0.0713775874375446;0.034442147354364475;0.0346691138982359;7.663463218122276;0.7864525476143159;0.6185076096490478;7.663463218122276;1.9145719084648043;-0.986030386458652;6.471186885175482e-05;0.020393596410727022;-0.0968695829509534;0.00020379039953617362;0.0356887937187723;0.0;53.73311538571428;86.84742487142857
6.0872256546721735;0.9093078342489557;7.575372124976155;0.0346691138982359;0.03475144561243712;0.0346691138982359;6.208992509619435;0.891814852076686;0.7953337303845612;7.663463218122276;2.104405892235773;-0.9839910268175792;8.194196094081956e-05;0.022432956051799846;-0.0938105434893443;0.00026320451018811935;0.0387478331803814;0.0;53.73313158571428;86.84720335714287
7.515159898385304;0.8698115899235553;7.575372124976155;-0.023452635872336;0.03475144561243712;0.0346691138982359;7.62385341877386;0.8583488899404859;0.7367628168620644;7.663463218122276;2.104405892235773;-0.9839910268175792;0.00013303809610149244;0.0305903946160907;-0.0938105434893443;0.00024136982452352946;0.0387478331803814;0.0;53.73314632857143;86.84698038571428
5.609880759356543;1.0421403195270116;7.575372124976155;0.0183542367696543;0.03455610800692619;0.0346691138982359;5.748891309657472;1.0320182604799477;1.0650616899640573;7.663463218122276;2.748686270890216;-0.9839910268175792;0.00011521386290590935;0.0305903946160907;-0.0836137452839808;0.0003392050600637333;0.0489446313857449;0.0;53.73315971428571;86.84674874285714
5.443818207925701;0.957382981011574;7.515159898385304;-0.0275313551544814;0.024168982833921132;0.0346691138982359;5.559057325886503;0.9494218710401018;0.9014018892092878;7.62385341877386;2.7651535111947796;-0.9839910268175792;0.0001169467744665905;0.0305903946160907;-0.0825940654634444;0.00028340530780978144;0.04792495156520861;0.0;53.73317337142856;86.84651737142858
6.194411760115822;0.9714247445094054;7.515159898385304;-0.0112164780258998;0.022640566239598744;0.0183542367696543;6.285553927761804;0.9577952278314977;0.9173716984567907;7.62385341877386;2.7651535111947796;-0.9839910268175792;0.00012922569066799316;0.0305903946160907;-0.0825940654634444;0.0002865740603778851;0.04792495156520861;0.0;53.733185799999994;86.84627014285715
4.797610933373495;0.5582761389392383;6.194411760115822;0.0010196798205363;0.0231177404889459;0.0183542367696543;4.91477694723206;0.5543283004035198;0.3072798646282549;6.285553927761804;1.4268540201827244;-0.9676761496889976;0.00024879658835503583;0.046905271744672294;-0.0825940654634444;9.417136538333458e-05;0.027531355154481504;0.0;53.73320014285714;86.8459919142857
4.723277122884862;0.5704364819459075;6.194411760115822;-0.0265116753339451;0.016693990319177184;0.0010196798205363;4.85869990757908;0.5568267908530751;0.3100560750117342;6.285553927761804;1.4268540201827244;-0.9676761496889976;0.00023805253667880867;0.046905271744672294;-0.0825940654634444;9.961765885976304e-05;0.027531355154481504;0.0;53.733215328571426;86.84569624285714
5.140559201208354;0.5734462194527004;6.194411760115822;-0.0520036708473539;0.01839835638038736;0.0010196798205363;5.327763088222593;0.5672374087729295;0.32175827791142747;6.285553927761804;1.4268540201827244;-0.9676761496889976;0.00025815431078271485;0.046905271744672294;-0.0825940654634444;0.0001035785995698927;0.027531355154481504;0.0;53.733229685714285;86.8454107142857
5.95262086303251;0.5057736659572317;5.95262086303251;-0.0305903946160905;0.019979393834724794;0.0010196798205363;6.126476163652815;0.5321910797285292;0.28322734534261773;6.126476163652815;1.2677762560737351;-0.9676761496889976;0.00022206023856165854;0.04588559192413588;-0.0825940654634444;7.446568535043946e-05;0.021413276231263392;0.0;53.73324104285714;86.84511852857143
4.986708445735601;0.530975517013963;6.082078201487653;-0.0178443968593861;0.013962097716209333;-0.0178443968593861;5.237236222519474;0.5494434520630844;0.30188810701499896;6.323215448388806;1.4645155408097263;-0.9676761496889976;0.00022800164962685234;0.04588559192413588;-0.0825940654634444;8.471461943790016e-05;0.024472315692872504;0.0;53.73325007142858;86.8448167
5.5113642522098365;0.4744682044672373;6.197111840214598;-0.0438462322830631;0.01485384716139035;-0.0178443968593861;5.761804842849621;0.4928171912039259;0.24286878394612688;6.527095222186274;1.2898589996667997;-0.9676761496889976;0.00022958602591090452;0.04588559192413588;-0.0866727847455898;6.614770985916682e-05;0.021413276231263392;0.0;53.73325798571428;86.84451375714286
5.897365895943725;0.4124342041363105;6.197111840214598;-0.0550627103089629;0.014409716818481572;-0.0163148771285816;6.123762594831528;0.4224359455418835;0.1784521280858652;6.527095222186274;1.2898589996667997;-0.9676761496889976;0.0002137422630703851;0.04588559192413588;-0.0866727847455898;5.248246440921949e-05;0.021413276231263392;0.0;53.733266528571434;86.84422241428571
6.082078201487653;0.43288607690600717;6.197111840214598;-0.0295707147955541;0.014444035930665745;-0.0163148771285816;6.323215448388806;0.4514132787286711;0.20377394821256892;6.527095222186274;1.2898589996667997;-0.9931681452024064;4.7085682691675036e-05;0.020393596410727133;-0.0866727847455898;5.9414110651946404e-05;0.021413276231263392;0.0;53.73326984285715;86.84396607142857
6.197111840214598;0.23325006461318382;6.197111840214598;-0.020393596410727;0.013755782947063672;-0.0163148771285816;6.527095222186274;0.2536095872710761;0.06431782275580554;6.527095222186274;0.765290379336653;-0.9829713469970428;9.11511480918698e-05;0.0305903946160907;-0.0978892627714897;1.312061610230531e-05;0.010196798205363497;0.0;53.73326937142857;86.84371325714285
5.883420068626114;0.36301516192966526;6.197111840214598;-0.0163148771285816;0.013145661505573902;-0.0163148771285816;6.170148138666999;0.38038531373952994;0.14469298690872062;6.527095222186274;1.1440641430996825;-0.9829713469970428;7.550543228685782e-05;0.026511675333945273;-0.0907515040277353;3.634163101544045e-05;0.017334556949117896;0.0;53.73326624285714;86.84345412857144
6.157477334634767;0.749750169986468;6.197111840214598;-0.0331395941674313;0.00863436916795157;-0.0163148771285816;6.45721218322778;0.7710393647406185;0.5945017019796165;6.527095222186274;2.1111834165159946;-0.9829713469970428;7.372300896729911e-05;0.026511675333945273;-0.0734169470786173;0.00016556732168342177;0.03466911389823589;0.0;53.73326291428571;86.8431874857143
6.034261060384288;1.1503811310523344;6.197111840214598;-0.0428265524625267;0.008843992372528529;-0.0163148771285816;6.289239332193024;1.169578469519079;1.3679137963625914;6.527095222186274;3.0231077398363335;-0.9829713469970428;8.263512556509055e-05;0.026511675333945273;-0.0571020699500356;0.0003911924068841855;0.050983991026817596;0.0;53.733263;86.8429206
5.134679184009005;1.1450226645249357;6.157477334634767;-0.0305903946160905;0.010568166827124682;-0.0122361578464362;5.383031079086591;1.1626111558379344;1.3516646996788175;6.45721218322778;2.9532247008778394;-0.9829713469970428;8.382340777812949e-05;0.026511675333945273;-0.0571020699500356;0.0003876275602450689;0.050983991026817596;0.0;53.73326595714286;86.84262732857142
4.1791183741478255;1.0696587120346523;6.157477334634767;-0.0275313551544814;0.009236944217875192;-0.0122361578464362;4.415911805670279;1.0849233337350135;1.1770586400826955;6.45721218322778;2.9532247008778394;-0.9829713469970428;9.734011795144599e-05;0.029570714795554287;-0.0571020699500356;0.0003368284956376555;0.050983991026817596;0.0;53.73327085714285;86.8423104
3.2389911426632496;0.941443155620271;6.034261060384288;-0.0336494340776996;0.010652743841152678;-0.0122361578464362;3.5039874823499404;0.952187617978811;0.9066612598321621;6.289239332193024;2.785251849843083;-0.9829713469970428;0.00010179617625034135;0.029570714795554287;-0.0571020699500356;0.0002557282345977503;0.0469052717446722;0.0;53.73327935714286;86.84196415714287
4.05234764677571;0.6730057301490914;5.134679184009005;-0.0122361578464362;0.011772145645364024;-0.003059039461609;4.2629858307611554;0.6554588493545395;0.4296263031971768;5.383031079086591;1.879043596736651;-1.0043846232283062;8.466510767907424e-06;0.008157438564290853;-0.0571020699500356;0.00014432677712535293;0.0336494340776997;0.0;53.733296585714285;86.84160835714286
4.718374391303298;0.5746342318320529;4.835239416059912;-0.0316100744366268;0.012042422586407765;-0.003059039461609;4.885100829318501;0.5459182258773556;0.29802670934507947;4.925083788892834;1.4210963065428932;-0.9911287855613338;5.570072873620433e-05;0.021413276231263323;-0.0571020699500356;0.0001082822166631727;0.028551034975017903;0.0;53.733322657142864;86.84125774285714
