acc_X_std;acc_X_kurt;acc_X_var;acc_X_iqr;acc_Y_std;acc_Y_kurt;acc_Y_var;acc_Y_iqr;acc_Z_std;acc_Z_kurt;acc_Z_iqr;acc_Z_range;acc_std;acc_var;acc_iqr;acc_kurt;acc_cv;hole
2.1229212231590595;-0.7519849666770035;4.506794519739157;2.444897894643127;0.3056455116075267;-0.9869033990254916;0.09341917876582674;0.3526220437918335;0.030879004596499234;-2.044575582404157;0.03913021311308247;0.0693382277964719;1.483059205624425;2.19946460738735;1.4411860200293494;1.535942279164205;0.5212482133283594;1
2.1229212231590595;-0.7519849666770035;4.506794519739157;2.444897894643127;0.3056455116075267;-0.9869033990254916;0.09341917876582674;0.3526220437918335;0.030879004596499234;-2.044575582404157;0.03913021311308247;0.0693382277964719;1.483059205624425;2.19946460738735;1.4411860200293494;1.535942279164205;0.5212482133283594;1
2.1229212231590595;-0.7519849666770035;4.506794519739157;2.444897894643127;0.3056455116075267;-0.9869033990254916;0.09341917876582674;0.3526220437918335;0.030879004596499234;-2.044575582404157;0.03913021311308247;0.0693382277964719;1.483059205624425;2.19946460738735;1.4411860200293494;1.535942279164205;0.5212482133283594;1
2.274117843740945;-1.8382158334110095;5.171611967220966;2.9877266748998754;0.2425415268640195;-0.9185571770838585;0.05882639225352989;0.27920198257313666;0.038255833505221895;-3.3477770869789527;0.0531508106454573;0.0825940654634445;1.3095753186612324;1.7149875152466685;1.1174813353549196;2.6612404569006998;0.43238557741286093;1
2.235081089641738;-0.006452353175097514;4.995587477274099;2.608414519970364;0.18496224900719346;-0.8060422410393162;0.03421103355779904;0.21215013512192193;0.035560800750447014;-4.041239164605228;0.051366370959518674;0.07545630671969;1.3049476971858596;1.702888492390678;1.213660893006764;2.115367781039623;0.42634468795994723;1
3.622755712029186;-0.6048328095532156;13.124358949040095;4.108265263542811;0.13294857158764378;-0.5972671995793721;0.017675322687194843;0.15146650143818707;0.03492651473805259;-3.6659667466919394;0.04907209136331192;0.07545630671969;2.8164973076501507;7.932657084000547;3.0370052491364903;0.7168765650345819;0.5996038676042589;1
3.603490398482773;2.6329119515255854;12.985143051957534;2.5848230920665927;0.08661247197593155;-0.13007667362063913;0.007501720301781528;0.09715108152193253;0.03413897582143474;-2.8947502899209727;0.045630671969001724;0.07545630671969;2.8708605438719705;8.241840262360867;1.9406569193773202;3.486678638779587;0.6627386508439208;1
4.053975544226729;1.8473456112596836;16.4347177131884;2.9341040152701217;0.04639965207980988;1.268796635091448;0.0021529277131274054;0.04920387537315918;0.025271384890716772;-0.7143868630447354;0.02816865504231668;0.059141429591108394;2.7384635163707705;7.499182430493764;1.7845147912748702;3.8348224546019622;0.6101805495953695;1
4.427607992339674;0.8175091868681772;19.603712533830155;4.801678378169149;0.016488992822612666;-1.0337847923911294;0.000271886884304172;0.020159545350043828;0.028262411830941504;-0.0792324044811501;0.029953094728255303;0.0662791883348629;2.8098366153912395;7.895181805193296;1.888628257627329;3.677356006033886;0.6388550533859807;1
1.7349660903427924;3.236253934910728;3.010107334639354;1.0295821868848485;0.026110925488908896;1.8852954072714851;0.0006817804298873523;0.025398057611742964;0.020539125055694617;2.068950515873601;0.01593249719588044;0.048434791475476704;0.4196649082630123;0.17611863522740254;0.4762642725497659;0.37644763968013706;0.1451502830699109;1
0.3900626888939269;3.814981988424872;0.1521489012671604;0.22576040396270625;0.04884702259049295;-0.5609474669058407;0.002386031615956129;0.05642846046828209;0.020853117147289414;-0.7532835304703536;0.023580095849903143;0.048434791475476704;0.19098811675064228;0.036476460739956966;0.14536665325738696;3.3395693051297286;0.07189168575692165;1
0.18871838534280444;3.2756482271245737;0.03561462896639523;0.12404810871324934;0.06758923257511702;-1.0726835662346268;0.00456830436009326;0.07890281154713463;0.014623313119403824;1.5721652057317588;0.009686958295095305;0.0356887937187723;0.036832473286597105;0.0013566310884078892;0.050277519289458006;-3.20352190183495;0.014332263108476611;0
0.475464516238233;2.0501667891395385;0.2260665062016569;0.35111552747349606;0.08119423151542199;-1.2208347024886113;0.006592503231379945;0.09500894885848554;0.044644240742990636;3.390690227282491;0.03492403385337005;0.0938105434893443;0.14799268957204958;0.021901836166769034;0.0992771779631223;3.416508415878056;0.05957292750445597;0
0.6789853859539923;-3.8285207681554727;0.4610211543390918;0.9640968504693046;0.057043461561849515;0.23438790399822018;0.003253956506958203;0.0581526359326463;0.04785891615290814;-4.733349620563391;0.07469154685428778;0.0938105434893443;0.15592316188717328;0.024312032412893647;0.23080870669467934;-4.437053904460035;0.06420500754606308;1
0.6251338383264157;1.0534256547570688;0.3907923158207172;0.6004700814854085;0.09843285173318714;2.4568828815517545;0.009689026300327601;0.08059888761627798;0.06970402275522868;-2.206647998856697;0.0904965840726012;0.1539716529009891;0.15292931000979013;0.023387373860070493;0.21971514631817968;-3.9847747671334606;0.0630682516517048;1
0.7201400791520114;1.675597444925911;0.5186017336010652;0.6520919506606937;0.09815272651390368;0.9620401347141545;0.009633957722113172;0.09927278239260717;0.0837745994546588;-5.563416743933506;0.13676455592943818;0.15856021209340262;0.2009276948907099;0.04037193857409421;0.24976301365770048;-1.4174401049089944;0.0818485997760277;1
1.391546880924971;-0.3859261475844793;1.936402721812015;1.5643350366596414;0.0849604062702083;2.2051154084140787;0.00721827063359885;0.0793859502694163;0.062499767464497404;2.787993421375102;0.05493525033139597;0.1340878964005302;0.5998544821141827;0.3598253997124743;0.4859836706708007;2.704294422019334;0.21366590904976462;1
1.5810073979190213;-2.435629869263897;2.499584392274675;2.034460941884838;0.1353508689065427;1.0379319797503594;0.0183198577137561;0.1147875806639167;0.038661365796768425;0.8243517636944979;0.04244417252982567;0.084123585194249;0.8890805278673548;0.7904641850328943;1.2014716402103485;-2.5812137259766015;0.26684141447626764;1
1.6227734888049055;-0.2886495256059618;2.6333937959680447;1.718497767074151;0.09732789506174631;-4.715317028429775;0.009472719157150302;0.1475598603851993;0.04523973405479599;-3.16824786638343;0.0625828489854186;0.09737942286122162;1.2237755126202816;1.497626505289033;1.28728888245046;-0.21701054788933405;0.29803874365181326;1
1.405811923835563;-2.168386147723284;1.9763071651982471;1.7742828876372094;0.15616969947644235;1.7763205529043269;0.02438897503456232;0.11293871399017119;0.04693758741853626;1.1071179643981477;0.03849291322524731;0.1142041399000714;1.190394196454179;1.4170383429517905;1.5538399698178598;-2.627659856953297;0.23744509909516087;1
0.9325563510628577;-0.8072418868341398;0.8696613479076719;1.0518607154843682;0.15563646200205364;-5.060931727891937;0.024222708304516685;0.2430023990311767;0.027392530109049604;0.03685976243983724;0.02957071479555417;0.0632201488732538;0.8428699989489016;0.7104298351281214;1.0372045769175768;-1.7088498103657166;0.15871408829614528;0
1.358318433711551;0.7473859409573205;1.8450289673606015;1.310507256061558;0.16211711470060486;2.213774359141791;0.02628195887884907;0.140004036489481;0.023326684934942242;1.0762586717521518;0.025491995513408798;0.0499643112062812;1.2733072582276947;1.6213113738553293;1.3033569120723705;0.3781202196513611;0.25241664353969684;0
1.5672876207976965;-1.704163042409279;2.456390486305704;2.0719633937248965;0.06802192870548357;-1.9225552809717037;0.004626982784813889;0.08584032637129102;0.020444516830593718;0.3614143214289349;0.01988375650045885;0.048944631385744904;1.4257635457872766;2.0328016884959075;1.8677434334320315;-1.3606237043803144;0.3179707780070935;0
1.3562785368758965;1.481368052269966;1.8394914695902225;0.9021687087803354;0.08076259852496677;-3.2324863055223254;0.006522597320504965;0.11278629204981261;0.014190289755717234;-3.504095556055404;0.02039359641072705;0.0295707147955542;1.0515731528334653;1.1058060957601146;0.6436753962823625;1.717742446563049;0.30253618097711477;0
1.9835101972842815;0.7105594606249515;3.934312702730729;2.234539971285958;0.0926990727904277;2.820402690234385;0.008593118096205015;0.0677843109580909;0.043119919515619165;2.6152019228461256;0.026766595289079237;0.10094830223309881;0.5643769849183181;0.3185213811054915;0.9251181090931642;-5.535791377793788;0.19596909525834869;0
1.7613759533618703;-0.5218296340368607;3.102445249081437;1.9126272261289836;0.02602959360522521;2.1353839569082584;0.0006775397432531811;0.02305116545751007;0.043623351892795405;-1.285199233293259;0.0512389109819517;0.10094830223309881;0.592754067759624;0.35135738484558093;0.4762297473528254;2.101777414145335;0.23384027269709115;1
1.3619102180897922;-0.9781738881445623;1.854799442137385;1.6370639766667883;0.2769042351737944;3.884986985080854;0.07667595545718404;0.15377543009721384;0.0406797725518842;-1.4756144924698322;0.049199551340879;0.09279086366880801;0.2108840841185013;0.044472096934499133;0.22178375594811195;-0.23690601769245667;0.09423857336392646;1
1.6774823998046164;-2.1536559780146796;2.813947201654255;2.154301909159832;0.4401738936263195;-3.27460975311212;0.1937530566301544;0.6278347223388092;0.04469855013183331;-2.895253910224362;0.06296522891811973;0.09279086366880801;0.27165979336686075;0.07379904333212549;0.3734430982201271;-3.121252236786903;0.11795974327134658;1
1.0027686578528217;2.6775666162535074;1.0055449811719492;0.7244696539837172;0.36492511256863885;1.9311070867559188;0.13317033778323373;0.28343591415961944;0.026424925986210566;-2.1284322943938747;0.035433873763638206;0.05608239012949939;0.24473209723868924;0.05989379941884725;0.21866044426566233;0.9569091901511673;0.10870251699004418;1
0.7188480304529163;1.7893714708781676;0.516742490886037;0.5734656965508331;0.1910259900927621;1.0291921043650145;0.036490928890920045;0.17947045747620383;0.018994530447840392;-5.517644029930295;0.030590394616090526;0.0367084735393087;0.3706293449699154;0.13736611135282856;0.2944254958560095;1.552871168482648;0.17035510477212312;1
0.7311407473063568;2.648204127273214;0.5345667923716979;0.449182581332928;0.2749391501893124;-0.9653290366710774;0.0755915363068213;0.3138922347965041;0.015055392128309683;-1.1866425384995125;0.01835423676965435;0.0336494340776996;0.4158949877254171;0.17296864081512484;0.430242003086891;1.6426209009156914;0.1833187402566885;1
0.611145732842957;3.9809093832277007;0.373499106772155;0.32426960378997705;0.18068896706622095;-0.5207770540300416;0.03264850281945788;0.21693868514779147;0.007826776071288745;-0.257285700281793;0.008412358519424873;0.018354236769654406;0.3995255404270617;0.15962065745353568;0.3841339102883845;2.0472494231403218;0.1775368069629226;1
0.9014607613458628;1.579912869340614;0.8126315042462627;0.5846422772496087;0.10207326122241313;-5.491339488938532;0.010418950656578989;0.1663880413588461;0.015829687668257365;0.13229799763646888;0.0168247170388498;0.0367084735393087;0.6284300707614833;0.3949243538372829;0.42527192313680784;1.5380842930878806;0.25290640857267743;1
0.5273985117789046;3.48727289438245;0.2781491902266034;0.3254415032300022;0.20612752976800156;0.3545307029926992;0.04248855852825837;0.2331381149289533;0.015761119002904802;2.0656007788231054;0.01300091771183845;0.0367084735393087;0.462130001381719;0.21356413817706763;0.3205040915273223;1.8169720269270826;0.17845610791851166;0
1.1002737532510174;-0.7163122910290856;1.2106023320930805;1.3469246636408925;0.2866192407849041;-1.913073856791108;0.08215058918811484;0.3564619530307378;0.018173963339512336;1.3637675909448017;0.014785357397777046;0.0438462322830631;0.9099370874159066;0.8279855030549433;1.0558069067176885;-0.7335618320237796;0.303885300570042;0
1.1851064614390756;-1.7148543532351184;1.4044773249446472;1.550826314534416;0.3080167852643258;-1.055349190350091;0.0948743400045698;0.35347257369832485;0.029108540114463594;-0.7516777914307866;0.03237483430202916;0.06831854797593559;1.0095834879391825;1.0192588191194454;1.2586697831771443;-0.8104805428758812;0.2939125339228409;0
1.2334831847720336;3.953915840027012;1.5214807671153585;0.6967844861134109;0.30958498072526947;-0.9337865646861658;0.09584286029066548;0.3511210137096964;0.022238996367160205;-2.210077055327945;0.030080554705822427;0.046905271744672204;1.049849329739479;1.1021836151544335;0.5508555099555132;3.9640807255529467;0.28599099366036784;0
0.37961710855700836;3.5112201792047806;0.14410914910918346;0.268253470986624;0.33820237976214873;-1.179825000717635;0.11438084967678068;0.39393184709449447;0.013147544568397432;3.8075187969947883;0.0084123585194249;0.027531355154481497;0.4154926628072158;0.17263415284663075;0.23293196978781472;3.782823008219772;0.10416375674643798;0
0.5744981961977913;-4.190265350522585;0.3300481774345159;0.8609804594134998;0.2577622683856102;-1.3752386065568984;0.06644138700329535;0.32845945226113327;0.013655082714115939;3.821692624481848;0.008667278474558976;0.0285510349750178;0.6013660172280719;0.3616410866767537;0.8987942038513448;-4.308874731609299;0.16241984003169752;1
0.996947241997077;1.2413525498102338;0.9939038033255784;0.8593800329637542;0.13292421595353593;3.5095457917302326;0.017668847186862253;0.08157514928194132;0.03965842322224559;1.5000000000000515;0.04180687264199042;0.08463342510451721;0.9965283698989972;0.9930687920135526;0.8561333967323765;1.2037470776857138;0.32368351616598945;1
0.7139061051555116;3.0701116755703524;0.5096619269783123;0.43342968217132416;0.05232682112480037;0.17923256667742749;0.0027380962090268537;0.05927342173064987;0.03536288967790202;2.12120589181605;0.022305496074232746;0.08463342510451721;0.7027357558396989;0.4938375425355929;0.4345262248837143;3.0433267026870645;0.25233608806440905;1
0.6025351508894904;-0.9352611929181212;0.3630486080574209;0.761501750079832;0.14636517011080408;1.1691973589277076;0.02142276302156462;0.15737597733505992;0.04791478080691483;1.5187748453899186;0.03046293463852355;0.1172631793616804;0.5938586304686511;0.3526680729821019;0.7635072785793011;-1.2680391130665072;0.23392838628586346;0
0.7708991542574298;-1.6780865671037777;0.5942855060348207;0.93493389048252;0.1383902679397503;-1.7040694614337308;0.019151866260435874;0.16929886643121173;0.050267517651198676;-0.17179100856080254;0.054170490465993724;0.1172631793616804;0.7674584233128156;0.5889924315137928;0.909113622613748;-1.41007323892266;0.3682502517388297;0
1.0062435903088018;-3.7359021612838266;1.012526163037548;1.4255841281919057;0.08856850517906402;1.2154185092897158;0.00784438010965389;0.08906823877445136;0.02675688229037801;0.7220682133098251;0.026384215356378072;0.0627103089629856;1.0080803956407092;1.0162260840751287;1.4241472944400095;-3.691423805595294;0.5457623162546217;0
0.7068347232034594;-2.857169640454215;0.4996153259261111;0.9388840191191914;0.06419221636325205;0.7608351961301612;0.004120640641626564;0.059207897031196055;0.016596574724031192;-1.4602430368149513;0.020138676455592898;0.037728153359844904;0.7056797078161161;0.49798385002343903;0.9358754267664267;-2.836505443570678;0.44528064664567046;0
1.039989165902586;1.2790816452217424;1.0815774651947565;0.9110016147521847;0.06690340543675737;-1.5722001728711525;0.004476065659035134;0.08042436314738777;0.024273234861299092;1.7836401384083285;0.020393596410727022;0.0571020699500357;0.6013568679514177;0.3616300826323388;0.6393658873152938;0.307723260886517;0.533955616932121;0
1.148646113131067;-0.19562493307677897;1.3193878932111078;1.3705763123280474;0.08252304325718948;-0.22545366718416737;0.006810052668427967;0.08986944895829097;0.023495084116792655;1.6036289653314846;0.016569797083715754;0.0571020699500357;0.6992997680863189;0.4890201656455793;1.0998102280042068;-5.173288203538862;0.5464511046647;0
1.3540366152899377;3.1488973868263592;1.833415155545831;0.854110847115015;0.12675562605126303;-3.5151444126373566;0.01606698873564763;0.177557109431128;0.01568672819987655;2.0656020630848175;0.014785357397777098;0.034669113898236;0.8335984100295938;0.6948863092038668;0.5790166908193539;2.1600389245976537;0.4877609180185507;0
1.3228554535873311;-0.10401662935377942;1.7499465510857435;1.4312454407262802;0.12380621545093871;0.17038921368896354;0.015327978984284257;0.13234269823932493;0.014005912632498055;-2.2757994231355454;0.017844396859386172;0.0316100744366269;0.8844593796333724;0.7822683942214499;1.1320631888806005;-2.2230072882630747;0.6020164028040008;1
0.9063946707366682;-2.3630890832690916;0.8215512991398333;1.1706700310266571;0.06302865658297284;-1.7818293579595323;0.003972611550654326;0.07984153359702206;0.010934847858431067;0.14593572779332575;0.01223615784643622;0.024472315692872497;0.8941219129759231;0.7994539952637242;1.1389952831423749;-2.1890681193836343;0.6114785069197103;0
1.0974254959178156;1.8621360733647982;1.2043427190904636;0.9609520542590796;0.08381828241144668;-0.678791570056827;0.007025504466405032;0.09305066075189239;0.017153669665810767;-1.1044463034858456;0.019883756500458892;0.039767513000917805;0.9907585829314622;0.9816025696523591;0.8801578963587142;2.5503573280303407;0.9023897454729615;0
0.39365176874485935;0.7138972203008009;0.15496171503595624;0.36039993652428237;0.09738586083534707;0.09036097433015478;0.009484005890641587;0.111895563842062;0.016504959779992397;0.6142707301462913;0.015295197308045322;0.039767513000917805;0.2644895814303061;0.06995473868517853;0.16703074943458862;2.913599347861421;0.44804947563331504;0
0.3539303902683669;0.46083665183961386;0.1252667211555185;0.33613635529556074;0.10168362439941882;3.886480722185059;0.010339559471002081;0.054731561935669304;0.016282980955104723;1.5583237216479908;0.010706638115631752;0.039767513000917805;0.23365420429718348;0.054594287185749955;0.1509553710060072;2.676621967957317;0.40689439022892043;0
0.5686725510888938;-1.841612128712919;0.32338847036195056;0.7007194174895622;0.1445525724017521;3.938295114580381;0.020895446187963778;0.08564854516108389;0.013715230581802091;2.240056046365755;0.008922198429693128;0.03262975425716331;0.48165658825370955;0.2319930690082035;0.5727701367819891;-0.6864290678746556;0.5998910189467043;0
0.390027941621502;1.460345659055502;0.1521217952455058;0.2919387388761684;0.20164864616749978;-4.546594576923098;0.04066217650118552;0.30895139521612613;0.010930885239037184;1.7218833628612558;0.007392678698888579;0.026511675333945106;0.40045157185452224;0.16036146140075758;0.44164079788918986;-0.4930638055952361;0.3971290421272406;0
0.41524647532822334;1.5930264463346369;0.1724296352725128;0.3063656575501532;0.17091753258759124;0.46926549451617916;0.02921280294583031;0.17048024220568847;0.026931582458580766;1.431264632017795;0.024217395737738352;0.06322014887325371;0.3512206770321943;0.12335596397495292;0.41152723047445317;-1.2795569286168647;0.3382065106283328;0
0.41650786254207994;1.883119472861491;0.17347879955937215;0.2667207962004928;0.1875039137793063;0.9197024319019924;0.035157717682557536;0.17983601380775915;0.027074371463957733;1.3564307630402705;0.024982155603140578;0.06322014887325371;0.3472786627535783;0.12060246960391359;0.3849988022740307;-0.6727094512032092;0.33158705164046504;0
1.272703081869463;2.817259345984052;1.619773134600029;1.1328400995389538;0.35732050095186846;-0.16552517502556618;0.1276779404004942;0.38634215405641115;0.0291754375906663;3.1042610531677823;0.023452635872336043;0.06322014887325371;0.4935566197833625;0.24359813693197865;0.4733514604379292;0.774403185669458;0.43459303272848726;0
1.3334151383593487;-4.862541540501109;1.777995931205881;2.0586629447762044;0.4144712457374757;-2.2473341588055504;0.17178641354317495;0.5272491675393414;0.02616129623874256;-0.8345108225681628;0.03084531457122463;0.0591414295911083;0.5534142185647812;0.30626729730966745;0.8020513456165612;-4.006137334894747;0.4444230136510753;0
2.221625960791524;-2.3058781256751093;4.935621909662862;3.019714505731252;0.42246114200570056;-0.815213668864267;0.1784734165047607;0.4763625325658671;0.01459662551365261;-3.2321592622446484;0.020138676455592926;0.031610074436626896;0.8418520098156721;0.7087148064306864;0.6308641068744829;1.7309204376866916;0.4595928164784443;0
3.123522732212756;-4.914103556565017;9.75639425864984;4.8907175644066685;0.33407288984388545;-1.4786590359174827;0.1116046957286448;0.4057947402364432;0.013940804551045512;-0.048459873872403136;0.015550117263179349;0.031610074436626896;1.2992486480219891;1.6880470493869666;1.5863913843082842;-0.6138064128654932;0.4804423233449357;0
2.5518865386022767;2.6915688976090166;6.512124905899508;1.6809851972360854;0.25448706185449793;0.017392497753748515;0.06476366465133505;0.2716221990332406;0.006469143234653051;-0.3208209559337991;0.006882838788620373;0.015295197308045301;1.1520911332461548;1.3273139793044093;0.8266601878661923;1.4740748431768367;0.38954638841166533;0
0.7589539028854339;1.6760138066798316;0.5760110267050326;0.7152877735163528;0.2611622659071876;0.5661290436300366;0.06820572913377658;0.25824089929958716;0.019489849001504196;3.0664127017966614;0.01529519730804528;0.0428265524625268;0.7349942321907735;0.5402165213537047;0.8167802245766489;0.3835148742997845;0.21428022445919287;0
0.7133873594186806;1.8222505139436453;0.5089215245783578;0.4733297593984629;0.340537188918353;-1.698711931907269;0.11596557703641404;0.4247831827196329;0.048777053285720226;2.3348713971328365;0.033394514122565506;0.1152238197206077;0.6696784649006519;0.44846924635169355;0.5394562619209808;1.162935565023325;0.18548876839949088;0
1.4042691095641666;3.183313387640492;1.9719717320761376;0.8377286490575151;0.35990789061581707;-1.642834272955982;0.12953368972752696;0.43976472213503737;0.05196950368149112;-2.657155397085477;0.06857346793106958;0.1152238197206077;1.4256238577914029;2.032403383904042;0.9514658672526943;2.8690373913072698;0.3544251973069402;0
1.6901884817624908;-5.071225028626586;2.856737103882594;2.6828657685436346;0.3407993415115686;-0.05031445803076906;0.11614419117471875;0.34933953412454244;0.04972703642400984;1.293747829835402;0.047160191699806224;0.1152238197206077;1.693228300555692;2.867022077802717;2.6340808255235464;-4.886424532873242;0.3359496623205571;0
1.4140463375691932;3.112468062283863;1.9995270447928488;0.8444990103916759;0.28115949800295004;-3.0581897925943817;0.07905066331727086;0.38145970522927164;0.02146985037538289;-0.37669172932483086;0.02498215560314062;0.0479249515652085;1.4005448488057854;1.9615258735164203;0.9355240828940934;3.043251608701894;0.24448519399048724;0
1.0335815592511;2.539994488666629;1.068290839623935;0.6465024935857917;0.2602532543694585;0.7186470767612239;0.06773175640989408;0.24355658795443258;0.020040016322048715;0.07129376524983222;0.023707555827470174;0.0428265524625267;0.884454643529253;0.782260016460458;0.6645879485093156;2.0177317468232427;0.14742181441437072;0
1.061022763172514;-1.7655005913049457;1.1257693039702366;1.2977241044977914;0.1570364639710331;-3.405746834504642;0.024660451016525576;0.2289859422189795;0.020024877905788583;2.5778124063867836;0.018354236769654378;0.0428265524625267;0.913747179267399;0.8349339076191282;1.1011468266091953;-1.5896635013244342;0.15609035251767514;0
0.7132484978218104;1.4555316232948083;0.5087234196450691;0.4879362237921123;0.14551920727976086;1.6206710823453605;0.02117583968733001;0.09098098077350958;0.013715230581801694;0.9568625919945255;0.01504027735291125;0.029570714795554204;0.6129141886383203;0.3756638026341704;0.47188667081978597;1.2999120220213225;0.1105714784850998;0
0.455089042380189;3.6059375753435035;0.20710603649451745;0.29755088920115824;0.07578273994187659;3.9181165242001796;0.005743023673098099;0.04524142722611613;0.022316782531088975;-1.187782480028627;0.0265116753339451;0.0509839910268175;0.41505516889235056;0.17227079322425765;0.3170085852971436;3.447484664592931;0.07702937913407903;0
0.15066568986225254;1.1082709391428764;0.022700150101668464;0.14025868510318507;0.07992340883471477;3.586144593208779;0.006387751279760964;0.05185165652959611;0.016886402734453753;0.033135866523291924;0.01758947690425195;0.039767513000917604;0.15322269092340038;0.02347719301380788;0.18121734164761794;-0.10838046891468878;0.02773732164285295;0
0.6824026248762759;2.9588597070108094;0.46567334243803127;0.5681433297968113;0.08200700022233512;3.5034025533760236;0.006725148085466072;0.06089235191103848;0.017914664971420705;0.1095004408276079;0.018864076679922497;0.041806872641990296;0.6128924158724566;0.3756371134339762;0.5615537028978022;2.6221787890440424;0.11706971544523152;0
2.093856854180758;2.046219499558287;4.384236525799739;1.9947540234781518;0.06755159201738847;3.4127625972802917;0.004563217584083702;0.041601591257760084;0.027750781927126898;1.0432630571785193;0.0249821556031406;0.0662791883348627;1.4960508628130365;2.2381681841236305;1.5603021870163292;1.102713733753598;0.33936769165258795;0
2.122367983781736;-4.604851191169626;4.504445858581753;3.254279613851406;0.1280969462303738;-0.6060673922837818;0.016408827633547274;0.15902131049115864;0.036834536870113545;-2.000884462535261;0.04665035178953795;0.08259406546344439;1.5255084939028711;2.327176164969806;2.286023590513887;-4.059740694600336;0.42905115386960163;0
1.66617342311587;-5.767615602172001;2.776133875897656;2.749397006231011;0.18336514337805568;-1.2759187832080965;0.03362277580605492;0.2150294428589774;0.03898858834364241;-4.147118708139347;0.0565922300397674;0.08259406546344439;1.0723845513381671;1.150008625948762;1.6842072129429422;-5.000095569310384;0.335862405011827;0
1.455697463919753;-5.417854497468944;2.119055106462401;2.331083897904071;0.2674200279365416;0.5602933719328256;0.07151347134158069;0.2705291605307085;0.029416481567760826;-3.3883107216314787;0.04053227286631985;0.0642398286937901;0.7887347610308216;0.6221025232583474;1.1444034601539563;-3.589218293961034;0.2688936886515443;0
1.6043410822435848;1.5238236162696914;2.573910308174517;1.3051038152837577;0.2302042111814056;-3.802031263176092;0.05299397884565319;0.3347978834594334;0.029416481567760867;3.028355366030798;0.02370755582747015;0.0642398286937901;1.0909584161639412;1.1901902657989352;1.0732493924606454;0.24770058521366778;0.306038685443916;0
0.9656994593001554;-4.338403221249756;0.9325754456926125;1.4219899055694203;0.1729114674750475;2.907090351975718;0.029898375584374404;0.12742426233722348;0.019746014817005074;2.3555555555551795;0.015295197308045301;0.0458855919241358;0.8533464953815245;0.7282002411799303;1.1959645087250013;-3.490211981761483;0.1988813034857582;0
1.251340033407514;1.5095255527350808;1.5658518792083183;1.0098565092169025;0.14362249001089697;2.179034633593332;0.020627419636930197;0.12958139797717938;0.020814127177722987;3.227999999999593;0.015295197308045225;0.0458855919241358;1.1339455058806323;1.2858324103068828;0.8995160932291872;1.5818048104827795;0.23470104010096152;0
0.5818631462601185;2.9670063465197067;0.33856472097572404;0.4002649193557497;0.15358840605810078;-3.654814110063091;0.02358939847546805;0.22092538742486867;0.019148997003505152;-3.4669633827780952;0.027021515244213354;0.040787192821454;0.5300469202461048;0.28094973766238057;0.4019764920869733;3.0410765806268323;0.10087481535385023;0
0.8492890756241097;1.4427844581506708;0.7212919339744547;0.5883655966972503;0.09670862264205944;-0.12716357715311233;0.009352557693324251;0.10986520834782065;0.01829750019876227;-2.6047799081825396;0.0239624757826043;0.040787192821454;0.8026675369321716;0.644275174844759;0.597189444269123;1.3462377739192917;0.1586522389662882;0
1.2377082744443562;-1.3477624455996136;1.5319217726280254;1.4671024385265143;0.0626486846857936;-3.8635467783323723;0.003924857692859989;0.08916827490963741;0.011989370874176113;2.2859889669663165;0.009941878250229427;0.027531355154481504;1.1535996258192076;1.330792096690216;1.3618434018688514;-1.2704339617796254;0.2498663722047908;0
0.8669769480729429;-0.38384398997799707;0.7516490284898744;1.047703856683996;0.07134961563488786;0.6333122238645998;0.005090767651246234;0.06577894533459094;0.029770387238263394;2.463142610224587;0.020521056388294052;0.06984806770674;0.7831785288126278;0.6133686079931121;0.9416135060109161;-0.18636705552901667;0.1987550009374595;0
0.7183876429499007;1.4577930378526762;0.516080805543114;0.505448925327745;0.04297651884896046;-1.9812922861374105;0.0018469811723750538;0.05339744091505172;0.02618736505922803;3.604221794859466;0.0172070969715509;0.0565922300397674;0.6194337746976514;0.38369820123618076;0.41481133737400677;1.4877333058198534;0.1860690346716536;0
0.5824373372833509;-5.633920400941996;0.3392332518617198;0.9475275918050201;0.04685829726968458;-1.4151577287171015;0.0021957000230141293;0.05586464599028074;0.02653250195764499;3.5714623483841805;0.01873661670235542;0.0565922300397674;0.5068888049052871;0.25693626053831026;0.8206337046451497;-5.510942401726339;0.1740648323416998;0
0.6414910579307013;-4.965807993028189;0.4115107774050504;0.9918085185978311;0.13621587955739048;1.631562665503056;0.018554765843593512;0.13466946435186178;0.02653250195764498;-1.7347280583095923;0.0347965738758029;0.0565922300397674;0.5276918757338165;0.27845871571547365;0.8372999689662368;-5.361955486765648;0.18017738899666558;0
1.3986854475817705;0.2019415192755023;1.9563209812770175;1.6237144419977785;0.13699839117881235;-4.405296186402795;0.01876855918558289;0.20925767514853022;0.014092255492082057;-1.9178750582529425;0.018354236769654298;0.0305903946160905;1.2336497468511258;1.521891697905847;1.3358478594630605;0.967209566683719;0.36606615464352443;0
1.399673545995175;-2.0823251548669717;1.9590860353587072;1.8469626238054349;0.11425762024732664;-5.92034600139118;0.013054803784582306;0.1927704265735739;0.011744775869732701;0.13639807074776655;0.012236157846436226;0.0275313551544814;1.2682123512392585;1.608362567835808;1.7538931560591227;-2.837516055793719;0.3209096336691313;0
0.7999097969697755;3.624149347629519;0.6398556832882275;0.5147497116719517;0.1051115126696465;-4.820400443884878;0.011048430095701256;0.163804882855491;0.012104448457308188;0.10469172551937334;0.012491077801570325;0.028551034975017802;0.7756068383328755;0.6015659676687192;0.4800206323659095;3.7654933618476;0.16881684234491792;0
0.2617769384145204;1.2428001698275164;0.0685271654856796;0.2369501686916582;0.09008348979583487;2.9576287110584616;0.008115035133796286;0.06991781674224717;0.012691498318376722;0.010788565923023796;0.01351075762210665;0.029570714795554197;0.23356352901381675;0.05455192208538801;0.20329674753866556;1.7974822746210375;0.047948898269932684;0
0.6689727898662742;2.195373839675579;0.44752459358146623;0.6258319585768;0.03065355423857743;-1.6651619844331158;0.0009396403874574084;0.037281464353441374;0.011700427910715428;0.2795705816340899;0.012745997756704375;0.0265116753339451;0.6363159207004876;0.4048979509369092;0.5993596364248521;2.1986106000231462;0.14159591135567232;0
0.8165911610821188;-4.110565112622371;0.666821124357443;1.1901121602850568;0.12426216693706149;3.5793985094570218;0.01544108613189414;0.081441395796918;0.017786033998686758;-0.6750465367047944;0.019628836545324727;0.041806872641990296;0.8007733970445581;0.6412380334142814;1.150299252884564;-3.969521816280011;0.19579378986011747;0
0.5469045858181903;0.9471902633768554;0.2991046259889663;0.5431054651653562;0.17066505738029517;-4.563994042253535;0.02912656181061944;0.25629056720609067;0.01805678017095681;-1.2563892422480034;0.02115835627612925;0.041806872641990296;0.5449963941482182;0.29702106963456004;0.45551267383760496;1.8361101071604615;0.1438980861337128;0
0.37602506852447026;-1.3472499914526637;0.14139485215883255;0.4443886645638142;0.2267603668997744;0.8668485085202722;0.05142026399652031;0.19888993113940634;0.015269684033722428;-1.4080429127709415;0.01911899663505655;0.0336494340776995;0.3120785290415157;0.09739300828871615;0.32070289295780974;-0.010800187338753986;0.08544085720190138;0
0.8813791809437355;1.5572850536189264;0.77682926060105;0.7581076929495967;0.26532735403530916;-1.3780960025277942;0.07039860479937828;0.3291877927385416;0.014994841612982961;1.6494770957912817;0.014530437442642976;0.0336494340776995;0.8043979641180982;0.6470560846773411;0.6585664175164787;1.8417857998049936;0.19869920389470255;0
0.75954446647073;-4.9369628969461345;0.576907796546306;1.1711620231371427;0.3032519405835026;-1.7636911120648833;0.09196173946766019;0.371505816599499;0.011547620733053748;1.363823246659047;0.009941878250229422;0.0275313551544815;0.6978059980748696;0.48693321094926506;1.0826430647732614;-5.074981208349973;0.15584310501894616;0
0.7848151692580522;-4.627376638700689;0.615934849897545;1.1887904992761151;0.2211247210731753;-0.09307206052537431;0.04889614226968957;0.2598688699075591;0.013613775795674965;-2.350033145213944;0.018609156724788425;0.028551034975017802;0.7747832843218321;0.6002891376645249;1.1359610088110448;-4.09354466954286;0.1751199411343248;0
1.0480606466521725;-4.738143124253181;1.0984311190609701;1.6065658403894196;0.12350369677130253;2.1491624113074987;0.015253163116177844;0.09549853280937998;0.014236010923770843;-4.403528400427522;0.021668196186397475;0.028551034975017802;1.0533298800759787;1.1095038362608756;1.6088276205915104;-4.705055143200555;0.2519486019703273;0
1.124671509456299;1.0380158455678252;1.26488600418271;1.0474236315168333;0.1042589062215052;0.4181433442492306;0.010869919526504615;0.11369564152115436;0.010930885239037121;-5.783886653680168;0.01809931681452025;0.020393596410727;1.1284328752985713;1.273360754054601;1.0537008995189314;1.0067197452069596;0.3253361767199656;0
0.6385484845964113;-2.8540864537901314;0.40774416718037343;0.8744581759353842;0.11047382204766353;-3.5749525489970004;0.012204465357818828;0.1564462802079793;0.010107182421534768;3.672642749387961;0.006882838788620376;0.021413276231263403;0.6457212969967648;0.41695599339518413;0.8846239079312772;-2.8615041539187978;0.2336742760332549;0
0.398413942885447;3.51957048102323;0.15873366988552826;0.27759446981619273;0.09126557999115856;1.7656835628133933;0.00832940609112256;0.07742819916433197;0.015686728199876515;3.86524499107378;0.00968695829509535;0.0326297542571633;0.40367159061050256;0.16295075306601317;0.2831095997762558;3.5158937821360965;0.165900569247692;0
0.2148189650386233;2.5224006620878825;0.046147187740265265;0.17317624451020786;0.11664883616140984;2.218203599940068;0.013606950977811434;0.10468922551877874;0.014963026887634581;-1.3410125660154417;0.0188640766799225;0.0326297542571633;0.21562233416032284;0.04649299098874593;0.1723530228668415;2.517807528826733;0.10119975774388429;0
0.18770997920595464;3.5808912824467;0.03523503629349992;0.12453307427445326;0.17820829139392583;-2.023720011133925;0.031758195121542376;0.23071105884609738;0.01553966621202002;-0.7460085905515879;0.019628836545324796;0.0326297542571633;0.18982569939704563;0.03603379615157753;0.13301359450780703;3.579320191499864;0.09026471061683229;0
0.21398603425413848;-5.696046333037249;0.04579002285581332;0.3499844714565532;0.19250784810222557;-1.3760245629263999;0.03705927158094955;0.23124426546434013;0.007228228244497446;0.4357317889143566;0.0084123585194249;0.015295197308045294;0.20929926583153438;0.0438061826776193;0.3354307390114841;-5.390356938229086;0.10282365529684982;0
0.2038013485251421;2.6842601503322285;0.04153498966066644;0.146071433582307;0.12902101255682183;0.3571239657658065;0.016646421681187577;0.1460623740927165;0.007493085783980062;-2.9444444443897115;0.010706638115631717;0.015295197308045294;0.19736447245967365;0.03895273498928528;0.1636084479541755;2.567880264820733;0.10287293871870662;0
0.9679339441421924;3.123990640600077;0.9368961202226607;0.7730372450736864;0.054560259795468594;3.520805921664831;0.0029768219489490267;0.030848178423592;0.007228228244497447;0.43573178888880904;0.0084123585194249;0.015295197308045294;0.9591423964090692;0.919954136589332;0.7526081343988709;3.2050965907099496;0.3961096221580719;0
1.1362381807268704;-5.859235407853965;1.2910372033415085;1.8958464343947214;0.030623098821729026;2.720479468027385;0.0009377741814453818;0.018569674912626066;0.007493085783980062;-2.9444444443995366;0.010706638115631717;0.015295197308045294;1.1228570097517692;1.2608078643486846;1.8733017110155707;-5.858535699057254;0.4017419204478764;0
0.984573640237007;3.6765320440485354;0.9693852530495514;0.6548757829966756;0.08276478987672459;1.190503565613449;0.006850010443338372;0.08544361628480868;0.01553966621201997;1.7567693771228452;0.00943203833996125;0.037728153359845;0.9704675887713724;0.9418073408557216;0.6544609687904432;3.6403079422721767;0.30315258607996726;0
0.7081348049809624;3.37779126542053;0.5014549020254256;0.515086252822107;0.11933669019761019;-2.0295508747745714;0.014241245627320391;0.15146958952684908;0.01554297647186376;1.0503703540772147;0.013064647700622024;0.037728153359845;0.7138247974868341;0.5095458415071198;0.5245528714324892;3.3385498624091454;0.21428719780310734;0
0.7439258900876735;-5.67248612026091;0.5534257299427373;1.21790230904735;0.11133311431098833;-1.2998367257439032;0.012395062342183594;0.13807831359866773;0.010125115547992485;-2.79503398323115;0.01344702763332313;0.022432956051799704;0.7486224982393103;0.5604356448700661;1.2240112562880503;-5.654722063750309;0.25271570396499715;0
0.8542042270683077;1.6180833249714208;0.7296648615413649;0.5800393785531472;0.11608214883713726;1.3296096175419763;0.013475065278647285;0.09376366285514498;0.019211535224496496;1.3000000834217484;0.018800346691138975;0.0438462322830631;0.8550341881959239;0.7310834629838626;0.5795372961705985;1.6255963480828424;0.35674544727215285;0
0.4653742198794084;-5.109421586294264;0.21657316452836795;0.7280362518748553;0.1835101743619277;0.10043565391865172;0.033675984094345114;0.21109032810303258;0.015802809938112793;-1.0120929356366855;0.018163046803303825;0.0367084735393087;0.4584354962561594;0.21016310422763115;0.7063214675528069;-4.85695808143487;0.23769681616975788;0
0.5489686291641322;1.4871840368653846;0.3013665558063466;0.4636029408887725;0.2638640065500116;-1.5007179934853028;0.06962421395262454;0.3185469211251431;0.01522422153153255;1.9118413835298007;0.009941878250229401;0.0367084735393087;0.5052465215938662;0.25527404758270106;0.45033782745144246;1.6590380745503328;0.3053819033537907;0
0.24891769559029966;2.329994029619579;0.06196001917798508;0.21208749241326763;0.27719429778630866;-1.5692046920372498;0.07683667872524476;0.333687045486243;0.0066800054406827595;3.6935432181466687;0.004333639237279523;0.014275517487508903;0.2320696564053305;0.053856325424088164;0.2833710967307439;-0.8183064979673134;0.1560124167941055;0
0.5508003191299031;1.7074242760841614;0.30338099155360315;0.398538218369495;0.24258656441664897;-0.8560808656094334;0.05884824123547298;0.2765665317920174;0.021429455512930226;3.9698511925955877;0.011726317936168004;0.0438462322830631;0.5635942289516317;0.3176384549075843;0.37246058958727013;2.011743504977712;0.3198057207609687;0
0.5830627758315451;-1.753221188923332;0.3399622005603866;0.7150257669536355;0.17866710347140027;-1.0487012843587422;0.031921933862860054;0.21301026564043946;0.026253867777170564;-5.872220113057408;0.044101152238197154;0.0479249515652085;0.6004458026214069;0.3605351618856656;0.7550200832721481;-1.9610371583916955;0.3139364300139653;0
0.3808948172527213;1.0376418624409407;0.14508086180998395;0.39505173293759843;0.10335740989805972;-3.1966305284592664;0.010682754180835535;0.14271764404489962;0.021986261161283514;-1.0302273964724904;0.027276435199347374;0.0479249515652085;0.3712961076331883;0.13786079954355615;0.32779458973753295;2.0968060565970443;0.16744740135293462;0
0.16597970812658636;1.819490575945606;0.0275492635097868;0.16604859094270275;0.08587877970097259;1.0763128350872453;0.007375164802928181;0.09041148932652376;0.011088285495529055;-2.3963098212653033;0.01453043744264295;0.0244723156928724;0.14747577608268472;0.021749104531190167;0.181596882192554;-1.0684337133537785;0.06050401834058773;0
0.4617824364210399;1.8347651147212147;0.21324301858695174;0.43985542963381485;0.20918337570947063;1.9940250219943785;0.04375768467320954;0.13822497632144404;0.015472612323333515;-2.5830347743180013;0.020138676455592877;0.034669113898235904;0.30503044573618904;0.09304357282601818;0.2950457304068732;0.9246430229027816;0.13450787582272763;0
0.565421353445146;-5.785058354765193;0.31970130693174065;0.9455120258420102;0.31532994161636835;-2.9551275465803233;0.09943297207978226;0.42166874436901636;0.014670637881041925;1.2580456953457588;0.01325583766697255;0.034669113898235904;0.3361248937768214;0.11297994421647949;0.4854310166024405;-4.061874349989431;0.15248670729096844;0
0.4952474504079087;-1.2874959172577949;0.24527003713553397;0.6456013934533722;0.26546017989750825;0.3258617831659052;0.07046910711121744;0.29478990672064853;0.014670637881041925;1.2580456953457588;0.01325583766697255;0.034669113898235904;0.3394426302534087;0.11522129923335232;0.4978855604839434;-4.300226542033382;0.15370235457168535;0
0.3392030890257776;-5.3120461019973195;0.1150587356046296;0.5479792134041481;0.19411752590900666;0.9375786204711822;0.037681613865033874;0.16725318803074352;0.015017937262577644;-0.7028923894549362;0.017079636993983825;0.034669113898235904;0.36838319717813833;0.13570617996318715;0.5175452500833404;-3.572353108702501;0.16533505267386817;0
0.2794990915435498;1.2014606789955131;0.07811974217366964;0.2696519241791471;0.11744307380548415;0.6632539868686909;0.013792875584880395;0.11687001197581348;0.015017937262577644;-0.7028923894549415;0.017079636993983825;0.034669113898235904;0.27213284670000754;0.07405628625304982;0.21489569246595241;1.4663021932639975;0.1157228965850418;0
0.1236007684926421;-1.2750880617082831;0.015277149971971707;0.15440399245509062;0.09176612667283875;-2.047642501295634;0.008421022004535487;0.11462114666454082;0.017688334638429868;-4.94971755047821;0.027786275109615496;0.034669113898235904;0.12981049494779068;0.01685076459859039;0.08239561441276733;2.913180398589212;0.052755174248831214;0
0.5161960625570571;3.116187251671189;0.26645837499940916;0.31517917146712926;0.06022049625296849;0.4184806163747492;0.003626508168953792;0.057739965606207644;0.018626027339410666;-4.844791572065457;0.02855103497501775;0.037728153359844904;0.34251206977688425;0.11731451794284524;0.26079667414134544;2.076184048529038;0.1478909414943225;0
1.2862259658978503;1.454250153865834;1.6543772353498583;1.3632231018119996;0.06406702863571538;0.6086863143638634;0.0041045841582095744;0.060053387990820495;0.019155783016477006;3.411499995120721;0.013510757622106627;0.0418068726419903;0.2811931037606685;0.07906956160255807;0.4117595407986814;-4.148964630340222;0.13059818663350853;0
1.1567389384996405;-0.18485862607107784;1.3380449718412752;1.2105169779647915;0.06482318148879518;-3.1821705696740867;0.004202044858329278;0.0884320329509638;0.010726850778735565;2.234867179559002;0.00917711838482715;0.0244723156928724;0.2907444695881311;0.0845323465960837;0.27890553581709066;1.971597146328202;0.14447554090247397;0
1.0872824736337119;-0.27003720690054145;1.1821831774710434;1.1640165718268607;0.06564143141417983;2.1810307675223655;0.004308797518102474;0.06295857413211725;0.011715229216963122;3.4123048668492295;0.009177118384827147;0.0244723156928724;0.26598523561801557;0.07074814556677125;0.2658322334504599;1.583903336296526;0.13303653404161206;0
1.062373896627793;0.5584579271865877;1.1286382962361203;0.9950975395632194;0.06895710713608272;2.8657008767092265;0.004755082624577189;0.04414352728781901;0.018753517036554757;-3.657866862886282;0.027786275109615524;0.0377281533598449;0.2452836662030433;0.060164076906005955;0.150195490255425;2.0773743578200765;0.12036185649165386;0
0.6075849661679976;2.271075718687788;0.3691594911133669;0.3628810387238196;0.10861104503208475;-1.7962845506593865;0.011796359102961543;0.1445381696021404;0.05462667578659664;2.635242627687557;0.041297032731722146;0.1254206179259711;0.24474920431138106;0.059902173011054154;0.22423269088455533;0.7610861498477313;0.11866257372588268;0
1.1697026306496083;2.1245386243467266;1.368204244148614;0.7015361422181535;0.09848159518708206;-0.3239642044450548;0.009698624590592304;0.10836711065031057;0.05410392045225172;2.6416793425536156;0.038237993270113096;0.1254206179259711;0.16328745104399078;0.026662791668443684;0.17522895525057658;-0.20486017944343438;0.07537585995530181;0
0.9554017880663541;-5.167170259998876;0.9127925766403866;1.5321644407122377;0.1720967729651283;1.39218822992542;0.029617299265010912;0.15284456562175186;0.06175800919299832;1.7930802719438415;0.044101152238197126;0.14887325379830718;0.17044618521573485;0.029051902054596592;0.1771903002498907;0.12774126797875773;0.08425684331561639;0
0.905020712588847;-4.879495431738302;0.8190624902148244;1.3917212775790109;0.20141246177848904;-2.5876012106878967;0.04056697975967131;0.2790846175749533;0.06947305433627325;1.3604057403683907;0.07392678698888547;0.14887325379830718;0.25979250858812525;0.06749214751851114;0.36122345062366046;-3.45164855503163;0.13429741143113966;0
0.7463210933314222;-3.188293134879469;0.5569951743514093;1.0144176016278537;0.1661998983038142;1.710301719581535;0.027622406196198185;0.11142825700783421;0.02678479766812205;-5.359735349716402;0.04282655246252675;0.0520036708473539;0.32773346906678724;0.1074092267465508;0.315788897443134;0.7467729472691893;0.18544108268233145;0
0.5443767105962894;-1.6833008258228777;0.29634600303963626;0.6625539770648996;0.14020628530702872;-2.4478676926173506;0.01965780243959594;0.19182737591350896;0.019514284907723597;1.8520798145589712;0.019118996635056597;0.0428265524625267;0.1914236806159716;0.0366430255005655;0.26088951026570006;-2.6025791765200577;0.12229864986069844;0
0.9303731692135774;1.2192037458478477;0.8655942339925158;0.8899789998410946;0.16039530600178495;-0.9122040390111419;0.025726654187406228;0.1852665901591033;0.05044410109918761;1.680762573183383;0.049454471296013006;0.11216478025899859;0.3360618122449286;0.11293754164934562;0.34109412249561766;1.6812160096612292;0.2042407971754313;0
0.7247531853568455;1.9156795183285915;0.5252671796848941;0.5742468411420018;0.09612104477439586;0.6326206730082262;0.009239255248521412;0.1053124986150904;0.042772904743420645;0.2304065963993409;0.043591312327928976;0.1009483022330987;0.35619376649759416;0.12687399929174262;0.1940453208186701;3.9702754386517896;0.2242252897768893;0
1.1934312090343688;1.6637577272889086;1.4242780506972352;0.8672197630003555;0.0584057156460973;1.0925653228641004;0.0034112276201327743;0.049499345893307956;0.04123509213450252;1.4755700691133171;0.027531355154481497;0.1009483022330987;0.33956331902765347;0.11530324762907597;0.34857694121029814;1.6902545979204362;0.2070427771358599;0
1.19328797955719;1.6374751359464668;1.4239362021556807;0.8756958891495763;0.13967979527024876;2.994710635534368;0.01951044520673861;0.11529974963197276;0.03774279119333788;1.5056740705730398;0.02536453553584175;0.0922810237585397;0.44944144366377803;0.20199761128258098;0.43497339571963556;0.437172648262651;0.2892778222882412;0
1.6127967717345049;-1.5302792691357254;2.601113426917241;2.0855622399813543;0.23466024948799857;-1.9837212746346928;0.05506543268976974;0.30255430943728945;0.02614763076977458;-5.779175609431598;0.04320893239522777;0.0489446313857448;0.7870084724348125;0.6193823356841771;0.6199359482151672;2.431882061893944;0.45266020750170327;0
1.830117469287234;-1.6889647879850873;3.3493299513903096;2.2575057598880752;0.3183539903757617;-0.5102638759499722;0.10134926318817054;0.34732207935392756;0.02438852664286;3.0476936330173707;0.017207096971550925;0.0550627103089629;0.7837800243610906;0.6143111265874719;0.6020132442560797;2.4492508610529864;0.44925958096624324;0
1.8177659413921803;3.096076505147881;3.3042730176853996;1.080224247740546;0.35126874972394984;-1.6979268159539842;0.12338973453262692;0.4283729756799803;0.014672852484101218;0.9452391857224356;0.015167737330478256;0.033139594167431397;1.027334109923695;1.0554153734127107;0.8948836925321072;1.5839875977324187;0.7096702168695767;0
1.8184296016681614;3.1004659473612968;3.306686216223028;1.0846997688327955;0.27597581670492977;-0.8555676859877721;0.076162651405953;0.3454016284197688;0.017688334638430163;-3.293189576355532;0.024217395737738304;0.03874783318038141;1.1263629347110047;1.2686934606907871;1.2948847725196766;0.42173674127178984;0.8570136859141395;0
0.6289790252656957;1.753141906718806;0.3956146142241847;0.42932024040706496;0.2011532315059435;-4.15376318041581;0.040462622545283704;0.30042132172078106;0.02250044693896479;-1.3711925628580008;0.027276435199347353;0.0509839910268176;0.4670417842756177;0.21812802825935262;0.2799778508908899;3.8099870295950105;0.6327239260654426;0
0.9328020259705344;2.6490116313104473;0.8701196196547336;0.5931426691306753;0.2643509639170343;-5.183105260279897;0.06988143212386516;0.4193806729002518;0.03606073813908383;-3.1742831683797785;0.04996431120628118;0.0774956663607627;0.8125841172602967;0.6602929476236955;0.45324049468604044;3.9361078576083344;0.8915707808236084;0
1.7189643822650544;-1.431061342516129;2.9548385474958803;2.1189655732318373;0.2180482617216127;-1.7743006600642897;0.047545044439816914;0.2706580314199848;0.0322236032615922;0.9820196398937533;0.028551034975017826;0.0774956663607627;1.5223425642997366;2.3175268830786977;1.9781918650234669;-1.3012810747838195;0.8804829142185306;0
2.3822667575612337;-0.7069820369890358;5.675194904181313;2.648580374404259;0.1658783751381483;-3.6824453782698594;0.02751563533847225;0.23579922105794515;0.017352042636774635;-2.608327105223566;0.022687876006933824;0.038747833180381296;2.0965355543550652;4.395461330674901;2.4110850262574983;-1.0838182959110902;0.7081684743447799;1
1.38971712954256;1.4967984037555713;1.931313700144013;0.8789655322310703;0.18496434556459865;2.8178149583804704;0.03421180913014026;0.1428452580750259;0.019789846202385344;-4.941600751821397;0.03110023452635867;0.038747833180381296;1.3526260017082805;1.829597100497329;0.849416261615215;1.505950601582727;0.36002206085128796;1
0.8508599368038297;3.9837535001860225;0.7239626320578171;0.44952981907439327;0.054153289409700746;-1.9706600637775757;0.002932578753890807;0.07195820125461028;0.013940804551045514;-1.4291977677027532;0.01809931681452022;0.029570714795554197;0.8496238204702128;0.7218606363104003;0.4476887259151505;3.9882605640759827;0.20391999547856118;1
0.9331040403011678;-5.878372132740654;0.8706831500263633;1.5714424924333579;0.09849326886578687;2.1003678630380147;0.00970092401186818;0.09611256966218867;0.016176206157901732;-1.6665584842770578;0.01988375650045885;0.0367084735393087;0.9362368678795293;0.8765394727768713;1.5798924666284537;-5.895664368331155;0.20512145247492555;1
0.7397768289372988;3.5176204545296628;0.5472697566325254;0.5549605661249308;0.2313895672787163;-0.025369404022930198;0.05354113184543157;0.27700424648746413;0.014162786207131293;-0.0026085861263851484;0.014530437442643079;0.0336494340776996;0.7403650860315488;0.5481404606145026;0.600652264640289;3.2447914079367592;0.17562434369476107;1
0.6763108089978653;2.27143948323077;0.45739631036734707;0.588146919689442;0.35058713534223734;-1.1790254498552688;0.12291133946747623;0.41173689608514036;0.01836367582235818;-3.8998425103693553;0.02651167533394518;0.0387478331803813;0.6702873932574236;0.44928518955983204;0.6364400733383357;1.4273797109253703;0.15321560015305352;1
1.4260530787946935;1.9681088497037944;2.0336273835398244;1.0558120301592924;0.3055276636011201;-2.1463175488823065;0.0933471532255592;0.40589906162771994;0.017009103005620613;-1.992529680673849;0.021158356276129303;0.0387478331803813;1.311343618825492;1.7196220866343375;1.0324488916635408;1.78965366843312;0.32958353929984496;1
1.05978590754717;0.5391821374491563;1.1231461698355787;1.1531960225543498;0.215411873454526;2.103304066881144;0.04640227522518873;0.16726419128273906;0.03535584469783974;1.2893134930471124;0.030335474660956402;0.08463342510451699;0.9681279288624467;0.9372716866434906;0.9912720154072172;0.9503012778744999;0.27532362760582885;1
0.9701041124271165;1.371191212468938;0.9411019889480033;0.7218206744383084;0.1184025218520936;-3.298093019749542;0.014019157180935502;0.16257436049668872;0.027016705005591182;-3.7726844749641604;0.03823799327011307;0.0581217497705719;0.9015299140869537;0.8127561859936302;0.649725652510472;1.4642115467267214;0.27025871027104037;0
1.167344748243514;1.4887069453652497;1.3626937612517132;0.8411009286394604;0.09307397740011183;1.4428984588752876;0.00866276526907653;0.09528485377154716;0.03350363358550212;-4.60268521457707;0.0502192311614152;0.06933822779647181;1.1159650339964238;1.2453779571026393;0.7804557811780177;1.521565656053994;0.3219253577940544;0
0.8810107774169441;3.1069877363238305;0.7761799899248082;0.6245113573234837;0.1071695491293647;2.0659987362183045;0.011485312260591315;0.10272301422802443;0.03917813695001129;-5.0898876581723425;0.0609258692770469;0.0785153461812989;0.8565108455674201;0.7336108285746169;0.5876838983986916;2.9784209019245544;0.23406377942510748;0
0.8924357674194751;3.4579574254993375;0.7964415989695874;0.5356141322152923;0.2357916564646857;-0.5420577625433527;0.05559770525836035;0.2902129559068436;0.029815828524958437;3.693074792243717;0.018354236769654246;0.06423982869379;0.8837566489500467;0.781025814563416;0.5695663133769311;3.4459686313167452;0.24557871087821284;0
1.1126202380210266;1.9063376099808185;1.2379237940539658;0.9225235779976937;0.2714452448976913;-2.367439317229003;0.0736825209775676;0.3526478049352597;0.04198060334503691;3.841710392356454;0.024472315692872372;0.0887121443866625;1.1318483319526746;1.281080646544052;0.8647490201013359;2.0783865367964793;0.3403980022396711;1
0.42769707837930154;2.001654501053954;0.18292479085419042;0.36362968158306463;0.26166359104510717;0.5685683110916315;0.06846783487862108;0.24415351177486344;0.0414822995958151;3.659889924334344;0.02753135515448142;0.0887121443866625;0.4227019051324868;0.17867690060263386;0.25524345614317934;2.7130267896514226;0.14913170854602983;0
1.565167229131101;2.3774807921776837;2.449748455145928;1.441956661487906;0.1969274240118141;-4.067246764205597;0.03878041032792882;0.2874894739540237;0.03832061137980053;-2.023372997435674;0.050474151116549376;0.0825940654634444;1.2281806161895155;1.508427625983658;1.2165946061940967;1.5901957203971424;0.5539845338027622;0
2.100341336105957;-3.5500767770418094;4.411433728155356;2.9454734295418943;0.1386910765979075;3.5134154317416737;0.019235214727886644;0.09947039897362175;0.03988825327637113;-2.089871787545704;0.05174875089221983;0.0876924645661262;1.0383714671783526;1.0782153038501245;1.0373472689716932;0.37330546875700144;0.5675002641846323;0
2.3048705900431123;-4.426250505360086;5.3124284368456856;3.5430987984408415;0.036961739151536915;0.4098408031633962;0.0013661701611062567;0.03547348814396478;0.02572671586518332;-4.7574753655316755;0.03938513306821655;0.0520036708473539;1.1864373690559966;1.407633630692515;1.5763888303876612;-1.650857635298058;0.589411859530687;0
1.9644681649125162;2.7127200903458935;3.859135170954749;1.3174881597897237;0.06310392193580142;1.2882215237762775;0.003982104963679719;0.06353395124178823;0.029360095273459463;-5.854383398293627;0.04907209136331188;0.0540430304884266;1.1543127232278503;1.3324378630056957;1.423045097612121;-0.6642595699344191;0.8093377556112438;0
1.9501350437295748;0.5823038667208547;3.803026688782151;1.9619011190037141;0.1460835412192923;0.9437584020769485;0.021340401015168667;0.1483736816846885;0.0283236605265474;2.7566618618460943;0.017971856836953175;0.06576934842459459;1.1310955144964483;1.2793770629139851;1.401185044385147;-0.5077713929743801;0.7810874452601304;0
1.5866002500128211;2.088164163932955;2.5173003533407465;1.5122423500588895;0.13644686067419995;-4.041174837011628;0.018617745787844534;0.20288782804601568;0.02962158178350181;-2.8720510716730203;0.0393851330682166;0.06576934842459459;1.2427776739717928;1.5444963469227397;0.6817691945980762;3.7967646373103214;1.121417152222448;0
0.50123868310471;-3.281454876011825;0.2512402174405439;0.6867768010316239;0.08771079001389823;-0.04502093069558022;0.007693182684862149;0.10227230922695701;0.019938152171663007;2.254070928370238;0.014785357397777095;0.0469052717446722;0.16110033739648577;0.025953318709261555;0.2716464411622043;-5.889795049332345;0.3634787432043578;0
0.9073149106972449;1.713335212457622;0.8232203471735494;0.7656300544873366;0.17535725020520435;2.9798487469861783;0.030750165199530638;0.14832564831940426;0.02134843648746431;2.8204658156123337;0.017844396859386158;0.0469052717446722;0.7629402520657218;0.5820778282221072;0.5975408096791499;3.40733230314207;0.9919749573675518;0
0.9250761396352671;-0.9634501298429523;0.8557658641224882;1.066775638159593;0.2763695592162931;-2.3859794127418077;0.07638013326140812;0.36725026237705305;0.0259885028575274;1.4439087571562386;0.02166819618639748;0.062200469052717505;0.7712667335340219;0.5948523742562398;1.0570065203299353;-2.168277224490458;0.8362721326074681;0
0.7291803468354894;-0.002464850715069744;0.5317039782111246;0.850142677944629;0.3277394982928674;-0.8793956442731403;0.10741317874126044;0.3703696802495528;0.013229666194914263;1.8514655426124111;0.01325583766697258;0.028551034975017903;0.6564209816192944;0.430888505110038;0.5455488956941458;1.065744700329276;0.6007036054963687;0
1.095389742788483;0.12617751267569588;1.199878688606219;1.1049807902448014;0.22903323191995792;-1.308234627145902;0.05245622132370123;0.2982763660678033;0.038266307226802895;2.4608533314660885;0.029060874885286025;0.0887121443866625;0.3991159298691251;0.15929352547529638;0.23833639220061187;3.0936987585394853;0.3031244537570293;0
0.8501765107073112;-3.6304520688282693;0.7228000993584587;1.2493342983716942;0.11933217626876094;3.992377227028271;0.01424016829303863;0.06128979573590898;0.043694797310218775;-3.959015385356812;0.06500458855919232;0.0887121443866625;0.09872600143786767;0.009746823359909848;0.06145930811525613;3.766093393621169;0.08698109145134458;0
0.5294962842539254;-1.1467546397869341;0.28036631503871373;0.6767854564015483;0.12505987545549158;3.9928994175275285;0.015639972448943065;0.06631211323415209;0.03397232843674431;2.8256066877686514;0.021923116141531473;0.0785153461812989;0.09931043668189252;0.009862562833948181;0.0640863468452808;3.758913638534054;0.08742854799898314;0
0.2647711188007215;3.7351241753611717;0.07010374535098579;0.17030393007199507;0.1975412887526458;-3.288744426624717;0.03902256076205618;0.28593125344273196;0.009459557109859311;1.8401469519876628;0.008794738452126026;0.021413276231263302;0.15244630926600025;0.02323987720882499;0.08771993457776905;3.9008438335644016;0.12086511397361077;0
0.38433066678837713;-3.767007068857936;0.14771006143399856;0.5633375832008678;0.35709386598081105;1.013412488428811;0.12751602912112145;0.3258720348202824;0.02340964800399779;1.828442689889025;0.01950137656775765;0.0550627103089628;0.28382456352855384;0.0805563828621741;0.3763156241017811;-1.7336003034164662;0.20214667114937643;0
0.4235433171513356;0.17880667583925636;0.17938894150355686;0.443621786836804;0.4012236467210287;-3.264251703104442;0.16098041468812088;0.5531317861705163;0.023630681095456553;2.6492330157193784;0.015677577240746376;0.0550627103089628;0.37508002370083404;0.14068502417941822;0.428331745200597;-1.0164003556422685;0.23057287245961244;0
0.5845134848366632;-4.473311594212319;0.3416560139559002;0.8674254649189262;0.44028569858154876;-0.1781435661094939;0.19385149637544238;0.4644034962731016;0.019312885647728126;3.5921271394780945;0.013383297644539573;0.0412970327317221;0.4460085659919541;0.19892364093819928;0.48085195172476647;-0.2471443530900448;0.22717398317327567;0
0.5291784641599736;2.2778025646296562;0.2800298469307085;0.4338528693403848;0.33246179325429215;-2.195874328386889;0.1105308439738597;0.4257456021966941;0.025095916905649347;1.683393329285968;0.01822677679208725;0.060670949321912804;0.3711118773590955;0.13772402551699234;0.5302753770023885;-3.1121021663956814;0.1672039681414914;0
0.8412131422666093;0.35922505702490426;0.7076395507220626;0.8123624641955801;0.21615258764151019;1.9515253691614038;0.04672194114412074;0.21104432286904862;0.01145628165362219;2.4349135900919787;0.0095594983175283;0.026001835423677004;0.27826041380186123;0.07742885788918305;0.17761143273083047;2.5111808451781066;0.11328023698943404;0
2.0733165893120735;0.9670735535441288;4.29864167951665;2.0931007084319426;0.08960948062260185;1.6316873014839661;0.008029859017452456;0.07396161533447199;0.019245471797313778;0.6517962271417357;0.01771693688181907;0.0463954318344039;1.014054422078627;1.0283063709372182;0.6607868199970746;3.8297937380282043;0.32787298702658213;0
2.236817704519481;-4.022702750743619;5.0033534432517985;3.2292225573223092;0.04002034325758877;2.304283592045101;0.0016016278744552307;0.03604158956771997;0.023111649166288963;-3.2341387402150286;0.03326705414499835;0.047415111654940306;1.3683811405464648;1.8724669458032437;2.1057623058199315;-4.7888270276467555;0.3624589255224558;1
2.201118831444459;1.0845487158953517;4.844924110139421;1.9305687217431502;0.12285511984746435;2.5233264883477204;0.015093380472734829;0.07900711442911978;0.014808779760812919;-4.519664731026248;0.0226878760069337;0.0295707147955541;1.6840980931405993;2.8361863873198025;1.5073476890496575;0.8269400755293859;0.34782291116701014;1
2.191186463046938;-0.6058767504394797;4.801298115840152;2.549586133874298;0.3665193108469789;1.6726446586618753;0.13433640522374438;0.36017814543296556;0.022347821186604944;1.850551004318918;0.014275517487508924;0.0540430304884265;1.926941551950977;3.7131037446352395;2.2231813116414685;-0.4116781329066104;0.30110290717215277;1
1.696061488057758;1.4742461729019407;2.8766245712726963;1.2114102393670425;0.5221144985258415;-2.438281344355797;0.2726035495708909;0.6832764296713614;0.02459239993733668;0.9014605791409878;0.026511675333945047;0.0540430304884265;1.5168706507796137;2.3008965711965685;0.9412692976710577;1.7405704829074367;0.2186924858949742;1
1.7790552440278045;1.4269829968949548;3.165037561302831;1.264236168735108;0.5208686980523963;-0.9741827335635538;0.27130420061079846;0.6130172189431686;0.0276804415888804;3.567223213791987;0.0180993168145202;0.0601611094116446;1.7922055171711953;3.2120006157788716;1.1175878635069783;1.4992125076959795;0.2651281441218183;1
1.7786134070373716;1.4638749307954928;3.163465651693087;1.2312949369366848;0.4280256008813625;0.043408819016248046;0.18320591500985142;0.4347393707378928;0.03423022278272444;1.9362998599960353;0.027786275109615545;0.0805547058223717;1.7928379009653748;3.2142677391379313;1.171227211117559;1.4889128164572671;0.2645220270539829;1
1.0835637265945188;1.4334757467146808;1.1741103495914014;1.1060662125218448;0.3865218869888443;-2.164681644885496;0.14939916912141696;0.487681744969795;0.013765677577240292;1.982842874364822;0.013000917711838448;0.030590394616090602;1.060281129590525;1.1241960737657595;1.1694140379713156;0.8415005223140177;0.17581613932515555;1
1.0528051315339189;-1.8813886974150087;1.108398644984152;1.3086314816679723;0.42838084349848926;-0.45500494087261956;0.18351014707647714;0.4614055499915769;0.0352932972364162;2.3740220902392437;0.0260018354236769;0.0825940654634444;1.0247944869472607;1.0502037404774993;1.2977949857165507;-1.9666286066692305;0.18330549912425664;1
1.1257965582683476;-1.6176831595815013;1.2674178906088571;1.358579985541943;0.4444311427653119;-1.584316661579706;0.1975190406596811;0.5366333143335384;0.04667193837604071;-3.7579804170630347;0.06627918833486278;0.09992862241256241;1.1400133943540292;1.299630539306595;1.378804155317865;-1.6370880079022587;0.20691296229493267;0
0.7744221486860425;0.1922414306365816;0.5997296643755069;0.8732617480006857;0.409041891042514;-1.622384520943779;0.16731526862763588;0.5053570141867755;0.03183949219128369;3.090735042735183;0.02039359641072705;0.0723972672580809;0.7746640681999416;0.6001044185600838;0.8576936130439412;0.3652544420230708;0.15799892463539605;1
0.37411817986671453;2.5946541026643217;0.13996441250678338;0.335625575948292;0.3296831719677224;0.29297774144877664;0.10869099387869881;0.330676284877045;0.008928265889374069;-5.3597353496299025;0.014275517487508958;0.017334556949118007;0.35820217393387693;0.12830879741095544;0.3288718862615019;2.6259837966131165;0.08007691928816361;1
0.44506843455790734;3.2424005700437526;0.19808591143982626;0.2814593368859031;0.3040653256886879;-1.004040251519008;0.09245572228616783;0.35186763283699374;0.007186150882657309;-5.021665690540793;0.011216478025899937;0.01427551748750891;0.3905434059348718;0.15252415191921007;0.22667076174540313;3.1723743081775027;0.0950323596433227;1
0.4442295822120936;3.2304029622196992;0.1973399217123312;0.2765117436362994;0.2995181764119165;-2.267843040195686;0.08971113800111995;0.38367033186786104;0.00898148279237544;-3.355014819461136;0.012491077801570383;0.019373916590190707;0.40994689142395696;0.16805645378816556;0.3168216261749057;3.2559653965934032;0.09894832353484977;1
1.1959123364967028;2.5999505529344304;1.4302063165850027;0.7268553194718921;0.28472185155138113;0.210260277058806;0.0810665327508467;0.2825698685151504;0.00993424951271243;-0.144417611291777;0.0104517181604976;0.023452635872336106;1.2085875421297512;1.460683846991233;0.7989120665789988;2.66390536370346;0.2613088389376761;1
1.5599484922610936;0.8782704721276033;2.4334392985076594;1.5242550017397853;0.3321149659443345;-0.3315360062185029;0.11030035060420647;0.37245576217232923;0.013437610822725904;0.6383486651106356;0.013255837666972525;0.0316100744366269;1.4422197761791142;2.0799978828021346;1.4350785707279186;1.3286551968235365;0.33234373088654556;1
2.9832648922140534;0.3374770594982568;8.899869417116927;3.0052966518786963;0.29124504084827146;-2.781793988888529;0.08482367381871131;0.4051826523391915;0.02443511158625835;2.7931941285890822;0.019118996635056548;0.055062710308963;1.9008246628965122;3.613134399075639;2.063018683654849;-0.31567821427378284;0.4833997433845499;1
3.1658921194831393;-0.3186798357421594;10.022872912205443;3.682830366907664;0.23013311929049238;1.9269528571697947;0.05296125259437199;0.16166297701266452;0.024264309236852882;1.40855030724925;0.023707555827470125;0.055062710308963;2.0955184985750956;4.391197777870423;1.9869147101092985;2.427824221806574;0.6306322838172657;0
1.6346634937801852;2.5095826229314575;2.6721247378976414;1.5075420952633238;0.1602433982609976;-3.074394693783562;0.02567794668623269;0.22339750249306545;0.025517474775654563;0.813475643524944;0.028296115019883702;0.055062710308963;0.5559209961033006;0.30904815390848595;0.5475864923237466;2.0858314148032573;0.24165483685344044;0
0.5926444743119608;-5.09009399331485;0.3512274729325003;0.9253732945058576;0.1446133283167112;-0.6426556019725691;0.020913014726836904;0.15902936693375658;0.022223406462428246;0.07237673130436129;0.02243295605179981;0.0530233506678903;0.18800045570192334;0.03534417134413084;0.11987330003419094;3.3629567318367783;0.09459850693724221;0
0.9018203948866393;-2.398696710633219;0.8132800246334941;1.1999130460698788;0.30989924528281454;2.4665827013176056;0.09603754222685806;0.25100802187705695;0.015181476791494052;0.4924416304008066;0.017334556949118035;0.032629754257163204;0.2013357894969652;0.04053610013236628;0.30006766168016763;-4.53007907783679;0.09785196175053099;0
3.5389651248564826;2.9557659852299984;12.52427415495046;2.8363171763637998;0.49630139611253826;-2.3105057816613694;0.24631507578325462;0.6407700967928895;0.02622910386556601;1.4924452283823086;0.016824717038849746;0.06423982869379011;2.0328684630070852;4.13255418788879;1.131119612787427;3.848889886706395;0.6531548256229269;1
3.6734307844809067;-4.0148326088325685;13.49409372837201;5.296205904668823;0.5208382432952346;-1.0078027268990617;0.27127247567886603;0.6011957336568454;0.01797984014515079;3.16066544538916;0.010961558070765723;0.040787192821454;2.06384563381258;4.259458800207249;2.981933948077053;-3.668566935971077;0.5534104355775451;1
3.4001067598850483;1.3115792643987145;11.560725978616;3.2852835034309766;0.4425704206961857;-0.8477665744855809;0.19586857727519877;0.4993834679213255;0.026983009324766452;1.022861601043358;0.023197715917201947;0.06525950851432649;1.7866422226218668;3.192090431655204;2.341792594367937;-2.4883710248087834;0.4466353838836181;0
1.4074003504890882;-1.3013806461064537;1.980775746556808;1.714662955007157;0.3440205131691691;-1.61919776170404;0.11835011348117846;0.4273833578092424;0.028845406668330038;1.5765149148477757;0.027786275109615607;0.06525950851432649;1.435672049358112;2.0611542333081214;1.7558928722921574;-1.319390425675211;0.3324388736641216;0
1.0166955615986117;0.6083616918920445;1.0336698649743166;1.008144239544071;0.24571785893169037;0.8050043533944375;0.06037726619797409;0.2457550690610557;0.03124615773640169;1.9151568353260657;0.029060874885286053;0.0703579076170083;1.0326672013466207;1.0664015487370622;1.0089043897749068;0.7179506407012948;0.3076523051673497;0
1.312735157827842;1.6399140466434083;1.7232735945972892;1.2123069499768868;0.1299363417667272;-1.052859717598908;0.016883452911719735;0.16067321872619755;0.031642950237958406;-0.9270678661885849;0.03823799327011321;0.0703579076170083;1.315548640431519;1.7306682253412182;1.2256188000137067;1.603016151230639;0.5757779329363168;0
1.458235809293954;-3.0768833640557354;2.126451675507193;2.0734591048345195;0.07823646833903625;2.2609927015585303;0.006120944978165022;0.0654138436372595;0.02588159507799945;0.028411085257005197;0.026766595289079254;0.06118078923218111;1.4591619735209698;2.129153664969611;2.0735964427890754;-3.0604408384622204;0.864272760792731;0
1.034835444989821;2.9360088243256612;1.0708843982072809;0.6694564474563204;0.037509266228353294;-0.8998794674502797;0.0014069450529894851;0.04244469827122671;0.03354111186580695;0.9915966530112126;0.03313959416743137;0.0774956663607626;0.9841614384669548;0.9685737369653457;0.6204208248948224;3.39846663270459;1.1565557775669018;0
0.5655658886590331;-0.8665772642124647;0.3198647744146818;0.6952450442434646;0.08106130964056196;0.2409744672335492;0.006570935920643064;0.08747817970447863;0.03669903084499427;3.204872976590405;0.0300805547058224;0.0774956663607626;0.25270855198714104;0.06386161224743757;0.22396087522542668;1.2494036565831639;0.5560368494017269;0
0.5182609087177353;0.7023241585060696;0.2685943695049328;0.4935820081447243;0.0851032060468724;-0.45262611872556846;0.007242555679456419;0.10227476497943061;0.03341169895996263;-0.025458317867325775;0.036708473539308575;0.0764759865402263;0.29003589189807644;0.08412081858911269;0.42792983293292153;-4.139374884371062;0.7504317918483646;0
0.5542169440847637;0.6338823706065497;0.3071564211106541;0.5180289917445905;0.11395409250590752;-0.4909240429886843;0.012985535198844928;0.12321083212725864;0.03956546042120372;-1.7668165164292304;0.050729071071683424;0.0866727847455898;0.31255769012325557;0.09769230965518504;0.5059949152215596;-5.593140493331754;0.7576904396581369;0
1.4692776515645494;1.8697958321766563;2.158776817387037;1.2143978974596839;0.11957370977823081;1.7340360907477717;0.014297872070128573;0.1141678925023697;0.03660802037058565;1.3590552738143362;0.03237483430202912;0.0866727847455898;1.1521340576814496;1.3274128868695216;0.6993503218410286;3.275505080847431;1.071659767016406;0
1.5401021777369217;-4.994212153258804;2.371914717870009;2.3726701507479366;0.06988580563034405;0.37100170458227844;0.004884025828602228;0.06754114680225021;0.042137171061599525;1.0125595496215105;0.036198633629040425;0.101967982053635;1.5399185361890322;2.371349098098572;2.3686479182773432;-4.973275667039987;0.8954662125176776;0
1.853305196680975;1.1309576125028098;3.4347401520447076;1.5201157877521498;0.10455235662323883;0.504178659442772;0.010931195275472915;0.11224917025178405;0.04406700233621467;1.7671888568147498;0.039257673090649474;0.101967982053635;1.8537901941160668;3.4365380838008845;1.5232669195593682;1.1233295296168428;0.6252602829652687;1
1.0924119518157487;-3.417086344207128;1.1933638724698936;1.50960096774641;0.20576982890321427;0.19126259463330264;0.04234122248685807;0.21771486714484783;0.01979860083506429;-2.0294521174398543;0.026001835423676956;0.042826552462526805;1.1001441722400593;1.2103171997137652;1.5320191465974426;-3.535396644681878;0.27935478521517937;1
1.1503598880060628;-3.0621880236363896;1.3233278719333212;1.5494727827951733;0.2167322885320947;-3.3660079558407645;0.046972884892359144;0.2987354299362337;0.02409229601450125;1.725089741090267;0.01758947690425216;0.05812174977057209;1.1298281516860338;1.2765116523422793;1.5526338581256738;-3.351666270021685;0.28840197788762095;1
2.466495359057916;0.01834026993090987;6.083599356254237;2.8015192716950925;0.14400054426836875;2.2642096230662254;0.02073615674958643;0.09813284844402459;0.02831333410199823;-0.16069887507700464;0.03364943407769966;0.06118078923218109;2.041762184410221;4.168792817687598;2.525830676713778;-1.3085428413830034;0.6282243120318087;1
2.3917990189689795;-3.082580204924481;5.720702547140973;3.4361382582547217;0.14294582532714387;2.2465627086728652;0.02043350897845832;0.09756713936025163;0.026828432990563637;0.5547468027139804;0.028296115019883786;0.06118078923218109;1.9240754797380915;3.7020664517293667;2.559758786743191;-1.8633496593266923;0.9245937418046467;1
1.4260979206177407;3.5683949169308917;2.033755279190244;1.0560373064700377;0.17060400431723638;-3.756855434127891;0.029105726289075606;0.2524775804520749;0.03779125643235294;1.535361064602137;0.03033547466095645;0.0907515040277353;1.116703978841576;1.2470277763606072;0.7069696111538275;3.717925005888951;1.0952015920560854;1
1.7704459851078151;3.723234804705985;3.134478986184382;1.229613522108635;0.1273953851429894;3.0424931967317512;0.016229584155730607;0.07763134732174715;0.017570378326474588;-2.142855488658615;0.0221780360966657;0.0397675130009177;1.427071877188947;2.036534142663585;0.8630425883761599;3.8258045959958196;1.2137996906357793;0
1.7959197924101846;-4.701088552922094;3.225327900770641;2.723454165567042;0.0696223334664827;-0.49732934779029314;0.004847269317318117;0.08496016328134925;0.024451063135070297;0.25324763705063624;0.024472315692872372;0.058121749770571995;1.4878282498169173;2.213632900953271;2.2532444452889524;-4.441978380857959;0.9077066797627947;0
1.6931045901585478;1.6517251228949839;2.866603153215944;1.5857324015119696;0.06314047645201332;0.5742807485218826;0.003986719766587248;0.06707995452984422;0.01659657472403123;-2.8452364283931644;0.022687876006933776;0.035688793718772205;1.590416266084876;2.5294238994273592;1.5333104973823688;1.3546316008262416;0.6349108659681414;0
0.6142564685452371;1.4183550125165034;0.37731100914966587;0.5327948884566527;0.051248372960774884;2.2733047169079335;0.0026263957311266823;0.034876420460469404;0.017473952529182175;-4.694188448017988;0.02651167533394505;0.035688793718772205;0.6162490226102318;0.3797628578680661;0.5338783127098736;1.4247620691482528;0.18595685471624498;0
0.7267834534167799;-4.457306002191409;0.5282141881604207;1.107810274850281;0.05248744457721616;2.695405882583845;0.0027549318382463378;0.03664639674385001;0.017473952529182175;-4.694188448017988;0.02651167533394505;0.035688793718772205;0.7273028886907648;0.528969491897931;1.1061762584533774;-4.441820241857046;0.23287333079626127;0
0.6228974566900414;2.6215465481410227;0.3880012415509219;0.5146651435721341;0.11793130211768044;3.647078546066556;0.013907792019171618;0.08264055630723344;0.015329148953168744;0.40359464327256056;0.015805037218313375;0.035688793718772205;0.625370570802287;0.39108835082557825;0.5312906075249577;2.562265580844894;0.18141240321875887;0
0.6065532039232033;-5.130320431213001;0.3679067891895031;0.946746611260858;0.1447351502997836;-5.948027718286005;0.02094826373230095;0.24533617302517063;0.009815797612720917;-1.2948863930580714;0.011726317936168025;0.0224329560517997;0.6042186731747353;0.3650802050130377;0.9234714270104813;-4.8605598579189415;0.19245473368852878;0
0.81076491531235;1.5611853141199958;0.657339747901442;0.5913676575037363;0.11725438630951969;3.060594215101794;0.013748591108822079;0.0966256629931394;0.015155772080905633;0.9974334788350951;0.013000917711838499;0.0367084735393086;0.8037267296170679;0.6459766559009473;0.6110374514132508;1.520354223797682;0.2961758423598359;0
1.4488440374631808;-0.172772157188394;2.0991490448926107;1.5237381051894756;0.039243193177423905;-3.315834580491467;0.0015400282107606103;0.05463381423600994;0.020670010771310175;-0.28226458816499367;0.022687876006933803;0.0479249515652085;1.37855045349699;1.9004013528367565;1.4753319186219396;-0.3631170538504822;0.6244929095938409;0
1.3055697902400267;-0.14596515567539292;1.7045124771873876;1.4228389472465275;0.05212448664123574;0.3176296227317028;0.0027169621076123637;0.051661884554854154;0.015317840099580158;-0.837682101717304;0.017334556949118;0.035688793718772295;1.2294161185400554;1.5114639925260953;1.3719848238306431;-0.44670142986362116;0.584288634155779;0
1.2398383381770088;1.4410401794958858;1.5371991048135272;0.911702525564666;0.14153052881159575;3.233870550850604;0.020030890585689933;0.10706552182525153;0.01003836676225977;-1.4769849079525965;0.013000917711838478;0.021413276231263392;1.172929364156869;1.3757632933014368;0.9020913718945343;1.4724973859756325;0.6445789393776112;0
1.2444696020535326;1.0264316033626137;1.5487045904352776;1.049502011335366;0.15961036085321723;-5.572193284010137;0.025475467291694216;0.25822449583474993;0.020154266789536118;1.0966464373501896;0.019373916590190672;0.0469052717446722;1.175127347767718;1.3809242834715914;1.0022753049107185;1.0728565054840438;0.6341489930361699;0
1.0052913903904763;1.5068724207352506;1.0106107795932169;0.885687195661677;0.16845801224367724;1.8453959598073322;0.02837810188909091;0.12021786899306142;0.020314844035245607;-0.769778449591298;0.023197715917202023;0.0469052717446722;1.0136455865688758;1.0274773751705601;0.888337781871408;1.5406468490411545;0.5153216826096418;0
2.1026070582581586;3.3164043305271704;4.420956441437029;1.4572450999463813;0.08442756976842668;-5.470747352443327;0.007128014537002555;0.1357486192610337;0.014444464403572667;-2.755582167966443;0.0193739165901907;0.0316100744366269;2.101365898651686;4.415738640016208;1.4547964433866527;3.314310081756684;0.8294405259736773;0
2.002301571486389;1.7443005731224108;4.009211583176863;1.7686839525694258;0.08259212146684163;2.196324784817106;0.0068214585283935215;0.0576181224286339;0.013330794445490046;-0.24719149736235657;0.014020597532374827;0.0316100744366269;2.001666714399224;4.006669635533784;1.767958804094295;1.7426059454614258;0.7066881640161176;1
1.9196345529318821;1.7774312476231184;3.684996816809987;1.2520632467268151;0.0375345742973533;-5.531851522596088;0.001408844267683535;0.061266926449377146;0.009899300417531958;0.19950889685450512;0.011471397981033953;0.0214132762312634;1.9191736304375697;3.683227423766921;1.251737277359065;1.776229256750332;0.6264108315827204;0
1.5180400436949;3.4548115855432897;2.3044455742612135;0.929556353498803;0.08110512982563603;0.27561865563906984;0.006578042084033275;0.09517907193857678;0.01099411576060342;-2.698207885294762;0.015040277352911177;0.0234526358723361;1.517276869175179;2.302129097734033;0.9290802386738428;3.4542373829101045;0.4480475992974334;0
0.4227348259641816;1.1790085540999282;0.1787047330829669;0.345533688630109;0.11918076609872452;-4.7396879789978446;0.014204055007878885;0.18632727411414446;0.011076558061792637;0.5807239299094675;0.012745997756704423;0.0234526358723361;0.4231535323562178;0.17905891194554466;0.34570780906293264;1.1792058110929684;0.15096200979273913;0
0.5554086055945042;-0.28376035557371715;0.3084787191684315;0.6217745975862883;0.1776484111500806;0.9516297054404035;0.031558957984148074;0.1532400862933157;0.011138961699584417;2.9681189725710766;0.009686958295095374;0.0234526358723361;0.5601596373061206;0.3137788192669246;0.6260732584501825;-0.31007020915970784;0.18680294395696312;0
0.5556377654978608;2.806782122837877;0.3087333264474558;0.401994414064188;0.2698258652491652;0.46440684714323055;0.07280599755746066;0.29783438811444946;0.019317932202821474;1.2441038392529187;0.015550117263179376;0.0469052717446721;0.5651548062970275;0.3193999550806307;0.3547771416480443;3.1075811202452677;0.18295139831210167;0
0.8377359896677464;3.337882919782878;0.7018015883845986;0.6348644379310517;0.3269561068179374;-2.943150353263464;0.1069002957855425;0.43666179462189497;0.01280364923139045;-2.0073124181528;0.0163148771285816;0.0285510349750178;0.856757568608515;0.7340335313679743;0.6452999249432851;3.478471129355139;0.2262437034255837;0
0.7888579857099899;-0.4840289999687215;0.6222969216184225;0.8954252263255329;0.33757238482755664;0.09738965480261186;0.11395511499816398;0.3410903911155627;0.013743629801267988;0.38168504334181463;0.0158050372183134;0.029570714795554197;0.8078017203010294;0.6525436193213024;0.9996605981201325;-1.5000875878895403;0.20025767402138225;0
1.5364675278106652;0.4450744992334066;2.360732464016617;1.5455064756759804;0.2694287961246044;-2.788905727705048;0.07259187618115365;0.35718684718756233;0.011234809557849572;-1.2722546483612476;0.014402977465075927;0.023962475782604298;1.5463031478039544;2.391053424908418;1.4973451014483334;0.6632763985486285;0.31727899990097125;0
1.27863070649076;1.508348803857027;1.6348964835810602;1.33133261284022;0.22287238579290727;0.586482153545214;0.0496721003490225;0.22937107196915796;0.010088949043162819;0.5513692312836564;0.00981441827266235;0.023962475782604298;1.244688971491074;1.549250635751508;1.2438634137394171;2.0130768093388465;0.24276570998113903;1
1.7912899070714965;1.940826656512332;3.208719531176211;1.1485189620539158;0.1009043051432355;1.2852205629316007;0.010181678796439183;0.09157718917455004;0.014619609420760092;-3.658153841349444;0.02052105638829407;0.031610074436626896;1.7104370865520817;2.9255950270527733;1.0406580040792006;2.049821143405115;0.37479690077512984;1
1.8490762581221953;2.0821851642008085;3.41908300835118;1.5049999291987555;0.06033313750948658;-2.646194982207094;0.0036400874817386166;0.07916945618340465;0.010476558880408838;-0.8963778792315118;0.011853777913735122;0.024472315692872396;1.760797940255392;3.1004093864076308;1.4178963608621258;2.1418528099313807;0.3975921307735939;1
0.7063744340668688;1.451690587506537;0.49896484110328926;0.7184001494867029;0.047087247101649125;0.7307449660551999;0.0022172088396117643;0.04972548189454873;0.010298261383054706;-0.16089965398636252;0.010706638115631675;0.024472315692872396;0.6642236466787742;0.441193052807249;0.6756402414134319;1.507897228617617;0.1776020090019967;1
1.285323922103875;1.2633971007516447;1.652057584732488;1.0992445562696544;0.13329526722936647;2.3216757811436235;0.017767628265748216;0.0898019988920844;0.011547620733053779;0.25730994151538766;0.01147139798103395;0.027531355154481497;1.2483376153016397;1.5583468017769844;1.0580192880731571;1.3497544726003365;0.3028229609404428;1
1.0207439553904047;-4.739588959529074;1.0419182224660484;1.5475566389807511;0.1296582921937342;-5.868490131661192;0.016811272734595758;0.21663042690551482;0.020822451164129542;1.2801039743732137;0.020903436320995148;0.046905271744672;1.0070314163742216;1.0141122735646706;1.5377371684068937;-4.840674859813888;0.20970632438395911;1
0.9864747910101433;-5.019273707751676;0.9731325132985059;1.5229083039920308;0.10279313060557983;0.14883280075568273;0.010566427699695792;0.11841193549952833;0.019302227476293038;1.404279069765586;0.01478535739777705;0.046905271744672;0.9573701580449948;0.9165576195150983;1.501411780735543;-5.228461050077565;0.19786799288023982;0
0.8987308110864147;-1.6085309781583828;0.8077170707960448;1.1298026055175958;0.31530224929220396;3.5980305720391677;0.09941550840872314;0.22793875192894308;0.016988714502031328;-5.279444275061135;0.026766595289079098;0.0336494340776995;0.8826614506978911;0.7790912365481056;1.2152887154320853;-3.112001554066243;0.17890083099774218;0
1.1041517428802443;-1.247321955222656;1.219151071305481;1.2885388678856269;0.4515376830784965;-3.9710097391833727;0.20388627923989677;0.6587957553052408;0.018746585409248357;-4.5081929904440035;0.028041195064749547;0.0387478331803813;1.1437518596571554;1.3081683164692015;1.1689183207623675;-0.019055454714463238;0.2732786537553387;0
0.7042215020846285;1.4337729543420732;0.49592792399833047;0.5023389095787731;0.5428190156083285;0.28446691142851677;0.2946524837059947;0.5344291942319158;0.026121522295196063;0.944904126983575;0.022687876006933824;0.0632201488732537;0.7292226245225899;0.5317656361156141;0.740652943862318;0.019434575646839036;0.19846064329809535;0
1.0491911851261033;-2.087382822543976;1.1008021429463173;1.3156866639611025;0.5570635348974197;-1.1171220674343747;0.31031978191240867;0.6582979986104465;0.026028480067966243;1.4643498042031844;0.019628836545324775;0.0632201488732537;1.0348718347118928;1.0709597142799594;1.3692977050323973;-2.796776690654392;0.26016385511244305;1
1.2508784385174554;0.840728818160434;1.5646968679478672;1.2842060452066533;0.4720647591459497;-1.911020599214;0.2228451368275235;0.6310395911984329;0.02356320996898396;-2.1448820996227482;0.031100234526358704;0.0509839910268176;1.2346579756872371;1.524380316928106;1.2220178042919976;1.0144384507265567;0.36240655553176204;1
1.5673319724224124;-0.7960192418252046;2.45652951177753;1.8192587264593785;0.26016676340370515;-3.388274317863223;0.06768674477995948;0.373113109273285;0.0214759030514538;1.57503486318706;0.018099316814520275;0.0509839910268176;1.5682764248777408;2.459490944827308;1.8157636168452593;-0.7825124737758458;0.5082707572753605;1
1.7730453591591664;-4.936290273031615;3.143689845635857;2.7309474312503204;0.19605341630082068;-5.859344408643429;0.0384369420432229;0.32802549501272704;0.025881595077999472;1.58694001998842;0.025237075558274702;0.058121749770572106;1.771960624746534;3.139844455652127;2.721347528763206;-4.894889098998565;0.5231072973927307;1
1.5406405278824884;-4.589799459972591;2.3735732361540323;2.3158846741335477;0.16215749292554904;3.979369839562871;0.026295052511899484;0.08852625683826004;0.022563896306451465;0.879883371386958;0.023452635872336078;0.05098399102681761;1.5372409842796255;2.3631098437489917;2.30409199251137;-4.542606560091432;0.48351610181093574;1
1.873211074816078;-5.414846380724944;3.5089197308136058;2.984015284382723;0.13299388804079995;3.969270315233416;0.017687374256208834;0.07393536746499502;0.020936570379946288;1.2335705330594955;0.016569797083715747;0.05098399102681761;1.8663849894997857;3.483392929030115;2.978173378302516;-5.4357884987983685;0.6490822140794719;0
2.5980558292699203;-3.8129593886943365;6.749894092003413;3.785856948509144;0.21051548088068328;-3.428452888975988;0.04431676769042533;0.30722427405628766;0.021283399210704206;1.0762107866012514;0.018864076679922508;0.05098399102681761;2.0649070442241215;4.263841101286399;3.395026588398472;-5.728347181483675;0.7658834334289404;0
2.2107504716007593;1.924791798728295;4.887417647682979;2.055985391368877;0.2700048513719669;-0.03895999278663709;0.07290261976439792;0.2777333895391891;0.058838117494970484;3.456525069241277;0.03849291322524726;0.1294993372081166;1.7375552343020053;3.0190981922502966;1.0985746262038467;3.7866288284773475;1.037616311305503;1
1.7994823582047828;0.9572184659987659;3.238136757490246;1.8358352795515773;0.20131810347679294;-2.8543280484715634;0.04052897878749271;0.2729851026085681;0.056279028998695954;-4.744943575223214;0.08641786479045578;0.113184460079535;1.3308459148104552;1.7711508489676773;0.8937940137889512;3.6372232149402777;0.9054705968310629;1
1.838922451080633;3.3844256089160893;3.3816357810884035;1.1476580511137109;0.16481659030789023;1.3266621279894348;0.027164508440718934;0.1447738262961471;0.04820616561057542;1.2658348723029746;0.044356072193331236;0.113184460079535;1.3670390276094113;1.8687957030072848;0.735781990199249;3.924557797896675;0.9754969336541383;1
2.4893153815539697;1.5658311810161205;6.196691068841186;1.6434176403486733;0.11300388454826915;-2.494991004009302;0.012769877922998543;0.14641781779891883;0.07560944777678932;2.7365660418371114;0.05888650963597422;0.17130620985010692;1.4399463833998345;2.073445587066263;2.2522607024058305;-5.003230913696612;0.755136117539931;1
2.6823415164270092;0.3155154579713706;7.194956010747949;2.914178297278781;0.08043494305000616;1.5725429008458356;0.0064697800634577335;0.06797823488552956;0.0648138685763058;-1.7053520998047773;0.08182930559804218;0.1437748546956254;1.1648673378723782;1.3569159148418812;1.3395634589970264;-0.8376541700403397;0.5203815147570954;0
1.299049237584359;-3.268157811193092;1.6875289216685043;1.8072534375801435;0.03378880737054587;-0.19677425406779214;0.0011416835035238549;0.03542535643695366;0.05753741604839751;-1.1324461503497592;0.07341694707861723;0.1223615784643621;0.9751861689019765;0.9509880640177143;1.3222379377519407;-2.2355161524162135;0.6139808598698403;0
1.2623853435494585;-0.051982630210870795;1.5936167556084844;1.4119880083700218;0.02189958021538718;1.051130364714849;0.00047959161361017756;0.018574116622519954;0.06280419292408536;1.8253847892802337;0.041042112776588126;0.1519322932599163;1.060308505591654;1.1242541270300064;1.2673165203020509;-1.053810335870109;0.48019720110687014;0
1.2297898844709418;0.4112217318069984;1.5123831599470525;1.272097898385337;0.09702767471061438;3.69414624637675;0.009414369659748798;0.06645537773255994;0.07403278114541016;0.5454033834485479;0.08310390537371255;0.1611094116447434;1.020338845991105;1.0410913606384595;1.0869355354332737;-0.1683816608256823;0.47503093246340555;1
1.2566701602393222;-1.543231825061973;1.5792198916359237;1.5313510402404422;0.16883594653991943;-2.610223769233418;0.028505576844030534;0.23535862773543392;0.11200708252031001;-0.13705399626876158;0.11624349954114395;0.2661364331599877;1.0730922579217128;1.1515269940115196;1.410437481906242;-2.7221734920306453;0.5259977895908934;1
0.7116975508777829;1.4186372864737535;0.5065134039254343;0.558283397688411;0.1639587168018728;0.25509989435050606;0.026882460815316724;0.1916984617490297;0.11470831478256696;1.6031401377560641;0.10400734169470789;0.2661364331599877;0.7209606991605738;0.5197843297341034;0.5828287577955713;1.2606181509988836;0.29744583210408915;1
0.5398463146341685;3.2215206241333014;0.2914340434240937;0.4198157601412409;0.07180295409227054;3.9585760600648;0.00515566421637671;0.0414921998601695;0.043028394246501754;1.5000000000002078;0.03008055470582241;0.10502702151524429;0.527563861275878;0.2783236277243138;0.42871966907948167;3.1387958828070417;0.2324346803964086;1
0.9414386524763947;1.2089262319983867;0.8863067363765699;0.7594482716807067;0.09650126883372881;3.9782741280088523;0.0093124948865196;0.049550137453655996;0.045846865514764794;1.4438795087941116;0.03186499439176102;0.11216478025899869;0.9131410140600987;0.8338265115587054;0.737768109474989;1.2077111384813737;0.357543850699096;1
0.8974804459835181;-4.093971418218953;0.8054711509227744;1.3098822063104492;0.20028990590088175;-0.6099943075778391;0.04011604640578407;0.24914505369861673;0.027008686037439562;-3.2174171620499656;0.03798307331497909;0.057102069950035694;0.8744967091120153;0.7647444942477447;1.2744317444492226;-4.068770101207923;0.27032517153446123;1
0.766038301233812;-3.544893263345193;0.5868146789571845;1.0832253247350137;0.2948359293118905;-1.0722973699555247;0.0869282252132061;0.34106537671196324;0.02258069009875683;1.545753782211568;0.02103089629856226;0.0520036708473539;0.7523605853123048;0.5660464503314738;1.0730669994907411;-3.6229182921049947;0.2250704357277803;1
0.772996277960905;-3.5200042788223023;0.5975232457414127;1.088574196548385;0.20147220003905908;1.4390892520050524;0.04059104738857863;0.14088416448626828;0.019308398713672965;0.7957579533002406;0.019246456612623628;0.0448659121035994;0.7722391324188624;0.5963532776390373;1.0884313612562897;-3.554759296718064;0.23208387337449496;1
0.949289284346535;2.0719459155107707;0.9011501453751566;0.739407785442554;0.2276505347378371;1.501564083364265;0.05182476596642318;0.15670462780167427;0.02453728714353653;0.5788123225449553;0.022815335984500876;0.05914142959110841;0.9404554936128338;0.8844565354665589;0.7389671220593819;2.0934306697893366;0.3241588197231211;1
1.8212242668296483;3.242362845687552;3.3168578300891904;1.4192219693268981;0.38699678419368666;-1.3378187467389164;0.1497665109762549;0.4583306028727926;0.02564913668368419;1.3778729124051274;0.024344855715305404;0.05914142959110841;0.6677067740722789;0.4458323361420093;0.793326171596126;-0.8983641817659347;0.3071678479637756;1
1.879415869819693;2.951555946866044;3.5322040117301134;1.4795403167762324;0.30916201209589966;-1.5096935971642544;0.09558114972318521;0.4060932109843707;0.028527885534677635;3.130424202420432;0.02358009584990315;0.0606709493219129;0.7725549907893184;0.5968412137934839;0.8685898071008655;-0.8128856615202942;0.34350803188106355;1
1.8188269455524435;-1.4521924882211135;3.3081314578676313;2.1817968762757527;0.1889214804000607;2.9632932831791834;0.03569132575655052;0.11678282379888982;0.010866290142727894;1.4700385189716467;0.00777505863158965;0.0265116753339451;0.9717878557237634;0.9443716365321899;1.0804304066848824;-0.1708463450206068;0.5307923475070248;1
1.720473433076953;1.2572489408509764;2.9600288339235967;1.392049692586347;0.09641909731278997;-1.5337575908828711;0.009296642326613263;0.12498865160940731;0.010945737664800252;1.047611298916637;0.009304578362394175;0.0265116753339451;0.9972332564558153;0.9944741677814698;0.5882127350293171;3.4059473901365855;0.6062163500819908;1
1.1435853840246495;3.1784213044138063;1.3077875305548048;0.7397569174642471;0.21514132362646163;1.269419843660657;0.04628578913174589;0.20602424507116257;0.014560222115575568;1.846358351447888;0.011343938003466874;0.034669113898235904;1.0233261023174847;1.0471963116842953;0.6680515525968389;3.5752531677983796;0.6409171352980768;1
0.4025932924876916;-3.4575834601226756;0.16208135915608;0.5648769752782339;0.24925215309900156;-5.0888014055692175;0.06212663582448811;0.38885570592848706;0.029943420671271523;-0.6594005978869699;0.0351789538085041;0.0672988681553992;0.3517194273843556;0.123706555599579;0.36936892769941054;0.47873855114416664;0.37717281636200106;1
0.9878436025039368;0.7279021458507984;0.9758349830079558;1.0913322639287353;0.2404521536743086;-4.192268405761775;0.05781723820661333;0.35598058204130967;0.027581663748571853;-0.21510473689934528;0.0331395941674314;0.05914142959110841;0.39574775246095056;0.1566162835778938;0.3262383635504318;3.028528112458172;0.38134684830508137;1
0.9043139341232387;1.805536623787896;0.8177836914494493;0.713783681904953;0.27993975593771303;-2.5504121499042682;0.07836626695446634;0.38089171934893185;0.024192785693678547;1.546359442056417;0.015550117263179397;0.05914142959110841;0.36818782840709335;0.13556227698713122;0.26283095220827524;2.5871824747577996;0.374200109967434;1
0.6933289870442175;-2.4096502956361316;0.4807050842757607;0.9128439178731773;0.37121894252414284;-0.4495951217601242;0.13780350328874286;0.3996352416010267;0.024173079618904216;1.5354605438128903;0.014785357397777095;0.05914142959110841;0.4218402045441672;0.1779491581698648;0.4297434108722291;1.4525740312805038;0.40098046594828857;1
1.2547986058940257;0.7015643987420646;1.5745195413535902;1.1839120010795994;0.397185392417447;-1.4043597056453407;0.15775623594980134;0.47374396639718064;0.027251408208203824;1.7072763333652272;0.016569797083715698;0.0662791883348628;0.9093423091717829;0.8269034352498705;0.5549617615663032;3.5491614397172064;0.5352275563178862;1
2.103275169780669;-2.2928331819521404;4.4237664398159025;2.7126518792033085;0.4014328974642654;-1.681211748152693;0.16114837116655545;0.4887473356678895;0.028275055234614915;-4.2090237784554105;0.043081472417660804;0.056082390129499296;1.6658309947638095;2.7749929031157827;2.147576422785024;-1.7040293426016078;0.6565326053162631;1
1.6407959527976141;-0.7739808571142408;2.69221135871703;1.8994303525758098;0.3169655275406118;-0.5458878542408669;0.10046714564909835;0.3647293617180529;0.023993191127036014;2.557301930718964;0.01631487712858165;0.056082390129499296;1.3770710648452453;1.8963247176340179;1.314306107133354;0.6651252574236821;0.47958777616638304;1
1.4830281551365883;-2.58995861105185;2.1993725089278326;2.05104907219066;0.26618702797068083;0.38512421864140833;0.07085553385986403;0.2561982909062026;0.009938609508319894;1.8315789474208017;0.00815743856429084;0.02345263587233609;1.2414044962389075;1.5410851232821756;1.855187013247865;-4.417849418410629;0.3301014689531769;1
1.6019327028578914;3.715334815169996;2.566188384485589;0.9539576651122932;0.22286180562071722;-3.8093788877484407;0.049667384404526345;0.3173641627340442;0.009673532151020207;1.065432098807145;0.008157438564290784;0.02345263587233609;1.3162578760916415;1.732534796373279;0.9357561597617723;3.2854077359878637;0.30450714758088127;1
1.7063218156176683;-4.831092042178321;2.911534138452776;2.6168822218675905;0.18798235053071483;1.6014256377458391;0.03533736411105254;0.17159108610426088;0.005224304459039873;0.34285714317519833;0.005353319057815872;0.012236157846436196;1.392304064261875;1.9385106073601353;2.0419857572481974;-4.130645994408999;0.3521395924959822;1
1.5316587412881746;-5.617675203281913;2.3459784997644753;2.4872056050449185;0.07037469990788722;1.172829704775209;0.0049525983871251825;0.05771768263902333;0.0141658447939738;1.7835646594608736;0.012745997756704389;0.0326297542571633;1.183835735055305;1.4014670475939344;1.8920106522612778;-5.4273182430300455;0.2884719047241474;1
2.098492319039218;1.5013151724289457;4.403670013066595;1.465216443354983;0.07105638034438744;1.1930258755028156;0.005049009187646249;0.05811855942125099;0.02867670101531081;1.933115680876762;0.021668196186397468;0.0683185479759356;1.2907913422624062;1.666142289259584;0.9018921176602337;2.667090590283575;0.3749033476286471;1
1.5283739586699263;-5.144583173026573;2.3359269575403814;2.3988464887395278;0.13616240628686943;-0.780209104517235;0.018540200885830502;0.1570945271125992;0.029014624522457604;1.8479658022719363;0.023962475782604298;0.0683185479759356;0.4505710500156272;0.20301427111218484;0.7044963996204312;-4.949897611969384;0.16653961133049303;1
2.7550493253948454;-0.0026953065078085814;7.590296785358594;3.164046994878196;0.179965254118832;-1.021488789694967;0.03238749269005577;0.20874658958527714;0.03232025817933638;-4.092481712195115;0.046905271744672176;0.0683185479759356;1.4996558954954669;2.2489678048943107;1.2758593121224169;3.036172745132646;0.4576514398118218;1
3.129864253321356;-5.4710482075550075;9.796050244218849;5.014482409984774;0.21899822456783105;-1.1182910765687506;0.04796022236386216;0.2545149292399833;0.024063507599720514;-4.146791818969454;0.034924033853370055;0.050983991026817596;1.613102912492061;2.6021010062903698;2.504407067506221;-4.648736657341752;0.43758601484531345;1
2.800969254562444;-2.7253986636293597;7.845428765004091;3.7753280810713856;0.2531038390749849;-1.1645729382413101;0.06406155335449586;0.29439954607670105;0.017274471648921746;2.923259964307089;0.010706638115631648;0.0397675130009177;1.7040137269451405;2.903662781617468;2.5798966625219455;-4.606148150751634;0.47191118587656533;1
3.0034122765576288;-2.0295899412956526;9.020485302977079;3.898433169269721;0.28222067208143115;-1.1892727471161582;0.0796485077500947;0.32840044009543123;0.014477418736240926;-1.7146050429964497;0.019118996635056604;0.030590394616090505;1.8057659580965455;3.2607906954203347;2.846650213019909;-4.9143407441687295;0.5135988174811049;1
2.5806047591626067;-0.945343670182595;6.659520923012695;3.1202621176785925;0.3063200389783219;-1.2034036485144242;0.09383196627968064;0.356517611296169;0.0376258169279944;3.133791917117975;0.03135515448149283;0.0795350260018354;1.3096848935887482;1.7152745204945707;1.9182716271497235;-3.52188780259195;0.4273965464150358;1
2.3459294498223544;-0.35305744526232274;5.503384983543815;2.867681262825854;0.3253869516639515;-1.2117964661258576;0.10587666831315871;0.378751059678918;0.03481252217181015;-0.8483435596206519;0.04053227286631997;0.0795350260018354;0.934286715524089;0.8728916668047901;1.5683602801387924;-5.866304300989299;0.3350186269019534;1
5.161895142945678;-0.505352109353721;26.645161466766183;6.399365245090574;0.33941304020517865;-1.2167805159002647;0.11520121186132222;0.39510078524367664;0.027240277720388905;1.0431409541388135;0.026511675333945117;0.06322014887325379;2.308737450868883;5.330268617044547;1.4715434580946116;2.4668000131684504;0.5577044190144755;1
5.119573184927071;1.41576326285489;26.210029595824313;5.454320963858689;0.3483935326263145;-1.2195363814609248;0.12137805357584287;0.4055667879904514;0.022540844473796444;2.5934897234068934;0.019373916590190696;0.0499643112062812;2.8960885836856725;8.387329084554485;1.8821059793863482;1.5289223437822468;0.7766076764929318;1
5.133129470840569;1.3897779198125342;26.349018164411973;5.468413934994077;0.35232585591931714;-1.2206484346176634;0.1241335087492794;0.41014906791922745;0.006195481504217111;-1.4624482163494061;0.007392678698888572;0.014275517487508896;2.89715011567192;8.393478792737818;1.809369309882758;1.5570495558152402;0.7819764527463021;1
4.807185750453069;2.079468754186564;23.109034839359037;4.2386707311027845;0.3512089852425095;-1.2203381473052364;0.12334775131507324;0.40884762503001487;0.0074000003592931156;-0.5765902900560036;0.008157438564290818;0.017334556949117896;3.0540498649301915;9.327220577480121;3.087171522020716;0.6956499341782703;0.9314043857802482;1
4.807185750453069;2.079468754186564;23.109034839359037;4.2386707311027845;0.3512089852425095;-1.2203381473052364;0.12334775131507324;0.40884762503001487;0.0074000003592931156;-0.5765902900560036;0.008157438564290818;0.017334556949117896;3.0540498649301915;9.327220577480121;3.087171522020716;0.6956499341782703;0.9314043857802482;1
