acc_X_std;acc_X_kurt;acc_X_var;acc_X_iqr;acc_Y_std;acc_Y_kurt;acc_Y_var;acc_Y_iqr;acc_Z_std;acc_Z_kurt;acc_Z_iqr;acc_Z_range;acc_std;acc_var;acc_iqr;acc_kurt;acc_cv;hole
2.1348544803038565;3.7058587101298315;4.55760365207345;1.4298660107098535;0.6341488370847821;-0.5992305377784017;0.40214474757598145;0.7229422380614405;0.012800265155943376;1.6770591638815802;0.01249107780157025;0.0285510349750178;1.1602665261886567;1.346218411793893;1.2294826879791065;1.1782121276185382;0.308925840803519;0
2.1348544803038565;3.7058587101298315;4.55760365207345;1.4298660107098535;0.6341488370847821;-0.5992305377784017;0.40214474757598145;0.7229422380614405;0.012800265155943376;1.6770591638815802;0.01249107780157025;0.0285510349750178;1.1602665261886567;1.346218411793893;1.2294826879791065;1.1782121276185382;0.308925840803519;0
2.1348544803038565;3.7058587101298315;4.55760365207345;1.4298660107098535;0.6341488370847821;-0.5992305377784017;0.40214474757598145;0.7229422380614405;0.012800265155943376;1.6770591638815802;0.01249107780157025;0.0285510349750178;1.1602665261886567;1.346218411793893;1.2294826879791065;1.1782121276185382;0.308925840803519;1
4.197182299929117;1.6267019909895346;17.61633925883827;2.7184333788612793;0.41035710784516843;-0.08327740483498403;0.1683929559590512;0.46003622754383056;0.04210014185564323;1.9385577851195421;0.041806872641990324;0.0907515040277352;3.4399502570945018;11.83325777128453;2.14357001939845;2.4559396669984164;0.6384329187296953;1
4.364297990352922;1.396572679264633;19.04709694859855;3.9616437658799106;0.21321253732868317;1.575672328250885;0.04545958607413512;0.22310586752600026;0.04115095596821776;-3.7441511739875537;0.058631589680840215;0.0876924645661261;3.588339399553999;12.876179646391554;3.0318318388533347;2.4262338174366587;0.7046974786278049;1
3.327969379473336;1.9204696928809817;11.075380190712139;2.758805363376908;0.07740580821352609;-5.092975015933151;0.0059916591451891835;0.1224340591457107;0.08600995760359564;1.8979839707198582;0.08386866523911492;0.18864076679922492;3.0048798372152916;9.029302836102998;2.4540466426903214;2.309972642339849;0.5035925772700776;1
3.3806444070226704;1.76039070837151;11.428756606733662;3.038115577142276;0.16010938771872618;1.397918022285264;0.025635016035665387;0.17022060670210815;0.09142449877475008;-3.9306137187399717;0.13434281635566425;0.18864076679922492;3.0716593333131366;9.435091059929702;2.7669636772700734;2.12473731230582;0.5239431807905813;1
1.5135508034435574;-1.7720274224919272;2.2908360346046384;1.9498151418723433;0.28815675811702224;-0.566331833338527;0.08303431724851205;0.3318313095288197;0.07285777029720517;1.4289018235223079;0.05914142959110835;0.1753849291322524;1.3055817523513789;1.704543712072897;1.446931052250004;-0.4170276670837012;0.33036684544442535;1
1.9427938215820333;-0.8693667000858856;3.7744478331773217;2.2153307124362684;0.3997912491865897;-1.0111996572181017;0.15983304292617387;0.4648590675475355;0.053584958808154434;0.8315605518056124;0.04767003161007437;0.12949933720811652;1.6900169276708903;2.856157215814155;2.0021029066623064;-1.1302294946315907;0.35686030489016407;1
1.9213529439783241;1.5473737683208775;3.6915971353341734;1.6974612716924207;0.4905848477588682;-1.1548954274064975;0.2406734928505919;0.5719111750664725;0.05429575625250811;-1.6434570825346118;0.06780870806566724;0.1213418986438257;1.724858974042809;2.9751384803360117;1.855354471732987;0.6535827239999747;0.4213959065943931;1
2.9070225592417467;0.9447019341281813;8.450780159940434;2.568708268012427;0.5596398720991947;-1.2128519798911288;0.31319678644320303;0.6529876320856312;0.041855548524314;1.100253730137112;0.03594371367390635;0.10094830223309871;2.3143112694754047;5.356036652020859;1.7209202060488362;1.9783908403033106;0.7080337221169344;0
3.392009844853559;-1.5589852958566137;11.505730787583465;4.469898628400653;0.6066653630832582;-1.238570482011209;0.3680428627649415;0.7080884386050104;0.02890691880088115;3.2203850697436778;0.017844396859386148;0.0652595085143265;2.627453909334288;6.903514045676033;2.9865358349912485;0.6298279432993894;0.9283923773288819;0
2.256921836290529;-5.745566944114713;5.093696175125014;3.7392763752693208;0.6315461032389117;-1.2490982240124708;0.3988504805162541;0.7372135946246219;0.030401453598300314;-3.7566377025688276;0.043081472417660846;0.0652595085143265;1.3468337414192142;1.8139611270252785;2.215803479961322;-5.693336561481732;0.6539999051852914;0
2.154215431079109;-5.054165869381833;4.640644123499352;3.406320573147965;0.5491309869809796;-1.7137862568518898;0.3015448408627048;0.681801385740868;0.020535433481957497;2.62966117125206;0.013510757622106646;0.0479249515652085;1.2318151547113512;1.51736857537655;1.79294460952458;-3.5672525181524755;0.6420967280407973;0
2.711435443480439;1.0541883945584498;7.351882164161964;2.342038939540156;0.44155498632783435;0.2832003952167046;0.19497080595097396;0.44620684217403034;0.024653540689211623;-4.472153003713425;0.03760069338227797;0.0494544712960131;2.05547227397368;4.224966269074531;1.8947078922816467;0.7787988659622496;0.6576479152034681;0
1.8064178865367606;-4.413491598558126;3.263145580799937;2.692326500628903;0.2998345579892914;-2.368076536032998;0.08990076216463373;0.3912373824847798;0.027257369099892785;0.7730142984707093;0.026384215356378152;0.0642398286937902;1.8194519957705384;3.3104055649133954;2.7345119163199603;-4.565244569304323;0.40671587617914673;1
1.6697516654593958;2.3736656311191116;2.788070624304426;1.4636143312469514;0.2708535262055492;0.6818424596487951;0.07336163265798014;0.2502093167557705;0.028470119794521017;2.9499277229802487;0.021030896298562196;0.0642398286937902;1.674533209329499;2.804061469147351;1.401051799062607;2.618502783880924;0.34049015862581256;1
0.9319662239122096;-0.6275837431166682;0.8685610425131828;1.0639990028766357;0.2706139764859137;-1.359042090350222;0.07323192426951865;0.3288880956106597;0.008853958816616481;-3.1928137708652837;0.012363617824003331;0.0188640766799225;0.8395470735105406;0.704839288640113;0.9500369114801241;-0.6599226415365749;0.15636869943951262;0
1.145515628436137;-1.1391087722556996;1.3122060549914376;1.3810837331783645;0.4783773324802685;0.8983712145140181;0.22884487223093733;0.47288130883721746;0.011818319330215663;1.6789463638229964;0.00866727847455899;0.02855103497501789;0.9546484496747846;0.9113536624664696;1.1599685863594873;-0.5549496939930592;0.1921559278714027;0
1.0496082534110813;0.6617075617598065;1.1016774856286606;0.9637449129138869;0.3671466384322992;1.444734998627224;0.13479665411213745;0.3109788708453922;0.01529519730804527;-0.7154567901234969;0.0178443968593862;0.03466911389823589;0.8986669454540024;0.8076022788516269;0.6409984964130091;1.5808853492248112;0.2164869669700336;0
0.861226574533485;-4.389781373183812;0.7417112126826803;1.278622404253873;0.33962263017532973;1.8724372658557407;0.1153435309272088;0.29004008549617755;0.018827295603390578;-2.1169527447559595;0.024217395737738318;0.04180687264199039;0.8491118868045343;0.7209909963127563;1.3227527580762648;-5.002006474718977;0.2416238923426045;0
1.2882034959386033;1.645058643264493;1.6594682469484392;0.957677637432097;0.4267339655337129;-0.049408063266199065;0.18210187734012806;0.4689775815115156;0.027755464944782836;1.310773434307647;0.02217803609666568;0.0672988681553992;1.1977585394044565;1.4346255187162973;1.000042405589137;1.0653615198708;0.4347305502857558;0
0.9726130414399462;-4.516737733518195;0.9459761283790624;1.4587092708739668;0.2062882411030693;1.8961227541132732;0.042554838417398044;0.1693779154245696;0.01778542504434301;1.7698368472676602;0.015677577240746428;0.0412970327317222;0.8085589244067464;0.6537675342377945;1.1776480722292078;-4.200636696833868;0.38245693679666226;0
0.776831915554662;2.8381577422704254;0.6034678250243255;0.5794123677080236;0.17614705111026072;1.3525500649805107;0.031027783614840803;0.152898621577084;0.019878853589152548;0.5414597934195964;0.022560416029366752;0.042826552462526805;0.5713787206788231;0.3264736424445686;0.4574633404502777;1.9777297690006002;0.3150763217501488;0
0.5942785481390899;1.7388726400138985;0.3531669927783045;0.5624107515429388;0.22086158029250266;-4.4709680829307725;0.0487798376493016;0.33489972492070397;0.019858002711224818;2.100450534237698;0.019310186601407132;0.042826552462526805;0.2201927572856683;0.048484850361065236;0.17350721418562176;2.4644656473436726;0.13945372832147082;0
0.848419711051514;1.6187171636665187;0.7198160061007345;0.6495967218968957;0.17482358403569376;3.051954162879646;0.030563285535085277;0.11972340098293532;0.042838879406537286;3.60603257344561;0.031036504537575157;0.0897318242071989;0.34708355507284355;0.12046699420200363;0.26317868491205476;3.2535954360357344;0.18718143698937573;0
0.8877355677989565;-0.8416052946765014;0.7880744383353356;1.0218356312849601;0.09762051313024042;0.2821668524517893;0.009529764583811443;0.10796147173574289;0.04038229002219186;3.357532758324915;0.026447945345161643;0.0897318242071989;0.31195510485331945;0.09731598744404553;0.20833369697137893;3.327083353937091;0.1636473207907883;0
1.678898742339698;1.196849887569071;2.8187009870298194;1.3757758325462413;0.08945628499392427;-2.922862663748223;0.0080024269249142;0.12330691921951265;0.036797690372815176;-3.4903536976933864;0.05283216070153964;0.0767309064953604;0.6095286585566599;0.37152518560188136;0.7465686528256321;-0.9866757924635987;0.27491561473603776;0
1.7413396497755809;-0.8110654235448767;3.0322637758805424;1.9562053653802838;0.05619283974884081;3.5820522935894523;0.0031576352390389035;0.03917854864228554;0.03525891027290942;-3.3729057062531815;0.05149383093708567;0.07137758743754449;0.5044616342789091;0.25448154045934784;0.45857610865685405;1.1273061743243815;0.2158214661202091;0
1.2208569960316007;-1.4131967803057126;1.4904918047593039;1.5850595183937761;0.014998927892689891;-1.0651131276289423;0.0002249678379301108;0.017705636400375147;0.021624165261472122;-1.873493057872734;0.029188334862853074;0.0448659121035994;0.5718347716034339;0.32699500601475134;0.5580983903385976;2.1288072495546118;0.2607360691723319;0
1.2949673912807478;-1.800146550102907;1.6769405444804655;1.6950732307845788;0.01863808939810409;-1.2525746765853167;0.0003473783764117201;0.02187054539359723;0.0367612488798075;-0.06991126731616859;0.0393851330682166;0.0856531049250535;0.5751021395195365;0.3307424708799484;0.5691531943459136;2.0722728527851615;0.26266720410537314;0
0.6788496643885098;0.9877087262809905;0.46083686684039243;0.7047410301919491;0.017789464000779073;1.3102529527320073;0.0003164650294350145;0.01428632218964565;0.042774677204524963;0.022543476267239626;0.043463852350362;0.1019679820536351;0.1773111110170184;0.03143923009008943;0.09261770727908436;3.9674572809237745;0.09396194979059118;0
0.3339079828101751;-4.25821571542625;0.11149454098436018;0.495837524670653;0.0491962891055502;3.2973261435420405;0.0024202748617568773;0.038401335642513024;0.07157926588401958;-1.8716089253643702;0.08909452431936377;0.1621290914652799;0.04002139197138173;0.001601711815326978;0.031933021429086716;3.2829134257472496;0.02249919606280221;0
0.7029170969677558;-0.2882824420948218;0.4940924452095774;0.8450833507855752;0.16826763682448562;2.4023779024848118;0.028313997602496987;0.15484856227580446;0.07372080599539105;1.305611629568773;0.07647598654022641;0.1621290914652799;0.054912227792980266;0.0030153527611881544;0.03451868490640986;1.988915898867468;0.030596965115501248;1
0.7035867601238649;2.9697004090875616;0.49503432902159705;0.5929216174981614;0.2848874583779918;-1.5827386667905898;0.08116086394107201;0.3547199377678003;0.07403439038354954;2.642652536461025;0.06462220862649129;0.1621290914652799;0.32354676710271785;0.10468251050262035;0.23800724533661377;3.4119837041521173;0.1981765358897982;1
1.8421402485276208;2.249027382844707;3.3934806952454046;1.3501900056781313;0.3682360672735456;-0.9087985450748466;0.1355978012410872;0.41775170318341837;0.04464011635078324;0.37732026762895643;0.049072091363311934;0.09992862241256248;0.8977351610460749;0.8059284193784221;0.6269606563480872;2.391828921376515;0.44933684139281516;0
1.9995450570682984;-3.5061106645969673;3.998180435246265;2.7813481082449023;0.33028223773043425;-2.340285399648778;0.10908635656022307;0.42917090851609896;0.04835758310924432;-3.4593249325457123;0.06768124808810036;0.10400734169470789;0.8874516692040594;0.7875704651730712;0.8968325387073501;0.12955989727727157;0.41201453253163817;0
1.7133050264915908;1.069292203186647;2.9354141138013503;1.6790919656008474;0.2350972216174112;1.426781511204565;0.055270703612226156;0.23332218516988734;0.033274948238924275;3.0714624932190624;0.027148975221780343;0.0718874273478128;1.223409313139395;1.4967303474762066;1.399430961555486;-0.8553675157955141;0.4552145554352801;0
0.844382925287971;-0.8818885631340354;0.7129825245178713;1.0417357986947247;0.19042938455182815;1.4033285278667513;0.03626335050078804;0.16257683261631584;0.018039977580252924;1.9814022803129596;0.013765677577240745;0.0428265524625268;0.8073747753402604;0.651854027855736;0.9777398359165561;-0.5037905394832496;0.23592085501581211;0
1.2985814208707005;1.540876909622808;1.6863137066305676;0.8961038053967387;0.38363926841335194;1.2075966327919812;0.1471790882687319;0.4013953465568231;0.018845695114845695;-5.076779328597006;0.02931579484042015;0.037728153359845;1.2562655154823816;1.5782030453902138;0.8466992206639201;1.5470920316792274;0.3173632491191841;0
0.8759810635459037;2.1612513502468893;0.7673428236910126;0.624077105258066;0.4968713852150424;-3.0180977163718286;0.2468811734455151;0.668176165287018;0.02484478009391165;1.229634916696659;0.02039359641072695;0.0601611094116446;0.8607111205914937;0.7408236331098648;0.5918986394954646;2.174805757813578;0.2042868735591962;0
1.0841447605046721;0.3381045606066433;1.175369861729733;1.1749755647675064;0.5661897229297658;0.007298177868387157;0.32057080235128493;0.575955310866836;0.013790831874285635;-3.855434540086474;0.0196288365453247;0.029570714795554;1.0320447485626132;1.0651163630356673;1.1225112494316876;0.5831252986432549;0.25838083310726867;0
1.0984673524343815;3.2387600812989987;1.2066305243642;0.7418552981209858;0.5246419149096345;-2.4293440319734927;0.27524913888004815;0.6751552182487743;0.01014888816018843;-3.0281602961518015;0.0136382175996736;0.0224329560517996;1.035520744348887;1.072303211976873;0.862792716158411;2.7183059679993242;0.2649946286009232;0
0.28202067683118826;-4.244054975537631;0.07953566216032153;0.4257082783256121;0.5515224558682562;-0.4185446807338167;0.30417701932695257;0.5926489225409656;0.011718002380504555;0.20151456883886176;0.011598857958600876;0.028041195064749502;0.26181308607129755;0.06854609203817667;0.20823548285569027;1.2690663914359863;0.07672845805428286;0
0.3026013224960592;-5.682956019430412;0.09156756037636403;0.4978313611145624;0.42801842988591215;-2.442329217554379;0.1831997763220015;0.5646761076545272;0.01950928914412893;-1.7985994761203887;0.024089935760171228;0.0443560721933312;0.36049586068219147;0.129957265568994;0.4431035696015573;-1.6661104652661223;0.10144597727798423;0
0.6721162970179586;2.1783254742112472;0.4517403167171327;0.4554259382966004;0.460525625143459;1.069992820759122;0.21208385141377373;0.38742876833526063;0.02359398604463629;-3.5279146804442636;0.033521974100132426;0.0499643112062812;0.7551609818877832;0.570268108565721;0.5677056621962544;2.7267401047555424;0.18579628405187126;0
1.2160410191669087;-1.6417023628373908;1.478755760296494;1.5115951277033206;0.3515275907372628;-5.171689170001411;0.12357164704954453;0.5616924543316593;0.031861255346382;-3.0121695420268892;0.04282655246252668;0.0703579076170082;1.2333841997755357;1.5212365842559386;1.6034871840412377;-2.34180541502897;0.2641458782359188;0
1.1816137289522675;-1.778278775701997;1.3962110044484823;1.5005855895438156;0.24936273229487224;2.24566938725693;0.062181772257564126;0.2404798157469461;0.032534018830516466;2.3167329908407055;0.030590394616090474;0.0703579076170082;1.1465296620714807;1.3145302660097435;1.3932609502914266;-0.9287270561549317;0.21120942165768175;0
0.6646549749644569;-1.9511317113889124;0.4417662357450029;0.8280007795996864;0.17275475596979875;0.3580177954687187;0.02984420571018472;0.19979348394365193;0.009058331104473627;-0.40673543641997156;0.010451718160497548;0.020393596410727;0.6055310516356975;0.36666785449503386;0.8480560144174536;-3.6255395242448643;0.10414372800030654;0
0.6678371087821044;-1.9151629239719892;0.4460064038664404;0.8300016301737747;0.21809281734181438;-2.638244878233113;0.04756447697609001;0.2850396956894574;0.016700662133332305;2.621975126136796;0.014530437442642949;0.0367084735393086;0.6916944058907558;0.4784411511405657;0.9043318494160069;-2.47992917227508;0.12012540374847319;0
0.8238441054164305;0.2447660127523701;0.6787191100293987;0.8768021918472995;0.19124438924110088;-0.018739526982106014;0.036574416416201704;0.20625927323722504;0.02655575944346962;-1.9743961206292795;0.0344141939431018;0.0581217497705719;0.8346867504297795;0.696701971343025;0.8886921533465504;0.2345373812647651;0.15596512794911216;0
0.39037489711072504;-0.4495180116698343;0.15239256029420914;0.42420504854030394;0.205478967162871;0.9352939366080228;0.04222160594632022;0.19466003463334958;0.023257866275021816;-1.1023412440097218;0.02880595493015185;0.0509839910268175;0.38339803636532027;0.14699405428878343;0.3190928553450334;1.0719538618206155;0.07673368085001225;0
0.26822173539391453;1.7924356336539304;0.07194289933772309;0.20741197159598723;0.24859954641648666;-2.727591952248785;0.061801734478482896;0.33134149205027064;0.021340317667437676;-0.484946102041226;0.026001835423676872;0.0458855919241357;0.216107585082381;0.04670248833013855;0.22372416348370372;0.3644754634587528;0.0447619822213828;0
0.31778388228784926;1.4126698075008353;0.10098659584193763;0.32345928344344;0.2719303101273133;-0.6346379343108097;0.07394609356593677;0.3013942182148792;0.021524263187116414;3.4495720575385924;0.0160599571734475;0.0458855919241357;0.229063237318177;0.05246996669068347;0.27498411942514345;-0.5850177845018347;0.047278140184267986;0
0.35492160634718034;2.538732352547491;0.12596934665206283;0.25324012537772234;0.1982757152173006;-1.651836850020425;0.03931325924493209;0.2502201995464648;0.005098399102681137;0.927999999997267;0.004588559192413575;0.0122361578464362;0.3134032222294333;0.09822157970379154;0.21934834684034588;2.3721626250648615;0.06152646843649837;0
0.3475336342678783;2.2549206877060115;0.12077962694743942;0.22354557761710314;0.13815106140214753;1.3627436235840626;0.019085715766539935;0.127087891140514;0.005021340777911112;1.3472207460914856;0.003823799327011273;0.0122361578464362;0.3176083668016532;0.10087507466241351;0.1915298537910317;2.7787103463461627;0.06252398503127309;0
0.670373717387595;2.122700384372598;0.44940092096406303;0.41805117040775475;0.09260902048908697;-1.2809948907434485;0.00857643067594813;0.10881350525030387;0.005483248633595039;-1.7138585986122514;0.006882838788620324;0.0122361578464362;0.6681093994444317;0.44637016962599924;0.4061958511211605;2.1730580019977435;0.1373264404948477;0
1.0937973890002926;-2.334270521775686;1.1963927281838571;1.4075874184116177;0.06843294471758521;-0.8265504098206247;0.004683067922720073;0.08208611826592804;0.006814838943530799;0.05647137447017414;0.007647598654022574;0.0152951973080452;1.0720599019729622;1.1493124334182772;1.3863558018509594;-2.42441176534504;0.24367383694107517;0
1.0572325745884383;-0.9662320123213117;1.117740716770898;1.2392272739116592;0.04925972734349072;-3.880976911604284;0.002426520737955047;0.07032665994300857;0.008586931169341097;-0.13940328720919304;0.008922198429693023;0.020393596410727;1.0079629692711134;1.0159893474218396;1.17703984273016;-0.8193018159021843;0.27324251877699346;0
0.7324316758848264;-0.024554618231984904;0.5364561598394554;0.8022215784209168;0.04571616376670407;0.9477081168453569;0.0020899676295441064;0.04562097674986765;0.011744775869732894;0.13639807075563937;0.012236157846436224;0.0275313551544814;0.6781440374975392;0.4598793355934638;0.7222931364742968;0.222567357514043;0.22337480881898342;0
0.3673311269310618;-1.6930246833954712;0.13493215681244383;0.45254605602470566;0.0961693652836071;1.9944266712414667;0.009248546819051856;0.0760024210357344;0.011788957000798206;2.6312896064077442;0.0076475986540226505;0.0275313551544814;0.32424799224601164;0.10513676047556963;0.3567352883791295;-0.5393119080948061;0.11663773342467518;0
0.5207294680954137;-0.015588373584376924;0.27115917894293246;0.5494759801032307;0.18809283868402144;-1.188279548088497;0.03537891596421331;0.23019912780501217;0.003664705253533738;3.014360041618218;0.0028041195064749252;0.008157438564290798;0.4393773277199029;0.19305243611428294;0.4280819435844436;0.5129842672468925;0.1540969455303321;0
0.6621702650766312;-1.278890920153998;0.43846945995165604;0.8023765514503083;0.2711373469828501;-0.5848355080664156;0.07351546092889844;0.3019141627429619;0.003664705253533738;3.0143600415577083;0.0028041195064749252;0.008157438564290798;0.5657837916719226;0.3201112989186576;0.6963675884993576;-1.480546127329184;0.18311063253992926;0
0.5586748164414777;0.3722963672956521;0.3121175505259188;0.540338377672998;0.2666814938204309;-2.704802575198892;0.07111901914629652;0.35209316214148045;0.008199815153675492;3.7956743543419584;0.005098399102681724;0.017334556949118;0.5033317388339396;0.2533428393175971;0.47316974495659103;0.5207339308876193;0.14267666328594397;0
0.3406259995091002;1.8040130709942783;0.11602607154157353;0.32082762650119;0.18390379898093878;1.955383012500132;0.033820607279621544;0.18010159270569515;0.01093088523903715;1.7218833628426875;0.007392678698888499;0.026511675333945103;0.32346402576449107;0.10462897596377134;0.3132827200201991;1.9894331939889778;0.08825331548046132;0
0.2822621231652268;1.5478716227029015;0.07967190617374166;0.24507418553336935;0.06399644996895032;3.045923228872571;0.004095545608628362;0.05095587517249395;0.012275042166985483;0.8913413186840486;0.013510757622106673;0.026511675333945103;0.2793217427935013;0.07802063599719888;0.2336272948059026;1.6462403773620267;0.07459272667878666;0
0.28899298196546197;-1.0253862623889027;0.08351694362528982;0.3362625721659347;0.01625520317857768;0.7258643500425332;0.00026423163037684195;0.017980394832718793;0.013705751098640853;3.705852316825702;0.008157438564290777;0.029570714795554204;0.28730111969184613;0.08254193337618851;0.3347404527554767;-1.0523631142694807;0.07513639115955761;0
0.3005535351065979;-0.9605153156763233;0.09033242746507296;0.34433455734182505;0.07757771180321583;3.0326232194937504;0.006018301368622814;0.06609131314262551;0.006686487737637964;2.9129259058934487;0.004588559192413549;0.0152951973080453;0.30375325707631756;0.09226604118447146;0.34610658657711024;-0.9401292114558952;0.0792035996102504;0
0.5255841547061658;1.993264660041266;0.2762387036781948;0.4694675252710834;0.09463330720640517;-5.996636842496984;0.008955462832821857;0.16304416555469975;0.008130841041368504;-4.711147450311426;0.012491077801570324;0.016314877128581602;0.5184244648739003;0.2687639257797898;0.46641089145725223;1.86024257100412;0.13955687786542167;0
0.8191336571806761;-3.8302670530576695;0.6709799483261895;1.1831091540508227;0.11486893496421575;1.7370318144306687;0.013194872219813228;0.07084164290232248;0.011308796274507158;1.6198030272982678;0.0076475986540225985;0.027531355154481504;0.7987153189916462;0.6379461607919271;1.1551310153875738;-3.901687447200194;0.23470338402058358;0
0.7211839896754955;1.7761798864250462;0.5201063469642652;0.5631108306056225;0.08629218110124168;-3.8135095381028936;0.0074463405192094915;0.12851080160490908;0.008510916709526174;-4.225315354505906;0.012745997756704423;0.017334556949118;0.7059729126201555;0.4983977533533857;0.5734758511234945;1.6748288435960248;0.2199841567421528;0
0.300216048774399;-0.21819309213788074;0.09012967594171233;0.3248788916408225;0.1229314659825756;0.4085568038259382;0.01511214532862514;0.11789680258220114;0.0069330104871120094;2.486941712167809;0.004461099214846574;0.0163148771285817;0.2931681194764819;0.08594754627737679;0.27535569326672427;0.8362162741733847;0.10185497484738615;0
0.29235325947766255;1.2529972428502845;0.08547042832721348;0.252067848925722;0.20308474284659186;1.1700216731320712;0.04124341277706634;0.20652207532200362;0.0025829652550159836;3.49232585604717;0.0017844396859386519;0.005608239012949996;0.2845585516699745;0.08097356932851356;0.1834206231629163;1.4914229662670575;0.1001432850190873;0
0.4680296285851953;1.6656872987828528;0.21905173323359586;0.35849285079184856;0.22142469273633505;-4.117929595692356;0.04902889455338039;0.32286571786931273;0.005960258970377963;1.9111838191529067;0.00433363923727955;0.014275517487509;0.3774560778930514;0.14247309073840528;0.23699239196398736;1.9051448379392628;0.13538877044428288;0
0.46166544090828326;1.7250010860809315;0.21313497932903958;0.35395212565478085;0.23042574491658538;1.162115939865636;0.05309602392036328;0.19026285519401287;0.007095144877858328;-3.50409555606681;0.010196798205363525;0.014785357397777102;0.4466034582361691;0.19945464890850562;0.2825808254629649;1.5056019474600983;0.15761376980550362;0
0.4645491187042556;0.09066311658941295;0.21580588368890055;0.4688800806695168;0.1459823532147427;-4.960238499174622;0.0213108474501139;0.230676286140854;0.021990201704582702;2.844176274347742;0.01631487712858155;0.0499643112062811;0.44964747925541787;0.20218285560075144;0.35991549338995465;1.2241822477196393;0.1604954170383425;0
0.7539070020051225;0.2199251637098314;0.5683757676723519;0.7440433712993673;0.13086361535555965;2.4397623781144286;0.01712528582392787;0.07960020537525825;0.021491531241519327;-5.586422253650088;0.03479657387580293;0.0412970327317221;0.6287585363259047;0.395337297002694;0.6987244403907122;-0.5059011214874491;0.24467772042277386;0
0.7632135786300743;-0.3241686030100581;0.5824949666053246;0.8118905523202542;0.07173397958707071;1.534850433927998;0.005145763827398278;0.046187726283912545;0.0174906796507124;3.829269484075585;0.01134393800346685;0.0361986336290404;0.6303662867212202;0.39736165543469953;0.7064056145083693;-0.5705247685460932;0.24554802168653012;0
0.7513567626342654;-0.39184210119693574;0.5645369847562439;0.804563131178109;0.07734103042666424;0.43225295473954617;0.0059816349874582024;0.08310402799430072;0.004451985621640058;1.227411986026258;0.004716019169980575;0.009686958295095301;0.6099784329446113;0.3720736886575637;0.6943305551258767;-0.7906906637187863;0.2387291870586759;0
1.0258738419571667;-3.5420521069451016;1.0524171396119577;1.4319787895581813;0.11683953269467863;-4.165806821664729;0.013651476400310877;0.1720321637424913;0.004110460766950522;-2.513609467455961;0.005353319057815825;0.0091771183848271;0.8908507006624017;0.7936149708706921;1.2684638331834823;-3.833150103895907;0.3149081415762853;0
0.721739690890253;-2.6471129003553404;0.520908181406358;0.9434198543886358;0.16120818069713003;-4.535039529281365;0.025988077523678526;0.24399848334725505;0.022106131731088642;3.446944318696236;0.013765677577240724;0.0489446313857448;0.6651645056964844;0.4424438196384484;0.7624999908830823;-1.0463782718984262;0.21757830211298979;0
0.48052888267437516;1.2848502347448179;0.23090800708428338;0.3853203557638327;0.12741181466996918;0.3355224959509542;0.016233770517494573;0.12834318581773063;0.02058600306433266;3.9550269479226756;0.011981237891302125;0.0418068726419904;0.40696485570487567;0.1656203937788903;0.2910471622879678;1.4237021537845624;0.12306669089766997;0
0.6655921599536153;-1.7753522612156978;0.443012923391719;0.8232158025615819;0.10489431749334022;-0.600138907136964;0.011002817842393658;0.11484093785119343;0.020160714435701336;-1.915646197417825;0.027276435199347374;0.0418068726419904;0.6075685267973052;0.36913951475464774;0.687010551149589;-0.8618885581324385;0.1975135900621367;0
0.5644078683736694;-0.06567357983718658;0.31855624188210935;0.5908240676828851;0.255437761870396;1.6161397447136405;0.06524845018935715;0.21904548675439317;0.01893056023336284;-1.247587816932274;0.0234526358723361;0.0418068726419904;0.5927606743838846;0.3513652170960377;0.6643272552826982;-0.8064935534804984;0.2287473169962481;0
0.6517996544922628;1.6930312953472502;0.4248427895962333;0.6519431779847646;0.35665825969016407;-1.919064704297643;0.12720511420521652;0.46164415622121646;0.010243426916773143;3.153806866727262;0.007902518609156675;0.0224329560517997;0.7189871873028553;0.516942575505671;0.7963525683692685;0.14631110467069774;0.3130414679065997;0
0.40825502856744134;1.310197272440826;0.16667216835060236;0.3208659442768631;0.43781350694984517;-1.103139044382738;0.19168066686772212;0.5042881956873616;0.0335152692609488;2.4149693819002387;0.03110023452635873;0.0723972672580809;0.5536673287878957;0.3065475109671238;0.5091677049166956;0.6498391661688938;0.31704784271542025;0
0.7800771878221998;1.5017734979021196;0.6085204189605916;0.8019169401736814;0.4283886642750208;-1.1895635579630675;0.18351684767933651;0.4972614223594054;0.03345187050540267;0.9822346864583729;0.03645355358417453;0.0723972672580809;0.7935492914671232;0.6297204779879733;0.8804438905684477;0.20938786725514902;0.6778406072446684;0
0.6739413796832446;2.2229782983781394;0.4541969832493553;0.4414015477902058;0.3933811881102455;-1.5549725131199423;0.15474875915902836;0.4745815201720791;0.03805628511612452;-3.376064441537162;0.053788110533292556;0.0805547058223717;0.6395469033919757;0.40902024163826517;0.42332132262362066;1.8095630152209417;0.6696490222482608;0
0.8527415656998605;-3.258618964968605;0.7271681778722495;1.2251536213705891;0.2986656228510916;-0.5077018055162714;0.08920115427303049;0.347257559575022;0.028749124662625008;-5.59541542980215;0.04716019169980628;0.054043030488426604;0.4480318584366197;0.20073254617417124;0.3804758634166111;2.9070841977824564;0.5960856990095134;0
0.7295552671089842;-0.8887264071690062;0.5322508877664613;0.8264151143591102;0.23865808942898464;0.6372600992443544;0.05695768364989323;0.21945226848080057;0.02804891884813937;-5.210256360496217;0.04486591210359953;0.054043030488426604;0.4020382863726079;0.16163478370942308;0.2689414662352053;2.9688055473481647;0.591104103282537;0
1.0402657911866175;-3.605207398875045;1.0821529163131196;1.4549185672631073;0.3141494886649504;-0.04878066889563293;0.0986899012284498;0.3538695901021218;0.03592954866304139;-3.7436556605334825;0.051238910981951685;0.0764759865402263;0.38900727825734405;0.1513266625371867;0.35053529116306714;2.5161419801189595;0.366177062081628;0
0.7313246649738814;2.2579514546437167;0.5348357655991599;0.4630525259586391;0.3670646079098067;-2.7194920497900803;0.13473642637998015;0.48254622761135546;0.027403598756758733;0.0708149135409144;0.027786275109615607;0.0652595085143265;0.41902604390754805;0.17558282547281037;0.6358388557289559;-4.484705635615446;0.3620255967223353;0
0.8125434246714799;1.5199835772490058;0.6602268169768569;0.8516827136205746;0.2774493341768305;0.9263996179099738;0.07697813303516655;0.3077690078053824;0.04934660398720444;0.13875132088380226;0.04996431120628123;0.1172631793616804;0.4321667296279999;0.18676808219736077;0.4155847654968383;1.6641925922436034;0.3114496858541639;0
0.6914141210051284;0.588982584842995;0.47805348672529435;0.7867524720097329;0.13582593177140362;2.258083222540728;0.01844868374156999;0.08826660888955118;0.053429503642548136;-2.983420890584018;0.07214234730294686;0.1172631793616804;0.19395243448189856;0.03761754684145516;0.2756012832796435;-3.654720742039805;0.12696705945977713;1
0.6786245184446119;-2.7968205789373286;0.46053123703418136;0.9323874683761246;0.2653101940549321;3.229181785185663;0.07038949906946575;0.2154562385676262;0.03739598413560155;-3.833788919445478;0.05353319057815847;0.0795350260018354;0.22952893001584043;0.052683529714216575;0.3752234935098626;-5.641532905059682;0.1467157233066381;1
0.6938237233994906;-3.8185916023057533;0.4813913591519328;1.007646589930439;0.304667364483142;-5.376836031103958;0.0928222029811037;0.4865763197531636;0.027991712383529647;1.2547082941319214;0.023707555827470195;0.0672988681553992;0.2694568850075754;0.07260701287798571;0.17737286468409508;2.1360274229145055;0.15749248479406838;1
0.7598640010569893;-2.830222702010939;0.5773933001023362;1.0491716412069256;0.2775905890296609;2.6385792062267477;0.07705653511783407;0.19261041106681276;0.033375373424221345;-2.61981030409555;0.04486591210359948;0.07239726725808099;0.4508428735318532;0.2032592966144586;0.4275892200279028;0.46763550597436065;0.23996740339078862;0
0.7015053556722818;0.11554474311965279;0.4921097640368946;0.8359189710310284;0.11875074660176818;-4.431264632115695;0.014101739818477357;0.17592422401160168;0.027085570129030154;1.1328231995912734;0.0257469154685429;0.0632201488732538;0.338721918902944;0.11473253834529257;0.5038953234079604;-4.1229314654976505;0.15675688315656341;0
0.5951239309392717;-1.2781211112518136;0.3541724931766111;0.7762429132525994;0.0874370482173465;0.7088501079792575;0.007645237400962578;0.08527082068349534;0.02748725960253649;2.9269253429842017;0.017334556949117973;0.0632201488732538;0.28401487674789794;0.08066445021412366;0.4651450011339351;-5.706018229222963;0.12912344774058218;0
0.5861782770309808;1.7184135145326245;0.3436049724630093;0.6076127801232034;0.06116881594800714;-1.8929276832298587;0.003741624044481173;0.07549724900798616;0.009492702521170867;2.1230769230537696;0.007137758743754448;0.0224329560517997;0.2444060541971334;0.05973431932821211;0.22725665492700964;2.203922293059767;0.10724940660908382;0
1.4264999832526708;2.031345591554045;2.03490220221987;1.135323629056185;0.08623114321537673;-3.6419708600559133;0.007435810060230812;0.12095504999087492;0.018011136670394168;3.209401709399689;0.014275517487508924;0.0387478331803814;0.9100947326162607;0.8282724223358632;0.6422000787838091;2.9683497098809575;0.34061281725387416;0
1.8191821237140768;1.4456269637186718;3.3094235992408585;1.6898199182771279;0.11182467881627726;1.01338719687441;0.012504758792363568;0.10173166875712547;0.04693366455931274;1.4237257324599994;0.0485622514530438;0.10247782196390338;0.9875076685067018;0.9751713953595421;0.7952134771055208;3.3101256549120883;0.3892454338406469;0
1.8958478527585187;0.9026550690567525;3.594239080809086;2.011623457651146;0.21414468065832576;0.9300784223716434;0.04585794425425632;0.1891942928237813;0.040628355193545365;2.349339474246886;0.02408993576017132;0.09635974304068529;1.0746455661462249;1.1548630928377404;0.8865184915863309;2.54674587990635;0.43925922549761426;0
2.091857794265451;3.6473505911228017;4.375869031429118;1.4358712678535928;0.2107659792408821;-3.8128143739172202;0.04442229800536795;0.3001153303164372;0.049030193770382334;1.5709887883226372;0.029953094728255344;0.11981237891302138;1.1432412199572226;1.3070004870092788;0.7835689864110376;3.648080946607493;0.49823555458113467;0
0.8963585671570007;2.093692917577707;0.8034586809157513;0.825738477991491;0.28998641941247827;0.7494024932845207;0.08409212344366974;0.2651120275057197;0.051939276185722826;0.7227076860321997;0.0528958906903233;0.11981237891302138;0.17545973034750353;0.03078611697361865;0.18948372833310234;0.986543057503642;0.10432711905682057;0
0.8530731058075747;-0.7245476973111078;0.7277337238521815;0.9472778837468327;0.49105202584106106;0.8912162900608251;0.2411320920826101;0.5192787969306394;0.03720550704764785;-1.4259713305564308;0.04435607219333135;0.0856531049250536;0.5182255365044052;0.2685577066852786;0.2965444777313746;3.7158956995459427;0.38580328431990935;0
1.0485469363393014;0.12468832494432824;1.099450677706535;1.1549018516351042;0.47454457858813126;-3.7266679456528866;0.22519255706738708;0.6945459084188983;0.03766925762567845;-2.0245099444508945;0.04703273172223925;0.0856531049250536;0.5154132694017167;0.2656508382753667;0.28135007098968323;3.68061973934903;0.3851619249491583;0
0.5002763391689984;2.0699104385514;0.2502764155323347;0.45793058843247647;0.33427981942524787;3.5235072860616192;0.11174299767497632;0.2178203929028809;0.050468786354275895;-0.21546176386844706;0.05493525033139595;0.1172631793616804;0.46481797566443683;0.216055750500785;0.3717884493133887;3.3323606282523706;0.3693336165067321;1
0.6023321073515797;2.7735021877686066;0.3628039675465949;0.44802586796939226;0.21199507638085627;2.690842964666963;0.04494191240972509;0.1793828617982488;0.050049861589708505;0.9714121754240139;0.04805241154277555;0.1172631793616804;0.5060129016324939;0.256049056618536;0.41573739706056134;2.5676099660058718;0.3888107743538556;0
0.20978732369643;-3.6637734381948626;0.044010721183710695;0.29976349247825973;0.23375578509932227;-4.487872166630517;0.05464176706740054;0.35662257429189714;0.03924415227981593;-2.051939749245008;0.0490720913633119;0.08922198429693069;0.17899974495413304;0.032040908693644676;0.22596409234515757;-1.6086074865684186;0.11184742684136835;0
0.72788994869293;2.875915162679984;0.5298237774081963;0.45946579763623574;0.3127621692619923;1.6150747615112806;0.09782017452146712;0.2057473677937195;0.028157983294181666;0.6452153997514696;0.0294432548179871;0.06423982869379011;0.7265406400721502;0.5278613016764498;0.45341323785718934;3.0752206531524493;0.3685906353458114;0
0.5963922672342786;0.5627008935362223;0.35568373641684325;0.6739022679609841;0.35398403091859976;-2.9247985093169913;0.12530469414538017;0.5003587944153611;0.023674640079798314;2.155681579499724;0.021030896298562224;0.053533190578158404;0.6130023330953864;0.37577186038038707;0.7571409395388704;-0.6609292636758592;0.27701677215669473;1
1.138109754466171;0.24249160580027151;1.2952938132110476;1.2256489161097055;0.43415837440590815;-0.36880450400147424;0.1884934940667807;0.4713665173067403;0.01733643125922201;1.2324324324321996;0.01593249719588045;0.040787192821454;1.169325837171392;1.3673229134765765;1.1944049462113164;0.5992359891467149;0.4027307819076528;0
0.9043489479331062;2.162396205023752;0.817847019627716;0.6761441913204291;0.36052131401060455;-1.2825315630294654;0.12997561785593292;0.42235516831213094;0.01576592851643307;1.8401469520267835;0.01465789742021;0.035688793718772205;0.8973399422778459;0.8052189720072077;0.566469506992942;2.2243434820703794;0.2778695352974109;0
0.9614435381855533;2.7916624109025747;0.9243736771187555;0.7884617027091059;0.30531297972781335;-1.4179955518381337;0.09321601559027616;0.3697845275825178;0.01974601481700502;2.3555555555552594;0.0152951973080452;0.0458855919241357;0.9171023213630991;0.841076667849585;0.7136061695018565;2.2794738180544254;0.2883687095116393;0
1.2035753488694658;-4.451399195284479;1.4485936204062566;1.7928173333948836;0.18677395054745596;1.4295974306845434;0.03488450860310353;0.19226301277593794;0.020126303120775728;3.103205696473694;0.011471397981033925;0.0458855919241357;1.1137085121821122;1.2403466501068938;1.6342239653978199;-4.0686846335568045;0.2868244863046011;0
1.6430511683371625;1.494226283438291;2.6996171417741146;1.2503224041008885;0.06423078261542843;2.368648930091478;0.004125593435390424;0.0522875661883444;0.011426936864153936;1.9639364892567812;0.006882838788620348;0.0275313551544814;1.4523519816486685;2.1093262785988145;1.0518895125373593;1.8311771822403777;0.4569945739936002;0
1.7409257851344264;-1.5900009960601178;3.030822589345919;2.1112057354221108;0.020537180605397963;1.29878342850947;0.00042177578721873426;0.018932570226565915;0.022314841181641572;-0.703401891406866;0.025746915468542776;0.0509839910268174;1.5293524018505955;2.3389187690461855;1.8852700442259538;-1.8608782684644662;0.44254088279532305;0
1.9478155351063824;-4.533796807809297;3.7939853588017627;2.9384220672688963;0.046833276152448595;3.38816964626648;0.0021933557551715105;0.03259998736399505;0.05656849377484691;2.4767505421721623;0.045375752013867544;0.1294993372081165;1.6937484442842685;2.86878379251538;2.5192450719668464;-4.27344476421106;0.5220337052631839;0
1.4995199974141358;-5.271027422180399;2.24856022264489;2.36009773247641;0.06140648886790358;2.0481365563975764;0.003770756875083966;0.04502915965161325;0.062049143909844943;3.2719762547830946;0.05021923116141522;0.1305190170286529;1.2581119530999074;1.5828456865328635;1.956086429054953;-5.106522223871135;0.43449609457355554;0
1.2735825997444528;3.179441851364757;1.6220126383718387;1.0129035398689243;0.13936910560776414;1.3052736508399772;0.01942374759790811;0.12360642835706148;0.06128885774035324;1.558548432425356;0.0643672886713571;0.1305190170286529;1.0632147935885963;1.1304256973056412;0.8900975662842807;3.0368275112468197;0.29978765907265553;0
1.3053767983088742;2.986612518686801;1.7040085855631275;1.1305781412919673;0.13547970890903155;1.615169256535685;0.01835475152607592;0.08536964199464547;0.05489940592138682;0.05537267962620618;0.055954930151932245;0.1305190170286529;1.0918598995863447;1.1921580403247025;0.9638045961048691;2.805783589660283;0.3049648352748892;0
1.6047552135275596;3.3373509306649503;2.5752392953438834;1.2831336816951615;0.09426049289083879;3.974518816230436;0.00888504052002387;0.05091379522456441;0.0371411171949119;-2.7774839566503395;0.051876210869786825;0.0774956663607626;1.3279170900306885;1.7633637979955719;1.0845423364100149;3.2006093876744792;0.3838417015789604;0
1.5839209794797109;0.9921723877541115;2.508805669235967;1.7608797511321188;0.09748739684621416;3.9211266671817597;0.009503792543851246;0.054183716626314826;0.03740611952980357;0.22476013606683232;0.043463852350361924;0.08055470582237159;1.3167541334614679;1.7338414479878612;1.5215790989354572;0.4111774113937141;0.39734698711381905;0
1.5684600516025986;1.091643035427749;2.4600669334732266;1.7119786383850895;0.06314116794364505;3.7994700170092948;0.003986807089287589;0.04075200139672086;0.03738555629207418;0.33340872268513344;0.04308147241766085;0.08055470582237159;1.3246320275878976;1.7546500085116248;1.5459449482426288;0.35159569459460016;0.3987469511774207;0
1.458300578230308;1.863699053824968;2.126640576466851;1.3593823890973153;0.05939704890488444;3.6628636030159996;0.003528009418609234;0.03852857830807088;0.03304140256147558;1.575174603174533;0.02243295605179965;0.08055470582237159;1.222107956033808;1.4935478562011317;1.1968322030893463;1.2849301735438043;0.38168478337177175;0
0.573233660239862;-3.182876259714307;0.3285968292319895;0.8281663618220594;0.06505426014779511;2.8317410311077644;0.004232056763377004;0.044078575488428307;0.019246034555089882;3.299368421051785;0.013000917711838422;0.0428265524625267;0.5540085746156524;0.3069255007476669;0.7843806943342955;-2.8712043664588816;0.15328116471714362;0
1.1584799967228248;0.7175883744107345;1.342075902806916;1.2009446339212633;0.18986673492679149;2.339350000513262;0.0360493770317605;0.14204431980901044;0.00489021262701317;-3.95841209841012;0.00713775874375445;0.0101967982053635;1.1262126524031593;1.2683549384329593;1.157339995877845;0.7516352433250848;0.34652968857805666;0
1.1503861372009878;0.7571822438915383;1.3233882646642101;1.1943036107040905;0.2617320575669408;-2.7012317873028593;0.06850366995822442;0.35965387142719285;0.017786033998686817;3.3176912393505518;0.014020597532374826;0.037728153359845;1.0676989288360155;1.139981002637575;1.1077389846405405;1.0977142814450094;0.3336169767659541;0
1.2139560539499312;0.06499024141834298;1.4736893009216885;1.4232244565879828;0.3978431916558874;0.2125043787480152;0.15827920514694313;0.4008646056450458;0.01771036398506216;3.0789902628114625;0.014785357397777052;0.037728153359845;1.0855202694578958;1.1783542554039428;1.1722855924805726;0.8983649962785893;0.3369204401920344;0
1.253987895775442;3.8748292640279125;1.572485642751321;0.7503045608290426;0.3995158238994874;-3.1812639280154613;0.15961289354608624;0.5425789159686804;0.031073756155506137;1.2467596417117122;0.024982155603140578;0.0754563067196899;1.1175396451202029;1.2488948584153892;0.7004154315068112;3.74407414587753;0.3307133532194181;0
0.12176877782752925;-1.9193237138048147;0.01482763525361018;0.16054917582089034;0.2763923900403949;2.1980909475381676;0.07639275327224178;0.1763922076034904;0.03105144106741763;1.6054328405725524;0.02192311614153153;0.0754563067196899;0.1502419001055963;0.022572628547339973;0.18456294861620526;-0.43803765013470475;0.03857270413034965;0
0.34921316794193175;3.42046042972056;0.12194983666403984;0.20753426369110484;0.10754304178442621;-2.395991908304051;0.011565505836246841;0.1456673673496311;0.024429792088734213;3.1146851363982933;0.016824717038849774;0.0550627103089629;0.35133908777029876;0.12343915459526571;0.2006641055980145;3.386726971740387;0.0961137300147532;0
0.4268969910660916;1.9079279792117436;0.18224104098128266;0.2708281563333874;0.10745879786134238;-0.7691831170648324;0.011547393237804841;0.1303984277767185;0.023686074342758934;2.663125952206947;0.01605995717344748;0.0550627103089629;0.42498814409672064;0.18061492262277498;0.260639995662026;1.9435065518328365;0.11438472307756292;0
0.6321053488102766;-0.24864756246002528;0.39955717199456137;0.6713679321317483;0.21359089866217676;0.6556649579580309;0.04562107199131626;0.21329880646061744;0.019276960932514294;1.0582084362729631;0.020521056388294073;0.0423167125522585;0.6299452762079235;0.3968310510166771;0.6614072859082167;-0.1486397909097974;0.16043842236593808;0
0.7420272353943104;1.3571790860594657;0.5506044180669233;0.7571886126861216;0.2662729209051447;-2.388311928227383;0.07090126840735746;0.34571517688782366;0.029973427185440993;-1.6291989836794958;0.03658101356174155;0.0683185479759355;0.7444652323831871;0.5542284822273528;0.7621882144832881;1.2805828920290416;0.17807688744422448;0
0.4942604839891305;-1.5473667643490732;0.2442934260331695;0.6197081351968503;0.25776386902516724;-0.9721079670738622;0.06644221217482356;0.3050439957157717;0.03176149876275302;0.9114833182387354;0.03505149383093711;0.0683185479759355;0.4855549416384916;0.235763601349559;0.6174901442910148;-1.8535875983547783;0.11225973956450498;0
1.6026676588224418;1.9766131993514673;2.5685436246354065;1.5741053482551646;0.22273666869221734;0.33491566021145047;0.04961162358010659;0.21593244010350066;0.02678924525741317;1.8380509391979434;0.01771693688181912;0.0647496686040584;1.518371169031428;2.3054510069458654;1.5076569226879513;1.852228377953498;0.41507559651561643;0
2.1204129535527843;-3.4650964886354974;4.496151093594442;2.9369981442012647;0.13972771506386136;-1.4468757971041626;0.019523834356967633;0.16611341570998361;0.019901179291534718;3.9650503222386213;0.01096155807076575;0.0407871928214541;1.923335197717493;3.6992182827789883;2.7049120640848945;-3.66723539065274;0.7224830582189239;0
1.8022165654610285;0.9223104809558045;3.2479845488221457;1.8745899164191384;0.1092567474544304;-1.1213675232755858;0.011937036864321182;0.1345060843592638;0.021475903051453825;3.6180689509165234;0.012491077801570341;0.0469052717446722;1.4101083515172466;1.9884055630186863;1.2594893935381695;2.5623324011154303;0.8426597950748519;1
0.7094268276937423;0.05010897825790117;0.5032864238516068;0.7266062460256202;0.07217784676566336;1.4925073471006343;0.0052096415637275795;0.0636946952847075;0.03932823684690795;1.4045549827223969;0.029315794840420142;0.09584990313041711;0.3638596199708208;0.13239382304531014;0.31185204457422144;1.8044755500914267;0.3686435013013748;0
1.0721219067363625;1.8374459676849728;1.1494453829040134;0.929225622354531;0.16139652287803233;1.5418599403478694;0.026048837597119217;0.12896149378872412;0.024935289610762596;1.1272972338108733;0.025491995513408833;0.05608239012949941;0.7745613350772281;0.599945261796618;0.5242346177126203;3.4346274805931287;0.6457876659815867;0
1.0296895644783932;1.1188732217183617;1.060260599195703;0.8641219720699467;0.23707858046277153;-0.9313596889571336;0.05620625331424283;0.2925605525589937;0.04516905385292722;-0.06085035968681929;0.05072907107168347;0.10196798205363511;0.684757919144547;0.4688934078311699;0.8054416651223463;-0.2649565249056227;0.48068627552272825;0
0.9712719067930187;-4.30822706299959;0.9433691169253464;1.429584427185562;0.24594286547663569;-2.2662991749865657;0.06048789307885851;0.3255474989028255;0.03836467690552109;-1.7785761733192;0.0476700316100743;0.0866727847455898;0.8591077996633655;0.7380662114424293;1.0863142615504868;-2.2057065219084535;0.4418709142121942;0
1.654246831363407;0.12444591471468058;2.7365325790758726;1.8486406523078613;0.13745090279744349;2.377758565109268;0.018892750679832256;0.11138548104871338;0.05627671959435749;-3.939466374423441;0.08106454573263983;0.1193025390027531;0.6425214764786096;0.41283384773625237;0.8629376677403933;-2.3099777008510607;0.30391867690400404;1
1.8342341287949415;-2.088091873014566;3.364414839236138;2.465910191760516;0.06303487385878288;-0.5911081172561143;0.003973395322392669;0.06939880513615759;0.08214595314009508;-3.820564765990582;0.11879269909248488;0.1723258896706434;0.6419973582091639;0.4121606079475455;0.40745660199899936;3.708748786403447;0.3271664178045428;0
1.8594800378352756;3.89738935973417;3.4576660111078783;1.0919903228298744;0.08385326508070191;0.6709829710572794;0.007031370064694463;0.08292624800873627;0.06583321208375778;-0.9157026833409407;0.07443662689915363;0.15397165290098902;0.6589591480584808;0.4342271588099587;0.42600380122923553;3.4841464011716923;0.33901455907862627;0
0.41633388692642026;2.1391964194972903;0.1733339054032613;0.3593558346789112;0.13192498543268263;2.4124629305960603;0.017404201781413522;0.11134635027602968;0.05343355768970694;-1.3433067445252487;0.06576934842459467;0.11930253900275321;0.26891881397387335;0.0723173285091147;0.223688543249831;1.6200352184878746;0.1544238151520501;0
0.47419359131640476;0.8714697566808436;0.2248595620455495;0.5076218377344129;0.1106097434975679;0.007673528281626929;0.012234515356597765;0.1207981987217146;0.05246708490402791;1.179152358038678;0.05238605078005503;0.11930253900275321;0.33628403879214464;0.11308695474635665;0.38949685652535804;-0.5054707030677346;0.20182404935080614;0
0.7582974012146235;1.4675569388168235;0.5750149486888517;0.5359028683331867;0.19141630344791963;1.226434257477024;0.036640201225666046;0.17100102373370318;0.023918592984633565;0.3936799056976561;0.026894055266646327;0.0525135107576221;0.3587288404413914;0.12868638096442528;0.25981574828593534;3.564040741213322;0.22758698869773616;0
0.7980953367890458;-0.6632121646384732;0.6369561666044204;0.8984995384264368;0.21403686067349703;-3.853565274954862;0.04581177772696598;0.30695340972325513;0.02604137626697723;-4.728016980153969;0.03989497297848475;0.0525135107576221;0.3872993954119771;0.15000082168648302;0.609767915977494;-5.012974496594767;0.22878162185106005;0
0.5898437958446611;-0.4932176010872862;0.34791570349643824;0.6457556639182194;0.22877379766204606;1.0788107864399308;0.05233745049671479;0.19027250225019143;0.049599458018483714;1.5388481787395882;0.0393851330682166;0.11930253900275321;0.2767008448352103;0.07656335753251912;0.36803004308008136;-1.9162726610928313;0.1747328438220073;0
0.7619456215415722;-4.361001034383236;0.5805611301863728;1.1310109467307763;0.21303495607432557;-2.8325712780639343;0.04538389250958983;0.28812978321873617;0.04976622552018937;0.7804979411073827;0.045885591924135855;0.11930253900275321;0.4367519141177254;0.19075223448549697;0.4559394268404857;-0.007740574455612048;0.23641528071985152;1
0.5161275573218996;1.9874957497896801;0.2663876554270708;0.4588379090546948;0.34940527454860737;0.48483043238115187;0.12208404588238769;0.3335719412910456;0.03402680117018053;-0.3694788808303553;0.03709085347200981;0.07953502600183551;0.3807339871960926;0.1449583690062344;0.5499968561664292;-3.6317578323326014;0.1796412436409654;0
0.8983830042741717;0.5346267680654169;0.8070920223686864;0.8518749192012842;0.2907693208146339;-4.254837632853814;0.0845467979270035;0.43119279531938526;0.04232055153407272;0.14716082228827254;0.04244417252982563;0.10094830223309881;0.7135640751867945;0.5091736893971853;0.47923740748074994;1.5770392064851215;0.2867695826309547;0
0.8724809722915158;-3.4303078531462283;0.7612230470107487;1.206814552757871;0.26698165469977697;1.7306405035899228;0.07127920394623095;0.2060571984454147;0.029191395968174123;-2.1776603046195095;0.03709085347200977;0.0657693484245946;0.7465245970536916;0.5572989740061766;1.0929506106568754;-3.673810249830977;0.24443716158174614;0
1.0553185235390483;1.156740523725464;1.1136971861246368;0.9971118329646971;0.11361925922520377;0.7603245353509926;0.012909336066884053;0.11247756329531144;0.02948378237305183;-2.6261361388401383;0.03862037320281429;0.0657693484245946;0.803493235027352;0.6456013787347196;0.8558879886686817;0.19453549185942798;0.22745120207638125;0
0.5105979430176623;-1.6663645980839927;0.2607102594138679;0.6756104049492442;0.15709442031241647;0.8101618810431592;0.024678656893294168;0.14092806673866187;0.020197212218137313;-2.5791230819563307;0.026511675333945092;0.0448659121035994;0.39949037471386306;0.1595925594890227;0.4109212395889821;0.8948462064780429;0.10084324224183112;0
0.5123313828917229;1.584848484838016;0.2624834458957452;0.3298575367189973;0.158283415477779;0.27300940645523397;0.025053639615311204;0.15515984592038468;0.013501936756766227;2.1592548684890005;0.01274599775670443;0.029570714795554204;0.4000602203348874;0.16004817989439865;0.3408106010516132;1.6444390404009717;0.09243029193307109;0
0.3699748576050703;3.642612223859839;0.13688139525989207;0.2184666839851439;0.1619912825653378;0.3171156545598226;0.026241175627163115;0.15750863626335354;0.005916486586291561;1.0698951073511118;0.005098399102681769;0.014275517487509007;0.31215791535037973;0.09744256411589484;0.1884962184136887;3.3402636643507755;0.07062565618898539;0
1.191014501770032;2.6774348424321808;1.4185155434265173;0.7670225282902416;0.2249269621136838;-2.8114853800622264;0.05059213828569054;0.29880824926847627;0.021209993897994866;2.5897410025068908;0.01733455694911802;0.04792495156520861;0.7938813827438702;0.6302476498673194;0.5638532123656308;2.083431223541014;0.19425364914951382;0
1.2244086719437803;-2.1852932704203276;1.499176595931132;1.5458706016160795;0.20679246656655492;0.3707687555181316;0.042763124228679734;0.20523922308158582;0.026931582458580874;1.2993348526000705;0.021668196186397495;0.0652595085143265;0.822304745486855;0.6761850944502013;0.9916504048461805;-1.6161827877786106;0.20848298083636682;0
0.9084150662325198;0.31249512889221975;0.8252179325582333;1.0412339294468966;0.1061318701497732;1.6443118016792244;0.01126397386148832;0.06621734816883329;0.04900478385619871;-0.2802756557601782;0.0525135107576221;0.1152238197206077;0.6123783810706571;0.375007281602719;0.7535755696544593;-0.618904837437734;0.1757078362021025;0
1.1740001281323518;1.7720308096644146;1.3782763008547783;1.1835806687946138;0.2004714670864974;2.3983907669523123;0.040188809115812615;0.12015473960917111;0.05824609521611451;-2.5914312407390305;0.0797899459569695;0.1233812582848985;0.7845532608958461;0.6155238191823056;0.8477875935421522;1.1300985520873148;0.21918445582741924;0
1.3368514063909374;0.8461379103929012;1.7871716827694273;1.3253020493188186;0.20219485843359666;2.5311697275303437;0.0408827607769822;0.1322555671629022;0.05205030195848849;-0.19632367233005787;0.0545528703986948;0.1233812582848985;0.8514167430333955;0.7249104703175951;0.907911052743231;0.5233824073948767;0.2419280936992711;1
1.6540947071664982;-5.177645958511663;2.7360293002762237;2.6306829779441343;0.16400364983866245;-2.4635075697392796;0.026897197160402606;0.22418271764443753;0.05279654241458064;2.3212174274947532;0.04002243295605176;0.1233812582848985;1.084804624010354;1.1768010722742452;1.7495710041599941;-5.525141150249806;0.28348476350173274;0
2.0916584576089328;-5.217191558390411;4.375035103286979;3.3405209087034304;0.32040537763271976;1.0616349952677009;0.10265960601596576;0.2974829458886026;0.034240346323879844;1.013104318747752;0.029825634750688265;0.0825940654634445;1.4861693240209093;2.2086992596607664;2.2073844604677593;-4.037132121432146;0.42259118703128207;0
2.0278340068292238;-5.046447191033842;4.112110759253065;3.160647825936901;0.4496337647128068;-4.187776777130834;0.20217052236981173;0.6542906418886789;0.022897432010691908;2.729529785122807;0.015550117263179397;0.053023350667890295;1.377160458231354;1.8965709277159926;1.8500235563039515;-2.9573056314027557;0.4053236234634924;1
1.9768252592599762;-4.4275777674557535;3.907838105648272;2.971987619772442;0.5104202689748673;0.8203131080517565;0.2605288509803758;0.45400510501030555;0.023272297843070135;-1.9846515334540769;0.028933414907718974;0.053023350667890295;1.623095261878758;2.634438229133274;2.5860697255261824;-5.220886885248374;0.5179901611982431;1
1.6143773772902894;2.706742837575618;2.6062143163066733;1.2082422189781612;0.5109609771955308;-1.8976181299967845;0.26108112021661173;0.6482209462593381;0.01543827463731815;1.5609259573358116;0.009814418272662398;0.037728153359845;1.3686291028196211;1.8731456210848412;0.8587167174189985;3.186022326737458;0.6220050380279525;1
1.6145513965397427;2.7057884554698823;2.6067762120684335;1.2083960048802314;0.4152818316890609;-0.03995729536385895;0.1724589997310215;0.4609682508301929;0.012539539973115275;-5.860014828170944;0.02103089629856223;0.0229427959620679;1.5363347980175444;2.3603246115996086;1.2779167585427436;2.88129566136989;0.784055106467304;1
0.6262016423381496;-3.431947935223956;0.39212849686699575;0.8675168824792707;0.26219658665680123;0.1763864424065016;0.06874705005447748;0.27329236425622694;0.017099917089580606;1.54972403291179;0.010834098093198755;0.0418068726419904;0.49898869176156735;0.24898971450592047;0.4949901357841324;0.48246150321029724;0.4812917804747098;1
0.4393191460556962;2.67274122577939;0.19300131209110613;0.3629559098059446;0.14481454579803704;-0.782786049479828;0.02097125267469177;0.17833563696533883;0.021938919435089545;-2.2221895276866874;0.028805954930151895;0.0479249515652085;0.2834486995588586;0.08034316528160808;0.3815911785599231;-2.043164076279007;0.3796134375578732;1
0.11568808390326828;0.820258999034591;0.01338373275720964;0.10261972179446932;0.15305614408156368;-4.110149460154457;0.023426183241116377;0.22740794193379266;0.030686546597400846;-4.76735704486962;0.04690527174467215;0.0622004690527174;0.15850873685507538;0.02512501965939153;0.22819486179790738;-3.4651829862022776;0.2434647289149652;0
0.7055919047439689;3.790311072489974;0.4978599360402221;0.4612299473328254;0.11011454978725074;-5.121917573954736;0.012125214074848923;0.17220611360486626;0.05615572822562794;1.436862850316933;0.044610992148465325;0.1356174161313346;0.4932754003651371;0.2433206206053863;0.40718381869941933;3.159847527602569;0.5942768036290326;0
1.9537714743236507;1.2373066020840522;3.8172229738808117;2.1144272234469406;0.10082850232438656;-5.087272663123349;0.010166386880978826;0.15849824581501193;0.0580255160841037;0.8416241512728018;0.05684714999490152;0.1356174161313346;1.65551598270369;2.7407331689873646;1.5226493282416071;2.4192216756426;0.9548734266863205;0
1.7324952655881376;2.0049995276017754;3.0015398452853113;1.0973074431470544;0.2305417282924587;1.391559459485837;0.05314948848407385;0.23600990617054973;0.0486142446866939;2.152910784009917;0.04741511165494028;0.1040073416947077;1.4833230123486478;2.2002471589630668;0.8995104254550013;2.9984872991138474;0.7514666729972553;1
1.256813996813859;2.659679877553163;1.579581422587227;1.1341397918432174;0.2118930066924605;-2.9798523689201737;0.044898646285171116;0.2851760390553425;0.10714404288103117;-0.5411590155345536;0.13306821657999374;0.2263689201590699;1.23473923521688;1.5245809789839655;1.081033185751218;2.846480533253633;0.5316423825953063;1
1.157677688980306;3.142448801642825;1.3402176315627818;0.7633098322884706;0.1365125957306506;-0.27907729276035376;0.018635688793120046;0.14582033515568738;0.11153886621463545;3.980384483932955;0.06118078923218105;0.2263689201590699;1.162525353219875;1.351465196878995;0.7597572978812828;3.111982025485414;0.4784859143558423;1
0.285131675079899;2.955845015483483;0.0813000721338691;0.23983709970675893;0.10702364659677234;-1.2941759605062675;0.01145406093087082;0.12693207910022808;0.12797151016170247;2.8646600414517067;0.07851534618129903;0.29570714795554176;0.2972835050151654;0.08837748235410185;0.25332282559917685;3.0387958522572447;0.15433153173586223;1
1.5464164189545657;3.968019328039013;2.391403740812263;0.8173600557657776;0.07626519368717782;-0.36170663875014064;0.005816379768142747;0.08888232672369689;0.1287582162639114;2.9213865846712146;0.08386866523911489;0.29570714795554176;1.537102671078094;2.362684621435411;0.7944892087136215;3.968430937318775;0.5413162405812515;1
1.5805925526585474;3.9583633790040054;2.4982728175196627;0.894672875403046;0.03510648577443607;1.2254701894326132;0.0012324653434306824;0.03226959980416788;0.03669755520452697;-4.152518690399079;0.05340573060059145;0.0774956663607627;1.5672713496827155;2.4563394835362806;0.8969963408159332;3.9556118221063556;0.5607432964394155;1
1.5207501391950768;3.6372737972104403;2.3126809858618453;1.0450996061209898;0.0648156775319126;3.040908086616529;0.004201072053920879;0.04790838612732695;0.030789082608555212;1.9135176444295556;0.03071785459365753;0.0662791883348629;1.5081753388106536;2.2745928525966295;1.01679276130747;3.6758362060227263;0.5202274701356386;0
1.6470425404343334;3.019247128018005;2.7127491300003825;1.2780208473650703;0.15399439757976827;0.6175263979257863;0.023714274485955738;0.16737918720382006;0.07512775518221253;1.2226697914378128;0.07622106658509231;0.1687570102987661;1.6456265191378927;2.708086640489897;1.2614782200167907;3.001059269426694;0.6004999874575153;0
0.5168992601554597;-2.144007468812065;0.2671848451492616;0.656450796000521;0.2669409436842483;-0.25804896863009397;0.07125746741503702;0.3001704441122927;0.07673087120742933;3.4581815017937103;0.05041042112776596;0.1687570102987661;0.5148519969815949;0.2650725787959362;0.6360125889136004;-1.6745146745895934;0.24343325972541685;0
1.3591347718212647;1.1078041638584875;1.8472473279736417;1.4279161290537046;0.4010104310436635;-0.6145740198736522;0.1608093658058248;0.45664707715374825;0.07962277654805808;-4.117809583652573;0.11541500968695814;0.1687570102987661;0.8932880106316594;0.7979634699382677;1.1786274986679457;-2.2828408687216406;0.49528424236355956;0
1.5495312186263779;-3.278322214244559;2.401046997497748;2.1942647567945364;0.5557355529495457;-0.795811188357046;0.30884200481213725;0.6368090863281819;0.07331696896976561;1.1288295960110108;0.07169623738146216;0.1690119302539001;0.8135886172874869;0.6619264381797648;0.6152306769632914;1.8307240553914692;0.5317260547416386;1
1.4813276405415077;0.7118126232803199;2.19433157863227;1.621899087941062;0.7309724617090274;-0.9017356703537214;0.5343207397769555;0.840656471635598;0.06994394577243604;0.7187428667437903;0.06328387886203724;0.1690119302539001;0.8419493065157971;0.7088786347424317;0.9967672149537985;-1.4037076094872702;0.5080342913736132;1
0.8597818767545391;1.2582476066203512;0.7392248755955574;0.7092709343307316;0.9266629625880266;-0.9696239207475461;0.8587042462324184;1.0681892330760008;0.04217288369214492;2.4225181012715;0.0279137350871826;0.0994187825022942;1.0122560328188857;1.0246622759782291;1.1006413280554135;-0.2983521499860391;0.57477227367816;1
2.7954816431214207;2.447512194838657;7.814717617028837;2.1748085341993564;1.1427792962334558;-1.016049346132963;1.3059445198998325;1.3194073706493845;0.04162617289069052;0.5812762644402039;0.03976751300091773;0.0994187825022942;2.4917048997498905;6.208593307437611;2.198050731424606;2.3270543937627455;0.7529567070399389;1
2.7954816431214207;2.447512194838657;7.814717617028837;2.1748085341993564;1.1427792962334558;-1.016049346132963;1.3059445198998325;1.3194073706493845;0.04162617289069052;0.5812762644402039;0.03976751300091773;0.0994187825022942;2.4917048997498905;6.208593307437611;2.198050731424606;2.3270543937627455;0.7529567070399389;1
1.5353953915173753;-1.1908527602563694;2.357439008292794;1.9131554541040763;0.5512030965618757;-0.8170029554351803;0.30382485365940054;0.6327273258113304;0.03483242783974896;3.1980939149403014;0.027276435199347325;0.07545630671968989;0.7232159798767149;0.5230413535490369;1.1194681527275583;-5.055275486537008;0.3502759143474559;0
1.5353953915173753;-1.1908527602563694;2.357439008292794;1.9131554541040763;0.5512030965618757;-0.8170029554351803;0.30382485365940054;0.6327273258113304;0.03483242783974896;3.1980939149403014;0.027276435199347325;0.07545630671968989;0.7232159798767149;0.5230413535490369;1.1194681527275583;-5.055275486537008;0.3502759143474559;0
1.5353953915173753;-1.1908527602563694;2.357439008292794;1.9131554541040763;0.5512030965618757;-0.8170029554351803;0.30382485365940054;0.6327273258113304;0.03483242783974896;3.1980939149403014;0.027276435199347325;0.07545630671968989;0.7232159798767149;0.5230413535490369;1.1194681527275583;-5.055275486537008;0.3502759143474559;1
1.5043861054288834;-0.14325982553018335;2.2631775542074832;1.7215711328727672;0.395893121507081;-0.5924537103362422;0.1567313636566204;0.45129322374950265;0.031090481960694537;-0.21389747485413935;0.03517895380850403;0.07035790761700811;0.6166481958862626;0.3802549974897825;0.5183490397354653;2.8745759142411984;0.251445562641206;1
1.9369706042373915;2.1836998064141877;3.7518551216797653;1.4578938215157666;0.2549173222396176;-0.052243688204871574;0.06498284117781705;0.28555007881243544;0.024321376631241728;1.3899719938210566;0.018609156724788425;0.0591414295911083;0.6861224369450467;0.4707639984794096;0.4540879322707059;3.260000836435637;0.2221828843536068;1
2.5516973406848757;0.12449318387542974;6.511159318458266;2.701628799492691;0.13046363170107234;1.7207253890144898;0.01702075919663305;0.13500505793072337;0.029681850303688858;1.4065518332145768;0.021923116141531553;0.0723972672580808;1.2258040674359785;1.5025956117425887;1.5721636126536516;-1.8176002756828638;0.3312910037997939;1
1.3924928798141194;-0.334485087170437;1.9390364203330195;1.6813225245241394;0.04879385389352109;-5.880084244676589;0.002380840177782283;0.08222150829872232;0.046388894964792864;2.02242371739899;0.0316100744366269;0.11114510043846221;1.0886798650726663;1.185223848614639;1.3442790701590734;-0.8084494290918478;0.25108242800252173;1
0.9307833918169116;1.5841798714134239;0.8663577224821944;0.6598530007783667;0.10813443520474895;1.2236796086323967;0.011693056077050049;0.1175336132502065;0.04590730219173305;1.1307946883215596;0.03849291322524722;0.11114510043846221;0.7696898503486038;0.5924224657296561;0.5778013750122;1.499281530599843;0.15083914992299857;1
0.6365606041699783;1.7436439347644175;0.4052094027812478;0.4767267749648898;0.1915244849654816;-0.5844076592678338;0.03668162834129299;0.22051292968823422;0.07320183828251911;-1.1430627691547723;0.08463342510451705;0.17028653002957062;0.6070893212475846;0.36855744397285295;0.48036024580153747;1.2377742349240162;0.11674434330810853;1
1.7433835669242266;1.9912173216709643;3.039386261421439;1.4075229486304037;0.26488682094139593;-1.0047964578302597;0.07016502790843913;0.3078012890015005;0.08269890425747224;-3.8444112549215212;0.12134189864382573;0.17028653002957062;1.5695528414721822;2.463496122173401;1.3821108613912814;1.616381549129283;0.35195314292710184;1
1.7324857335378017;2.0310763133880627;3.001506816912015;1.3373398487894335;0.3256623638179394;-1.1443412246382163;0.10605597520748793;0.37939869119000735;0.05488934358690469;-3.527569548422397;0.078515346181299;0.1152238197206076;1.523810711747378;2.3219990852360506;1.0474851612829892;1.8470396809691323;0.350461745848248;1
1.8612713391188318;-4.916338857854763;3.4643309978252095;2.8643320963618795;0.3733114519520003;-1.2020684220394102;0.1393614401585106;0.4353051362537548;0.037662356492943076;-4.904649398232332;0.057739369837870855;0.0764759865402263;1.6378240258725068;2.682467539725226;2.4757140146945797;-4.361846495783507;0.5128894138980614;1
2.0863114056537415;1.7713699659898516;4.35269528136089;1.8013101022223459;0.4076550529217719;-1.2286939043062528;0.16618264217265266;0.4755206241927452;0.04009597285299331;1.21219260034119;0.03505149383093705;0.0958499031304169;1.6589290341902971;2.752045540479552;1.6313605823455957;1.63342315459;0.7173413452394126;1
2.0898331075967502;2.1424797632741868;4.367402417607491;1.6818390984015401;0.41912976801727425;-1.3556682560436215;0.1756697624382141;0.49393574490324843;0.01940240642713166;2.2517827116180147;0.0164423371061486;0.044356072193331195;1.725419067723196;2.9770709592627824;0.9441005120168064;3.7850985379835116;0.8281265976664398;1
0.9627094433813493;0.13576498026649197;0.9268094723756275;1.021588252119989;0.4524004795225675;-0.7096346781319305;0.20466619387224902;0.5025903946267134;0.02038244061144148;-3.1500697239709634;0.0279137350871825;0.044356072193331195;0.3311783558473577;0.10967910338175908;0.22313769904418868;1.4700455081460184;0.24305632241833616;1
0.9747609791116176;-1.03843760988193;0.9501589663986394;1.1431263254839525;0.44275328128764574;-2.148344082283039;0.19603046809097716;0.5577840539257503;0.02634611405181171;-1.5009719269258888;0.031864994391760854;0.0601611094116446;0.5399459776881308;0.29154165882159144;0.6215140473137069;-1.0912195415791608;0.46734395028440906;1
1.5821505309768864;2.1755503678621704;2.5032003026704435;1.2939012360248126;0.36991007866021625;-0.40488601775876276;0.13683346629440737;0.4197328869529162;0.019655854915367945;0.13054999977111947;0.020648516365861073;0.0458855919241357;1.56560457469578;2.4511176843083544;1.214465519081417;2.2670630164744843;0.7998257836146001;1
1.8602912572822374;-3.7517697216759878;3.4606835619207277;2.740074148240731;0.2508947810030605;0.03386297833377938;0.06294819113457369;0.2639154537177948;0.027035940825049117;1.1246780208373153;0.024472315692872428;0.06423982869379;1.85964203345715;3.4582684926006437;2.7460377570781285;-3.823822286097746;0.6910135830580042;1
2.0035531271192446;3.550353650519959;4.014225133189305;1.192535606441576;0.16521498352107342;-1.6533326144638973;0.02729599077986856;0.20708274670106674;0.018259577877792494;-2.701226654448755;0.02396247578260425;0.040787192821454106;2.001854763216902;4.007422493014199;1.2034018658559424;3.5339795925304216;0.5755650703798926;0
0.7457706279425245;1.806350698804252;0.5561738295017872;0.5403359731415902;0.15158084765020627;0.766568073928779;0.022976753374355046;0.13575186718905707;0.017943660941253586;2.8495448072582903;0.013255837666972588;0.040787192821454106;0.7244588754269586;0.5248406621848936;0.5392931638680412;1.668452946124603;0.17489808700717027;0
1.2141720010264052;-2.3908482223472216;1.474213648076465;1.5677097847244723;0.1108750155673525;1.4561271527751796;0.01229326907706066;0.10717248824870262;0.02691388177808938;3.389956731759657;0.0198837565004589;0.058121749770572106;1.2007292781973504;1.44175079952033;1.5267049201392688;-2.1707998172100247;0.32861054961752845;0
1.443092549314773;0.511221655091731;2.0825161058878106;1.5191546883214113;0.20942663029932831;0.7037265631149268;0.04385951347853154;0.1982317314466151;0.029884042109415827;2.4470303922420484;0.022687876006933852;0.0693382277964719;1.4476373583256488;2.095653921220063;1.5459067986154014;0.2989731467452543;0.48622285567554063;0
1.3269788712329962;0.947380381633181;1.7608729246987966;1.22650373705237;0.204928122296929;1.316518800823502;0.04199553530814509;0.15780663098149283;0.045551088430270115;1.0555653283198847;0.039002753135515406;0.110125420617926;1.128245293447595;1.2729374421866497;1.1358674157332092;0.10673065231266143;0.6041690192423786;0
0.9549109225313964;-0.2176871961354898;0.9118548699697625;1.0293745471941125;0.3576121551986053;2.2761230714974854;0.12788645354579134;0.24476242825714944;0.04725861211892107;1.9603910267747278;0.03976751300091778;0.110125420617926;0.7189201064189215;0.5168461194133934;0.5763687759060725;1.392278039870254;0.5037746502672609;0
0.7881247385016785;0.6249075218784306;0.6211406034383392;0.893618057764689;0.4327926574905776;-3.837274204170873;0.1873094843777564;0.6382397767636977;0.023991385430617424;-0.4262505974185835;0.0262567553788111;0.0560823901294993;0.6275275968608985;0.39379088482201435;0.5094874732467007;2.036650786311391;0.4613544050670656;0
0.9112857493163327;-3.134427562100141;0.8304417169070298;1.2565051725303684;0.3080339536664995;3.53063281619038;0.09488491661141517;0.1967149889060067;0.02547669572478637;-1.6808514630853768;0.0323748343020292;0.0560823901294993;0.6081213484023354;0.3698115743826747;0.5243281759200447;1.0329544959808565;0.4824623695395518;0
0.8407417677571223;2.3110742075694404;0.706846720051371;0.6365890860182128;0.08239546882607775;-2.364015295483327;0.006789013283069149;0.10668729452481762;0.013562763810019281;2.142107758616323;0.010961558070765778;0.0316100744366269;0.3250400772997657;0.10565105185103767;0.387312648568777;-1.4329433634092386;0.208411944044733;0
0.9306544750973479;2.7148767305048267;0.8661177520187202;0.8461177610808144;0.06880306657515663;-1.9516566409940186;0.004733861970145434;0.0913475129282717;0.01696064029077824;2.729089853388409;0.012745997756704375;0.0387478331803813;0.3535191464813523;0.1249757869289038;0.3920313364147814;1.0141335206366335;0.20858824645125656;0
1.1623189526492865;-4.4700406362292995;1.3509853476877343;1.724495990593557;0.09358153252036061;-1.20406322216831;0.008757503228859312;0.10902612997003347;0.015906133655276995;3.3230812535176995;0.011726317936168025;0.0346691138982359;0.35078449563199143;0.12304976237579063;0.4844524542358539;-2.9875101388213263;0.22961717740499785;0
1.051026332873482;0.908157131050416;1.1046563523934794;1.049975638022012;0.1265321168965585;-0.013837877322476544;0.01601037660632434;0.13324383942252038;0.018190642168768523;-5.244981114192308;0.029315794840420094;0.0346691138982359;0.39192583081814564;0.1536058568624937;0.5151904701313168;-2.679194646220017;0.26181542011498754;0
1.121169692146618;-1.8830324958417997;1.2570214785881424;1.4623418740403897;0.0840504276446657;-1.757284216708106;0.007064474387251186;0.10645074398164833;0.016929960783674626;-2.760935711163521;0.02396247578260422;0.0346691138982359;0.4169236911388397;0.1738253642328346;0.3741164204704688;2.7424872307101076;0.3102587581423671;1
0.7017309489566619;2.8010299117220434;0.49242632472361714;0.5582731800353677;0.06540394712794304;-4.093516839199067;0.004277676299914768;0.09458719386306547;0.016152084554652297;0.3891238601368361;0.018609156724788425;0.0346691138982359;0.1813608480783658;0.03289175721570408;0.24756283340305885;-2.3231538319465095;0.14899351525700705;0
0.7246048587349723;-3.4854641439259364;0.5250522013023291;1.007322634924552;0.16858844038520374;1.2467013464313155;0.0284220622315154;0.17596056048468178;0.02113633365424937;-0.2852843870172883;0.02243295605179975;0.049964311206281205;0.1820748078732514;0.03315123566208141;0.25196652797681685;-2.5772025989768164;0.14939989034848067;0
0.8613322278165865;-2.1975175407504395;0.7418932066754841;1.0981397550967484;0.20666684542648417;-3.3143800731569417;0.042711184998534296;0.28582464939918795;0.014878825621570209;-2.36242661448507;0.020138676455592933;0.0316100744366269;0.23989702805713725;0.05755058407064689;0.25971814458599063;-0.4726326547441211;0.17682665429032887;0
0.8090861373728182;2.126293640577874;0.6546203776888668;0.5081075957293948;0.17100518995240466;1.3548909239245077;0.029242774990658;0.15777992642466887;0.023729930712994788;2.379869820773843;0.015550117263179342;0.0560823901294993;0.1401071672657406;0.01963001831923021;0.09698343602043624;1.4516181420698437;0.09625637332932735;0
0.5176881762837617;1.5054392533633951;0.2680010478640072;0.3407290675666634;0.07021028762227598;1.1986385765505236;0.0049294844880027186;0.06190234322830168;0.020613343122336175;3.6124680322159115;0.012745997756704375;0.0448659121035994;0.14867601375676906;0.02210455706660298;0.16179909333055398;-0.045147832847096225;0.1036823173790174;0
0.5388316123966373;0.23259989707352524;0.2903395065179601;0.553605208753886;0.20806777494129933;3.0522520744262067;0.04329219896902319;0.13826485773784358;0.057037544814322674;2.358451998495868;0.03900275313551537;0.1345977363107983;0.21179119517569786;0.044855510353950544;0.20277303741146913;0.5229696650216162;0.15204144213131493;1
1.18701046162798;1.8451331931441022;1.40899383601427;1.124790638923236;0.3897609205823363;-1.338481978335789;0.15191357521319027;0.48310426663360295;0.056272870376512525;2.128244075276056;0.03594371367390641;0.1345977363107983;0.4409817911856004;0.19446494015726046;0.33268936287899353;2.411355951614354;0.2895672003373374;0
1.1871772527565323;-2.3126498434880123;1.4093898294625475;1.5266373420329948;0.4778670931621132;-1.478397611882876;0.22835695872720777;0.5692971007287284;0.044204423713297435;3.9832758906426697;0.023962475782604263;0.08973182420719891;0.43938523334230883;0.1930593832792752;0.36751207929004326;1.9456255680015762;0.2863363716366565;0
1.1440402044245603;0.725522725389121;1.30882798933979;1.146872271686018;0.4851171943216677;-0.9485115386997123;0.23533869222652673;0.5503013944322175;0.044512070642753414;-4.418257062684944;0.06806362802080144;0.0887121443866625;0.5580892952497992;0.31146366147241755;0.6082915579660062;-0.016343526134297903;0.39542205513235695;0
0.6034178491279688;-1.0977371113497743;0.36411310064622415;0.7611778867954433;0.45349599706265536;-1.6686527398877793;0.20565861935185192;0.5501046565039307;0.035533074214212305;2.9716269866236082;0.021923116141531564;0.0815743856429081;0.6277308586023166;0.39404603084160156;0.8154811042351526;-1.4554536642697151;0.3736004504715975;0
0.773736846270211;-1.5837121693226877;0.5986687072761722;0.934801812552807;0.41629683656487154;-0.76376362573812;0.17330305613391936;0.4667838482195086;0.036595000397524974;-2.6047799081826657;0.04792495156520856;0.0815743856429081;0.8128386715951391;0.6607067060405504;0.9854495452989154;-1.6602286254966128;0.4452302812758953;0
1.9521836654302347;1.9515709021946428;3.8110210635726265;1.5152963334122116;0.3195479872559141;-1.5926129708287515;0.10211091615930586;0.3954960268152793;0.035648408542758955;-1.8147974762873886;0.043718772305496124;0.0815743856429081;1.9716229835434418;3.8872971892367425;1.5704298174475508;1.8161396120676763;0.6951008107573368;0
1.5732843226248003;-3.889263983663824;2.475223559816977;2.264251564232017;0.33069079340663754;0.8145196972834086;0.10935640084391145;0.29841366291133;0.02817951492286377;-2.5976212093539495;0.03836545324768027;0.0601611094116447;1.5904565733147125;2.529552111599977;2.318818476304785;-4.15556632171862;0.41893051201241793;0
1.2235678055047519;2.3869116226053055;1.4971181746677145;0.9176357628478735;0.35413704091618997;-2.841330804790882;0.1254130437488752;0.47628405925809647;0.03384552445736593;1.6216304801405883;0.024344855715305324;0.0820842255531762;1.2339110437143945;1.5225364638003465;0.9576558793776293;2.632071819194529;0.27373471689107054;0
1.1337530652365466;2.1828199251617217;1.2853960129332653;0.8699289641126873;0.40724414722546964;-0.4630245987537762;0.16584779544939998;0.44022064536529437;0.05396019818756215;-1.6630788136598742;0.06538696849189342;0.1238910981951666;0.9315104170910036;0.8677116571490554;0.7978494769204696;1.7943346672691867;0.19957392234302943;0
1.00772090776621;-5.32615473130352;1.015501427949154;1.5929750209611306;0.3795976816614437;-1.5740177668801003;0.14409439992274276;0.45617010877427333;0.04008867896771164;-0.45082495305383574;0.047924951565208526;0.08769246456612609;0.7875322644151864;0.6202070674949111;1.1382906065750547;-4.085899455572296;0.18677014977581086;1
0.903250532726298;3.4581309852017874;0.815861524870341;0.5858999602435757;0.3375141134238382;-1.4075481345833065;0.11391577676027953;0.40917448332090745;0.023495084116792818;-5.399537187332802;0.037473233404710954;0.0458855919241358;0.7192140807996;0.5172688940204136;0.559093170965502;2.3256059582781887;0.17875247935911934;0
0.16519872258222384;2.423101730058523;0.02729061794279855;0.1382671112778504;0.19893176664899329;1.8589309836741528;0.03957384778208952;0.18548357958813355;0.02298807039379118;-5.186968874853436;0.03594371367390642;0.0458855919241358;0.24861941490441786;0.06181161346741507;0.21920450111967682;2.1723401310471164;0.06673856093372013;0
0.19053948755318828;2.79699606818885;0.03630529631703159;0.150863219028329;0.07007121860055943;-1.7141280665593719;0.004909975676167385;0.08641569692152373;0.02028069424176137;2.6966828672167864;0.016059957173447527;0.0458855919241358;0.1591541209705582;0.025330034221911074;0.15651442874443733;0.5600680633542758;0.040671218757421815;0
0.844682869540106;3.2031310057142726;0.7134891500945076;0.6825283376502909;0.1588794635110078;2.1679112423384215;0.025242683925545652;0.13678190172259752;0.013693101579472945;1.1918573463953859;0.013255837666972498;0.0316100744366268;0.7976311019321911;0.6362153747695614;0.5656232456618095;3.5764010783641176;0.1827901043711809;0
1.1950074353613156;-3.785394654758333;1.4280427705688288;1.70889246173051;0.19467646224123278;-5.492840238026904;0.037898924950762136;0.3176446672456654;0.02260801328783843;-1.2830501208955525;0.026766595289079174;0.0520036708473538;1.1331834213473777;1.2841046664165487;1.6604993351607895;-4.095170002756369;0.22966358709554455;0
0.9465453738322062;2.1913713106011627;0.8959481447231509;0.8034617349416786;0.17254654809108821;0.6536703193666042;0.029772311258150216;0.1963140540086803;0.02359811708643465;-1.7432361031164465;0.028805954930151898;0.0540430304884266;0.9088490341871391;0.8260065669428956;0.7124602403761076;2.4650509062883508;0.16763908006865058;0
0.6318901064316297;0.4857580239863992;0.3992851066061762;0.6324626421239179;0.06749993360418971;3.264368397522748;0.0045562410365700195;0.053822575586995214;0.014620350235548212;1.4578091118922902;0.0104517181604976;0.0356887937187723;0.5584431061308568;0.3118587027850793;0.5223144581133274;0.7753678290736783;0.09951569131541704;0
0.7424155415665911;-4.615596876855017;0.5511808363596147;1.1385242468135974;0.1268867150153193;-1.010310701627585;0.016100238447378862;0.15612718707439033;0.02149405085314894;2.2861900771513834;0.014275517487508896;0.0509839910268175;0.6885054260002349;0.4740397216317649;1.0360717013579723;-4.228568366173315;0.1267878473542377;0
0.5710158030025169;3.4672602437269973;0.3260590472786092;0.3692598768037554;0.1617192488566688;-1.5778883122395602;0.02615311545076517;0.1943620815488858;0.03499745549450495;-2.27238622049399;0.04486591210359937;0.07851534618129899;0.5413069844343582;0.2930132513974186;0.355311821034336;2.9333935464929795;0.10791465916940052;0
0.19783421141764643;1.035877581563943;0.039138375207242025;0.17389768588633103;0.3017535903418083;0.8549158620158686;0.09105522928417188;0.27287451229111337;0.025204868143791706;0.9938739047630172;0.021413276231263278;0.061180789232180996;0.14743468682426963;0.021736986878970466;0.09487488092572693;3.478958777963417;0.03086739248426658;0
0.19962209465306374;0.8153194285232992;0.03984898067367674;0.18661731344747245;0.36193171322742;-1.9980168911504315;0.13099456503973542;0.4648548631964722;0.016208312453779763;-3.101471724646103;0.02192311614153155;0.0356887937187722;0.20725324494134817;0.042953907538718465;0.3044869490069786;-3.770485476491869;0.04447597835431502;0
0.5608758825067848;1.3905745087003698;0.31458175557776463;0.5622244847660074;0.3882478261544958;-1.3928981571922705;0.1507363745136916;0.4659988119366325;0.01969108838288375;-4.409225679597682;0.029315794840420024;0.040787192821453995;0.44585237155882107;0.19878433722462505;0.46404437662899767;0.8624620278635327;0.09268772077436027;0
0.4766715062040872;-0.9342051459703562;0.22721572482687316;0.5425718253637246;0.25625602938289244;0.4422478693807985;0.06566715259508582;0.2944275183216827;0.021364664871782336;1.2641798247207667;0.016824717038849798;0.0520036708473538;0.41686919826062285;0.17377992845845447;0.37610626225394483;0.731973340766265;0.08468849295062776;0
0.6527414047039121;-2.9532354863212333;0.42607134141483627;0.8741005787778606;0.10239343872941929;1.948901343645396;0.010484416294835342;0.0995753789860625;0.02163668315888948;1.7761013145575273;0.016059957173447423;0.0520036708473538;0.6097566862664243;0.3718032164466106;0.7854527215928222;-2.439039676986594;0.12904163646699224;0
0.668042355759941;-3.4700636885562766;0.4462805890892916;0.931739227947169;0.04763330151234374;-3.9449084047389373;0.0022689314129658487;0.06875767593563054;0.010008111120856197;3.3619568731189595;0.007647598654022575;0.021413276231263302;0.6309692331859883;0.3981221732273141;0.8698943350477712;-3.2975181818018733;0.13433098160647844;0
0.8522181699384279;1.1972753418648185;0.7262758091732032;0.7073549283742766;0.05055532091332357;1.6989799468748785;0.002555840472649132;0.0492327233158083;0.01629361995065684;1.3445691224289753;0.01223615784643615;0.039767513000917604;0.7882364319840602;0.621316672706962;0.6650924913685192;1.127924847589581;0.19149620493500513;0
0.7355087604553356;-5.166231856006824;0.5409731367065443;1.1503385631009864;0.028913970539130897;-2.176079402927151;0.0008360176923377295;0.037159915200979166;0.020571266444205198;1.5839878296880006;0.01478535739777705;0.0499643112062812;0.6848285341779607;0.46899012122433437;1.0591173776237937;-5.026737722609839;0.19046744665270535;0
0.8493099151313778;2.235974997283977;0.7213273319404682;0.6244525819332116;0.05061606854340671;-2.1969708050068135;0.002561986394790846;0.0667889562747348;0.021828056111560776;-1.4552278363959221;0.026256755378811027;0.0499643112062812;0.7949247814266251;0.6319054081261678;0.6006265929670223;2.1711705560257553;0.24918178899071353;0
0.32059629501297826;-3.341974949522138;0.10278198437604857;0.4404010218199246;0.09764848885534014;0.8976320089396612;0.009535227375731486;0.09188837536581818;0.02237688082506117;-2.6522411505927668;0.029315794840420076;0.0499643112062812;0.3172272313662576;0.10063311632030113;0.4606591775777096;-4.0701777436186894;0.11546657699046325;0
0.3394878612850217;-2.9242669009458666;0.11525200795987812;0.4531957886162612;0.2315550622376285;2.033141577203873;0.05361774684787201;0.21911257483467383;0.016109112520933385;1.3496082786826218;0.017079636993983932;0.034669113898236;0.2644593385362289;0.0699387417390197;0.4216170785703093;-5.245934900374902;0.09764740101935057;0
0.6145471904199886;-1.4482900581110982;0.3776682492531018;0.7675426965122889;0.3491474443834695;-2.141021035844343;0.12190393791950792;0.4516800489540549;0.014190289755717456;2.3188520000811863;0.009177118384827203;0.0336494340776996;0.4764419231727958;0.22699690615659227;0.5706552799376188;-0.5815323916827282;0.1673392306091241;0
0.4884102969097499;0.932484122812534;0.23854461812747008;0.4312106785986156;0.3778707914432058;-1.2398612721274773;0.14278633502591473;0.4462109755757193;0.017194031297293463;1.2330606135977895;0.017334556949117973;0.0387478331803814;0.3881996915194206;0.15069900049577328;0.3023512062184919;1.2582506976098227;0.12951345113490276;0
0.4351424958442199;-2.249580314741726;0.18934899168953692;0.5615592170978383;0.25915185866842405;-0.21391742993543517;0.06715968585129882;0.3057867809556332;0.007647598654022728;-3.9012345679390332;0.01147139798103395;0.015295197308045301;0.40542266607678923;0.16436753816881175;0.552873322204845;-2.7244938202154536;0.1222053710276269;0
0.34390359624512545;0.471645704559867;0.11826968351033028;0.36352228893099925;0.14648175545179576;2.1023718502540607;0.021456904680239697;0.11695558196156342;0.009134532918919686;2.602498034748969;0.005353319057815848;0.0214132762312634;0.3402051318506084;0.11573953173748984;0.3394660978076973;1.0029005376901754;0.09722003013845573;0
0.39395604958908065;2.9287535489585856;0.15520136900783418;0.32037963736419517;0.058785273592109444;-3.487756000094455;0.0034557083912991602;0.08369501610861452;0.01181465302973032;0.9838644237031939;0.011471397981033946;0.0275313551544815;0.3904323427063371;0.15243741423115867;0.321047349400974;2.89214097157668;0.10839576701896116;0
0.24365641469067184;1.2967508872146105;0.05936844841991265;0.2418176482953891;0.06602314463965649;1.3559603231838544;0.004359055628109;0.04931647239444553;0.005224304459039384;0.342857142779021;0.005353319057815876;0.0122361578464362;0.24533995396094468;0.060191693009558456;0.2451708232976033;1.278115489139232;0.06670849884732412;0
0.26202777114977605;0.4742611432681354;0.0686585528537194;0.3027666766495667;0.08468997124530447;-0.8832918134461227;0.007172391229530499;0.10494900390773143;0.008531253457062151;2.4142857142735874;0.007137758743754503;0.019373916590190703;0.26247058609412166;0.06889080856459172;0.3029245442479036;0.5149237729945302;0.0709861221292106;0
0.7001132189608723;0.8689058736802533;0.4901585193637543;0.785572766072598;0.07660991707280572;0.8046055181151353;0.00586907939390217;0.07087977252861;0.01779820871022204;-0.878752112771604;0.021923116141531605;0.0387478331803813;0.7005327861305297;0.4907461844438024;0.787177673445365;0.8609848212953768;0.2071829547617691;0
0.615633783343443;0.8507155219331022;0.37900495519376126;0.5481803504426681;0.06763885661213712;0.3631885319856867;0.004575014923797245;0.06558603317062683;0.015017937262578052;0.25347920754855835;0.015040277352911177;0.0356887937187723;0.6153906730862876;0.3787056805215941;0.5463816381196134;0.8657265829837115;0.19325317949884022;0
0.8687845288072067;-1.1977458387743418;0.7547865574947602;1.0209214680297292;0.18874144427913786;1.491738438027694;0.0356233327885749;0.18398696388323832;0.011755836719024743;-0.6168099763275006;0.013000917711838478;0.027531355154481497;0.8549967568719958;0.7310194542616308;1.01263803448014;-1.244593585925676;0.30181020971614053;0
0.8519973908179904;-0.1949704083904873;0.7258995539606635;0.892062011683814;0.2190523798968072;-4.017973590822143;0.04798394513845514;0.3150850690146343;0.012331382300854385;0.9180509898370577;0.013000917711838478;0.027531355154481497;0.806576602630817;0.6505658159114709;0.8368804913361121;-0.14075006287191094;0.37408660968810237;0
0.8321146144860232;1.1139627373716685;0.692414731641223;0.6893787110064906;0.23731714785608052;0.7269232456116708;0.056319428666544775;0.21725396678165815;0.01464699461365375;0.26517312565248474;0.014785357397777102;0.034669113898236;0.7938982935250413;0.6302745004619725;0.7171345164965954;0.7489507727357605;0.37515147676357813;0
0.570077370748904;1.6947988178771585;0.32498820863998334;0.5139514996985923;0.22009285479277524;-2.037477311619403;0.048440864730833644;0.27914658029033507;0.020145666717973538;-4.04456692879036;0.029060874885286074;0.0428265524625268;0.5876404973358714;0.34532135410915027;0.5803351620364761;0.8212599966981724;0.2968769014110705;0
0.6856674973682761;2.3451402133748793;0.4701399169472749;0.5852438295906461;0.21463072348497336;-1.3519448847773994;0.04606634746368309;0.2611764970883379;0.022176570991059037;-4.970853130350333;0.03517895380850418;0.0428265524625268;0.7132387940226693;0.5087095772989118;0.6366576408378444;2.0462796358670587;0.3243865754772188;0
0.2142462462450449;0.5316411251099957;0.045901454030092416;0.2194021899233518;0.1352659773467743;1.282985321693566;0.018296884627578062;0.1414543028492259;0.024725921592703495;2.888888888888694;0.01427551748750893;0.0571020699500357;0.24539762217946376;0.06021999297133484;0.25796468522051796;0.5766719555278268;0.09509725031030276;0
0.10855750188557235;-0.31521923522746853;0.011784731215636043;0.12996243967056165;0.058275956379913334;-5.449531757365362;0.0033960870919935615;0.09494242244749151;0.006763790742032087;-0.04958677687754154;0.0081574385642908;0.0142755174875089;0.10996415833036335;0.01209211611730522;0.1015552197573446;1.7095706454855204;0.04058065191635557;0
0.21114816754914778;2.8486127286391323;0.04458354865936298;0.18412087967761837;0.09828396920827921;1.4885941419498963;0.009659738603333976;0.07421129830359452;0.006763790742032087;-0.04958677687758595;0.0081574385642908;0.0142755174875089;0.15923121123926956;0.025354578632724886;0.12731451788357928;2.853226661277496;0.05932588886443927;0
0.25715376627541653;1.3797932026855992;0.06612805950963156;0.2238950838139795;0.09817440187859634;1.5051181497073713;0.009638213184220142;0.07290299720583437;0.006449021434013286;-1.7000000000140467;0.0081574385642908;0.0142755174875089;0.20816144976066148;0.04333118916646039;0.16488567822624356;1.3276326382432888;0.07648551515443341;0
0.2572655467987938;1.181024376030436;0.06618556156968237;0.23145158297431045;0.21303398600205187;0.07720398415987972;0.045383479191922434;0.23166939470491665;0.016090276168103865;2.2348671795616593;0.0137656775772407;0.0367084735393085;0.21940863994386636;0.048140151282017186;0.20105119197596188;1.671471279853419;0.07951370529746965;0
0.5155717220409662;0.050001879325520804;0.26581420056828736;0.5495113292104037;0.2331462000076872;-3.118888365535259;0.05435715057802448;0.3157265314340072;0.017070122405203593;-3.2503125395396335;0.023707555827470073;0.0367084735393085;0.3627126690079545;0.13156048025887396;0.5029274199274316;-3.1309827911315686;0.13878983911898607;0
0.7863522163812106;-3.659286964987107;0.6183498082076422;1.1118230790982355;0.2751918401718701;1.7847166701731254;0.0757305488971801;0.24650839419990933;0.012827312761710098;-5.2257087167342124;0.020648516365861024;0.0244723156928723;0.4975014836853976;0.24750772626917192;0.763834042521486;-4.824280410422059;0.19991449010943502;0
0.9399682738998738;0.2267742972322342;0.8835403559383082;0.9277584789724829;0.10179800440150362;0.2611175513644479;0.010362833700128549;0.10470613006876928;0.013124458431941672;-5.231445008075557;0.020903436320995124;0.0254919955134087;0.5433314912906759;0.2952091094281499;0.4938568200283089;1.0414747030090616;0.25369553106978615;0
0.5492547330616202;1.686367252718835;0.3016807617905916;0.3943149526058224;0.125955638935233;1.3283359112891961;0.015864822979582787;0.11815538395817038;0.016659105211360586;1.485966023306398;0.0109615580707658;0.040787192821454;0.27750650664986165;0.0770098612330097;0.3663048169617733;-2.4885492720731293;0.15059494605380436;1
0.396956465307773;3.8414405518846593;0.1575744353496412;0.21908405470470826;0.1900844892534001;-3.940850725338615;0.03613211305472598;0.2738525399664895;0.011262731739764753;-5.594866971247464;0.018354236769654274;0.0214132762312634;0.1770340507625767;0.03134105512940658;0.1544238659486441;2.753326702026122;0.10443380596561573;0
0.4763748497746937;-5.719300268727386;0.22693299749786197;0.7901625003859437;0.2513665749452682;0.5923398512487772;0.06318515499971515;0.23401708923009124;0.02028069424176135;1.7573027506994414;0.01453043744264302;0.0489446313857448;0.3294990480257829;0.10856962264989717;0.19320760579230178;3.698545432755843;0.22789162024601967;0
0.4838769768345777;3.312958702306485;0.23413692871057043;0.2803559816568202;0.21866780688152196;-4.009741447945608;0.04781560976637458;0.31459704566850233;0.014405421180640286;3.177465230709206;0.010961558070765778;0.031610074436626896;0.32278994405663736;0.10419334798408707;0.24292238384741172;3.1545595425862025;0.22583984411855423;0
0.722915919758823;-3.9110554112363296;0.5226074270407449;1.0439023457979493;0.20496309827663037;1.0932280742211073;0.042009871655155635;0.1895197024284383;0.013540385634099554;1.7726994972105974;0.011726317936168077;0.031610074436626896;0.4009353602751867;0.1607491631189938;0.613945808155134;-4.822979262622415;0.3322822158459585;0
0.9501951966445039;0.6402297066093006;0.9028709117262875;0.8973449991192715;0.16873570094945578;-0.8241552314972864;0.028471736774904177;0.19385750188249773;0.01971087953148839;1.2236382546795763;0.01580503721831348;0.0479249515652085;0.31247835949238256;0.09764272515105067;0.34408048746382913;-0.37540313005736614;0.2834920181442515;0
0.973850429148768;-0.993240922982082;0.9483846583532395;1.1099767046058466;0.16474564285246365;-2.5891214299173875;0.027141126838871512;0.21754621229993543;0.0274494070352061;-0.3920604721349914;0.03262975425716325;0.0601611094116447;0.38718758253841834;0.14991422407194452;0.5087323216842307;-2.332239663231345;0.37708977632466256;0
0.7743316955233952;-1.822793196718461;0.599589574692136;0.9879457165411639;0.18641260196743611;0.9631643341109335;0.03474965817226977;0.1623310132347408;0.04084663083565624;-0.7294757587144343;0.04537575201386768;0.095849903130417;0.3106755254576663;0.09651928211839707;0.45891894061266714;-4.405577670710512;0.31800071192628077;0
0.8286669126432985;3.5415258752275705;0.6866888521097761;0.6148249877208682;0.2202327276061577;-1.9110136934793935;0.04850245430884805;0.2829013592257195;0.05443282269415802;0.388100956030895;0.055572550219231076;0.12745997756704391;0.31006432947648443;0.0961398884137019;0.26204816839089906;3.0963498773475244;0.2795078285170068;0
0.8721674418318444;-4.30510499440466;0.7606760465915037;1.328112981575997;0.2946890846108239;-0.633663234686658;0.08684165658876532;0.32523511386446396;0.07798828755448334;-4.13963127870147;0.11318446007953499;0.16518813092688892;0.5211543969112191;0.27160190541989654;0.7528961260305062;-3.1759672173538256;0.5937172606629453;1
0.6214180937693474;-4.837838382313283;0.3861604472639295;0.9713931033391228;0.29792900361178715;-2.1056354864799065;0.0887616911931123;0.37379903556320243;0.07068656554460474;1.6838310654137292;0.06194554909758336;0.16518813092688892;0.5362367725872142;0.28754987627475176;0.8222682869247225;-4.348466077568171;0.6274284330265025;0
0.5331969975341659;3.002588236063147;0.2842990381794494;0.33361799927527735;0.2927306120187019;-0.6116901194133337;0.08569121121284377;0.32246754632128793;0.07097525809268884;1.6355916654931715;0.06347506882838788;0.16518813092688892;0.44469093742148663;0.19775002982480053;0.37940619400925724;1.4082098146156579;0.6289496932603326;0
0.547925612138824;3.0469709184547717;0.300222476437705;0.3412222024217295;0.23138246949514552;-1.8847687633022403;0.05353784718967195;0.2901849927445833;0.028385158624516744;0.6377711400778292;0.02931579484042013;0.0652595085143265;0.5424513058755152;0.29425341924605175;0.43265476506240474;2.056832808448819;0.7134832779218097;0
0.7080216614531147;-4.169915966125146;0.501294673086829;1.0675336020793351;0.17540054378301476;0.45746577486766427;0.030765350759377277;0.18155880618717135;0.02900118318236146;1.3117932850886778;0.02625675537881105;0.0683185479759356;0.6600017974720931;0.43560237266639384;0.9514529172762635;-3.779388190934627;0.5565122672240947;0
0.6555702792632754;-3.292459333020018;0.4297723910533288;0.9041931242095517;0.08852271554230359;-1.6396576199117376;0.007836271166983598;0.11323154404087254;0.030414276106656157;-2.45231928244889;0.03925767309064956;0.0683185479759356;0.5731560017544503;0.32850780234714744;0.7892671320756409;-3.077599417707626;0.45293761957013107;0
1.0080618029609072;-0.22608789889724434;1.016188598588795;1.124696748875448;0.07670711376886614;-0.36655919032530804;0.005883981302749773;0.08798681444402101;0.02413541425215586;0.0972353890745552;0.02880595493015195;0.0509839910268176;0.5309314147660794;0.28188816718551063;0.754243534015113;-2.990919332644067;0.4082696894528539;0
2.5024813932026486;1.5037015223649686;6.2624131233254685;2.322608171629583;0.07661446935307033;2.793299076128733;0.005869776914252553;0.05927624076359095;0.040041101083046524;2.5803427085277946;0.037218313449576844;0.0846334251045172;2.0975742223879785;4.399817618426533;1.913004975029243;2.679920460266068;0.9344997215896639;0
2.502921922615218;1.7194277722679914;6.264618150707861;2.25332210926571;0.07159513730181873;2.6345618078699715;0.005125863685266276;0.056672082249910494;0.0372567062433876;-1.948278135476743;0.046395431834404005;0.0846334251045172;2.1021145363751423;4.41888552403968;1.8476588999100931;2.893424382631032;0.9456997644081322;0
2.392791296259299;1.870400129661185;5.725450187454258;1.467441689186563;0.09360704648221581;-3.7786557854307645;0.00876227915112371;0.134988008729242;0.035175259122382674;1.9460701927829671;0.023452635872336133;0.0846334251045172;1.9389866543750556;3.7596692458445715;1.1497075762015672;3.0199101969513755;0.7813745155886826;0
2.141204577937936;2.5401033472436225;4.584757044582374;1.2797100195048248;0.0895984947530567;-3.784755253287658;0.00802789026201353;0.13168965591702542;0.01716376897175841;-5.685716262975354;0.02804119506474964;0.0326297542571633;1.9777604383025882;3.9115363513148456;1.1836351596325154;2.841970191339307;0.8080473669303431;0
1.005431791880013;-4.950846095918132;1.0108930881230538;1.5863031370595861;0.26512615042698623;2.287715166944043;0.07029187564023294;0.23923296203333766;0.015238443133448827;3.3113611049251723;0.010706638115631724;0.0336494340776996;0.7876949201632911;0.6204632872510536;1.2428445422489018;-5.047657029835179;0.6472723338051576;0
1.3795762746244316;-2.8994339114786474;1.9032306975066249;1.8693458019304834;0.28062661989928367;-3.7740155707319047;0.07875129979609703;0.4048397588883852;0.015109966847078786;-0.3407609576312538;0.01758947690425213;0.0336494340776996;1.1057701222509175;1.222727563262809;1.4975124509703266;-2.833943362551116;0.764937138184787;0
1.3206976375229822;1.8076119005041988;1.7442422497587866;1.220297710860121;0.3196591646887027;1.3223683615937478;0.10218198156947915;0.24188071016340784;0.02245370698093848;-0.9006499923287645;0.02536453553584181;0.0525135107576221;1.083395433820428;1.1737456660229533;0.698714326132803;3.3971286434783927;0.918673675335626;0
1.2512160618736747;0.512454540675968;1.5655416334906673;1.1863865752703386;0.21919753985069848;-5.2129077657960305;0.04804756147659855;0.34333662636877904;0.02439785074743636;-1.1260979004979284;0.02829611501988378;0.056592230039767606;1.0398261694658695;1.0812384627060632;1.0312667341657358;0.9557363023603447;0.7670907910063977;0
0.9643902708542499;1.331153791954538;0.9300485945183334;0.9743678739470865;0.2432138491889902;2.3099137264039253;0.05915297643732487;0.18834123606535164;0.03687097936527897;-0.07463084353032912;0.037983073314979104;0.0876924645661262;0.9611460718424454;0.9238017714181632;0.9642682831368282;1.4949818327370412;0.6756531745235596;0
1.4548942178481445;2.809340923736979;2.116717185127964;1.2308229139457667;0.14179637422641495;-1.778336554793734;0.020106211743757513;0.17706592044410402;0.02180025218929742;0.5452500355240417;0.020393596410726977;0.052513510757622;1.4513963911310162;2.1065514841881376;1.219631050458223;2.8941731497922554;0.8650044212665924;1
1.3498129657973952;1.910264262466594;1.82199504263476;1.0928870059423248;0.20115867669839962;-0.31349555987730504;0.04046481321105127;0.21402681751431624;0.014866445714105534;-3.816633138237483;0.021540736208830298;0.0311002345263586;1.3424313383850703;1.8021218982783314;1.1393851728676494;1.744681589157496;0.6925997817832505;1
1.3163636996974637;1.8738279793983192;1.7328133898811944;0.8010557746872493;0.33391728215097566;1.7439328100098699;0.11150075131909427;0.30817805024073747;0.04535283207200176;3.048016955655232;0.03798307331497898;0.0968695829509533;1.2978361263594838;1.6843786108837902;0.9317693610682489;1.5543936937906135;0.617241468064042;0
1.0421859351895124;-5.479553967019832;1.0861515235068386;1.7027555979881113;0.4523269377705944;-2.750262069747494;0.2045996586329232;0.6069997211792413;0.04102759613319074;2.8783136791875066;0.028805954930151922;0.0938105434893442;1.0209593650812139;1.0423580251470352;1.6888775885807892;-5.778563058025119;0.35619019352804454;0
0.9005352683088689;3.237891444433938;0.8109637694681265;0.5140997172762076;0.473128654984674;-0.7127071279417887;0.22385072416760665;0.5379026789053503;0.040543227065499655;-1.1173063933262295;0.04716019169980623;0.0938105434893442;0.836988838832805;0.7005503163306871;0.49399006431662373;3.7082179978881733;0.3414651138368254;0
0.9331405400677258;3.3271715997132567;0.8707512675178871;0.6861112462238421;0.32520653999035254;-0.635780276892902;0.10575929365249676;0.37902623448638706;0.04091445426274878;-1.0950850661625804;0.04741511165494033;0.0948302233098806;0.7626885165999522;0.5816937733534355;0.562494750107204;3.5124784153428656;0.2972600585108339;0
1.0755605096067438;3.1786900827637403;1.1568304098255182;0.739264002607535;0.22101503457790675;0.46885689799568375;0.04884764550947331;0.22125203209041477;0.02630950135445012;0.004541298577899866;0.030208014683389323;0.058121749770571995;0.7520525653622102;0.5655830610678815;0.5495199495703291;3.613186769657787;0.29163985286152533;0
0.31448142021158143;0.47757522991160783;0.09889856365829326;0.31982123648209515;0.10692135550546944;1.4889458448649453;0.01143217626312698;0.07884591519487039;0.027601683033090907;-3.525334156611665;0.03938513306821648;0.058121749770571995;0.16114781883452536;0.02596861951512501;0.23977379321185976;-3.834928584019325;0.07102286622641338;0
1.3960562642912573;3.15694262061135;1.9489730930668605;0.9194856341202553;0.09771112417648528;1.7889759425313567;0.009547463787832526;0.07251636640405534;0.02840918685906043;-3.213299824829633;0.039894972978484655;0.060161109411644695;1.0968353772850659;1.203047844864073;0.6711817793397001;3.7146266747901038;0.38389422649514376;0
1.6502085235359527;-5.028938885979077;2.7231881711507087;2.613972621012918;0.11809327773121094;0.9594144513637364;0.01394602224530092;0.12417358371832132;0.0272064608457384;-3.1307605242693075;0.0388752931579483;0.056082390129499296;1.2848068615894495;1.6507286715873306;2.1227572427200636;-5.678385423128256;0.37769258072374673;0
1.1656732740139968;-0.9372761197498978;1.3587941817505103;1.4773847815702608;0.2255551508884275;3.309666786766769;0.050875126092301305;0.14740712771044895;0.027341873514411974;-3.163190260000281;0.03925767309064945;0.056082390129499296;1.0063471104732158;1.0127345067577909;1.4348858595320317;-3.026196714001008;0.2730779777728255;0
0.5668832887623282;3.680219862563817;0.3213566630779931;0.38718148771583305;0.2495579063143851;-5.812349503508989;0.0622791486040194;0.4139352143186479;0.030001237718102515;3.5093343241787345;0.017334556949118;0.06627918833486279;0.589556246116249;0.3475765673346832;0.5101310704388915;2.8928072919535985;0.1428101659587371;0
0.5764362627955816;-4.419221803848165;0.3322787650657368;0.856421966512444;0.21920837180359323;3.6315092973566756;0.04805231026878237;0.14679931843333138;0.0059164865862919675;3.1873345750581095;0.004078719282145449;0.0132558376669726;0.5925860100976046;0.3511581793633984;0.8542850552353314;-4.039003431384794;0.1525898153045394;0
0.9869907065003107;1.5226560892330614;0.9741506547179825;0.8065858131448458;0.03656040846725164;-2.101544867900703;0.0013366634672922857;0.04878847045516821;0.010871272622765738;1.369389668132504;0.008157438564290798;0.0265116753339451;0.8895892388556201;0.7913690138877216;0.7186016465826754;1.4564829558484398;0.2717096044516085;0
1.1458010126890525;1.5153265927537625;1.3128599606792581;1.1800148042008942;0.05296623194550583;-1.501036967270652;0.0028054217265051223;0.06347237003298822;0.013252569059435053;-1.554457351652749;0.017079636993983825;0.0285510349750178;1.0462060465483425;1.0945470918343125;1.1113920678273317;1.1265675294450546;0.2945480297487008;0
1.0690905736603282;-1.0513988751695305;1.1429546546893696;1.2252588521650725;0.12044026249518584;1.4698167352263578;0.014505856829909269;0.10427667565198528;0.031167027053284186;3.2250892201877157;0.019118996635056548;0.07035790761700811;0.9680913453364768;0.9372008529153896;1.0358879137277173;-0.3944027259634595;0.30087144407184757;0
1.0376530574959881;1.697930344369043;1.0767238677307722;0.7955182945797175;0.09806088231488923;3.071314848375117;0.009615936640374556;0.08285283530462673;0.029976679098784716;-5.5146512185035;0.048689711430610745;0.057102069950035604;0.9498299249018619;0.9021768862390767;0.6575352805559205;1.857109659836608;0.30723848358453454;0
0.9218379616312926;2.4384048974746673;0.8497852275045364;0.7065198465861577;0.10600674329143146;2.357088211633677;0.01123742962325545;0.09090045447206618;0.03189251386363495;-5.277126334995479;0.05021923116141527;0.06322014887325371;0.8562636168689168;0.7331873815734392;0.5868483476704376;2.500178272927293;0.27078149951461417;0
1.202130469385597;3.013141154557161;1.4451176654252358;0.8522278778691659;0.1170773359964419;3.441501357133859;0.013707102604023752;0.08826875797520506;0.028239792850262495;3.1034848518329667;0.020393596410726994;0.06322014887325371;1.1154253740807636;1.2441737651432112;0.7219514823895956;3.0205431071861355;0.33828476741853253;0
1.1544907766057828;1.124744352906248;1.3328489532678234;1.07298664447675;0.056932280909761226;1.6017131609565265;0.0032412846095879627;0.057348898840964946;0.025614064825289;3.811407948041026;0.015805037218313396;0.0540430304884266;1.0832443765715838;1.1734183793739592;1.0228519154920268;1.039663474702806;0.31357735541182374;0
1.1356564627417596;0.42779625761574636;1.2897156013671254;1.096197700588644;0.12717901220355216;-0.4176400123068831;0.016174501145071265;0.1550130002846637;0.04067657751260456;-2.85083977605972;0.05710206995003565;0.0846334251045171;1.0695065908291885;1.1438443478270732;1.0647091878966828;0.26758527204495586;0.2870464591428447;0
0.6203890146058259;1.508420997632065;0.38488252944358764;0.4724466754452892;0.13226425714378515;-2.0273131288818274;0.017493833717797322;0.17921427256058076;0.03938987643870437;2.7303632008803085;0.034924033853370076;0.0846334251045171;0.5737272142941988;0.32916291642178147;0.4407772660309828;1.3432866277518585;0.1370409744095487;0
1.0268490270434523;2.169380546876841;1.0544189243400846;0.9756830070019689;0.1153224333474213;-3.527027829481275;0.01329926363317043;0.16891616354983974;0.037741930301461675;3.01296286429751;0.028041195064749676;0.0846334251045171;0.9670416101074083;0.9351694756791287;0.9553235711247816;1.8566501271722462;0.27762356425452905;0
1.1115399205038712;-4.577646051316561;1.2355209948737524;1.6971632873842148;0.18646279333451637;-3.151344165673244;0.03476837329811056;0.2684368390993317;0.04705650212498934;-4.627000189444603;0.07137758743754449;0.0958499031304169;1.0714765919603908;1.1480620871190537;1.6866171692595882;-5.110322480815009;0.3307517466638126;0
1.0453092318347101;-3.8220751707615754;1.0926713901588716;1.4883594493570431;0.18838715180375762;0.293960482315871;0.03548971896473201;0.21329991548495753;0.04441073398166169;3.667218734661958;0.027786275109615503;0.0958499031304169;0.9812316434999817;0.9628155382056752;1.3909375613808628;-3.7951314897795463;0.3123987227019409;1
0.8654395953101416;-3.5837137645073476;0.7489856931305816;1.233699786006937;0.1243764489934165;-3.5148023296742714;0.015469501064211936;0.1760009879790625;0.04241998779598973;2.589741002514245;0.034669113898235904;0.0958499031304169;0.7831934197957156;0.6133919328113079;1.1805971671573685;-4.3940212462316595;0.262394679034637;0
0.8030698183367055;1.3945272350015117;0.6449211331233492;0.6384110837849946;0.14459857290135814;-5.74041373517853;0.020908747285109386;0.24048756703033836;0.036214188781801264;3.2083167582208922;0.02345263587233605;0.081574385642908;0.7823943401603647;0.6121409035149724;0.5568041504204566;1.5773504275871488;0.21912044064595;0
0.39818860489478314;3.109118313152237;0.15855416506805373;0.23123238535973512;0.16112380261860496;2.4865808001399987;0.025960879770279166;0.09683512289883067;0.008412358519424932;3.181867932178559;0.00650045885591925;0.0183542367696543;0.3849559645443162;0.14819109463824484;0.30320360220630516;2.891530924705048;0.09901138012822679;0
0.7631256195286527;-1.3341923116998409;0.58236071118099;0.9523399685829652;0.05444779261049141;-1.1065432707618168;0.002964562120155083;0.06969161088000453;0.005449566209450441;2.0878050648926347;0.004970939125114724;0.0122361578464362;0.7255020987302424;0.5263532952619864;0.8788535381437894;-1.0221778998363042;0.17009479410327583;0
0.989999849723848;-0.842552662481518;0.9800997024532417;1.1117511603278265;0.04677371786252379;1.1625891577327678;0.002187780682682977;0.0399586028317509;0.006652385209901096;2.646199227616126;0.0049709391251147005;0.0152951973080453;0.9287763061104984;0.8626254267922623;1.0207710957714515;-0.6383914706702267;0.2252472555835654;1
1.072156775626293;-2.8915338681778717;1.1495201515213693;1.4614000461274879;0.16411535493702828;3.3576812540739134;0.02693384972610677;0.10329858237907796;0.009404439046444774;0.5479849334966733;0.009049658407260125;0.0224329560517997;0.9918888484501717;0.9838434876798076;1.3107998791347772;-2.550168971249237;0.2350425377241424;1
1.0283749722285511;1.2513529726614347;1.0575550835060732;1.0340959357947623;0.1862855384006486;-5.711143547374409;0.03470230181721952;0.30662388949664576;0.021668696023681672;0.2810095812573632;0.023707555827470174;0.0489446313857448;0.9564505399323117;0.9147976353368105;0.9959654956274693;0.6654767730795843;0.22114542458115458;0
1.0128840797464433;1.3676730563021806;1.0259341590037994;1.020373666405722;0.1866325388521906;2.417233375103093;0.03483170455841444;0.14021882438648658;0.024983889692311;-5.396004625723162;0.03976751300091773;0.0489446313857448;0.9115747079119534;0.8309684481047631;0.9578582951194243;0.9734960385162488;0.21264305882795037;0
0.5650248807389435;0.5822932302367665;0.3192531158540574;0.5289380992332156;0.18797997724759744;1.885746035482347;0.03533647184600725;0.17966097884655707;0.026672960863726544;2.7871799448122623;0.019118996635056524;0.061180789232180996;0.5294365263404888;0.28030303542348306;0.483067396244639;0.763464023751764;0.107853877421669;0
1.6148174635775436;1.5971322387536269;2.6076354406750113;1.5557634212364126;0.22047754857166466;-4.273765253253737;0.04861034942417075;0.32281581302238915;0.008786421912722544;-4.387352764477679;0.013510757622106621;0.017334556949117896;1.6036704633056718;2.571758954879028;1.515600383707572;1.8198086849620267;0.3840129999848362;0
1.6483988533072034;3.403138025076988;2.717218779584503;1.076958445534773;0.23636441481955453;0.9283049371567085;0.055868136592990454;0.20887446806040033;0.01794366094125353;-0.5842665643929603;0.022432956051799673;0.037728153359845;1.6318110144155502;2.662807186767907;1.1186766185618477;3.350282967223592;0.378751776688237;1
1.646622202222306;-2.6268239588854083;2.7113646768514372;2.1714152312030786;0.2773532558370373;0.029798526630752775;0.07692482852340506;0.3105566385770524;0.03436159617757159;-1.7798823576034923;0.046140511879269874;0.07137758743754449;1.6303781724510773;2.6581329852049147;2.1695057320979196;-2.79909022827869;0.4275565723364153;0
1.2161149649347587;1.6682413001814282;1.4789356079382692;0.9242470510240328;0.2211676895638076;1.1155407404562556;0.04891514690699278;0.1850754191040645;0.03032154726460535;0.8092515896213648;0.02931579484042002;0.07137758743754449;1.1927188396520356;1.4225782304608983;0.8981377575551046;1.7872251182859618;0.37944387156226816;1
2.1942521979319447;2.076440144131526;4.814742708129169;1.5032169566060487;0.17030690537263368;2.3320230715791386;0.029004442017603205;0.14720955635460387;0.04111725329592319;2.058815920262523;0.035178953808504054;0.0948302233098806;1.697244086200633;2.8806374881430217;1.2166210292896;1.5089494831763588;0.6008261046061182;0
1.9084841566947464;-5.800719640013304;3.6423117763548576;3.1595320654040107;0.18300628311365935;1.6222489464057244;0.033491299659076844;0.18986350083000314;0.041381918808408295;2.727641912269693;0.030590394616090474;0.0948302233098806;1.3991573810546003;1.9576413769595682;2.3067671809348838;-5.763366897572271;0.8017159728564522;0
1.6664413415390786;-5.125307250679267;2.777026744790564;2.61016522456305;0.09972569993945819;-3.2965143657694327;0.009945215228414852;0.14333555455279307;0.03658079150535758;-4.092816274634492;0.053533190578158425;0.0764759865402263;1.1684389121730507;1.3652494914801423;1.7579107242000391;-4.402781824672818;0.7679064581916482;0
1.2056084655215202;-0.6755705304893613;1.4534917721371545;1.447170978415163;0.17192384113967474;-2.4877578564628173;0.02955780715222012;0.23810260513439613;0.03690973345108242;-4.063468285243511;0.05378811053329252;0.0774956663607627;0.7872515326247351;0.6197649756199944;0.5879406507936646;3.198506133173236;0.7694121681984091;0
1.2059280532414793;-0.6768132845050339;1.4542624695947843;1.4474415671488337;0.2187447632929917;-0.6312869129897187;0.04784927146810697;0.24181440473915705;0.037875706912424395;-3.800162077355971;0.05442541042112775;0.0800448659121036;0.8088905138455746;0.6543038633893578;0.6767978156461275;3.0296384513011674;0.8141280837917069;0
1.3223573960145336;-1.5475194570313597;1.7486290827943378;1.7103279534227738;0.18068378130270485;-1.6497608138597037;0.032646628825843675;0.21993504050526658;0.03912474620663639;-4.1409310305514335;0.05824920974813902;0.0800448659121036;0.9321899477390813;0.868978098665791;1.468243888835449;-5.234725543418589;0.6337789273566965;0
1.2253512601581398;0.5403480414615061;1.5014857107711412;1.261378449344995;0.13333300785452112;-0.2032888536871873;0.017777690983533795;0.1537785725143878;0.03662665454702713;0.8583933430364539;0.03989497297848472;0.0800448659121036;0.9348393951432291;0.8739246947117584;0.7625450471593711;2.8106995964905437;0.9388499942483205;0
1.3294477410535728;3.17304345144251;1.7674312961924474;1.0812585904299;0.17920318529473428;2.346945039147263;0.03211378161977887;0.13159029784160636;0.03478482191777786;-3.0162908207153443;0.04779749158764151;0.0749464668094218;0.9477003628459482;0.8981359777383419;0.6392406881306576;3.45669688948184;0.9927444277715854;0
1.1957332692181175;2.2761422438118686;1.4297780511150469;0.9985728576314462;0.29649394315086514;-0.8691782487743911;0.08790865832514845;0.3687049508756025;0.027378292415212623;0.037864397848780484;0.0277862751096156;0.0652595085143265;0.9018322754534026;0.8133014530494619;0.769744999308596;2.101054937365891;0.836391494804745;0
0.6560734211307298;-0.3249100295688869;0.43043233391417984;0.700313279804642;0.34655083982160495;-2.109555314235269;0.12009748458105969;0.4387329907736499;0.02342121163675797;-0.34954716459273705;0.025237075558274723;0.05506271030896301;0.5390163121179758;0.29053858472926314;0.568859868612868;-0.18718989303685873;0.6143639498102138;0
0.7155909618622699;-2.276057656687515;0.5120704246989686;0.9497658174834146;0.3544498109291859;0.30027207701984615;0.12563466846773566;0.345761993504745;0.02342121163675797;-0.3495471645929289;0.025237075558274723;0.05506271030896301;0.3984689920136537;0.15877753759637722;0.5205579006746698;-2.3358630364601396;0.34370094145470825;0
0.644112131954598;-1.662832658276809;0.4148804385310975;0.8358645323984174;0.2625577273594038;-3.8385383104217166;0.06893656019613503;0.3921542082160232;0.020274284751717147;-1.3883346746333345;0.02396247578260425;0.0469052717446722;0.23369976877550294;0.05461558192572354;0.1450034205558699;2.670483742861059;0.17437180144687095;0
0.6692147409702317;3.9298258455165573;0.4478483695318543;0.38187008611634077;0.1903295185373497;3.395434251366826;0.036225325626659345;0.10752825634930474;0.0392322832396679;2.013774737569765;0.03466911389823595;0.089731824207199;0.07242785972648856;0.0052457948645599035;0.0930374140198682;-1.5131479045514098;0.04966148583513627;0
0.08044277273210501;0.22570314583926;0.006471039684829097;0.08282433194898797;0.07166509022054622;-1.5279733358068697;0.0051358851563190295;0.09443578487446436;0.06199675670220266;-2.110323925648082;0.07851534618129913;0.1396961354134802;0.0692684007799377;0.004798111346610074;0.09118610262715077;-1.9532585696872111;0.04755551133709152;0
0.6815653766000471;3.8618743255090884;0.464531362579964;0.39436919461309405;0.1698594127808913;1.7607740512942947;0.028852220110269226;0.15246159947259064;0.06079649425218635;1.9879401059400852;0.05327827062302436;0.1396961354134802;0.4270066650940769;0.18233469203476518;0.27973042828263095;3.6086840766921178;0.2535085365889373;0
1.2815401988212438;-1.466019029112097;1.6423452811947932;1.6565613942203665;0.16758679203909096;-5.063692685641728;0.02808533286595352;0.2646405484362635;0.03884247403182569;-0.12338295902253371;0.041169572754155184;0.0912613439380035;0.8544790151037241;0.7301343872526304;1.038164621814018;-0.3853014424009853;0.39504035133829146;0
1.329063324509769;-1.008109827461789;1.7664093205569593;1.6841111300448537;0.20870717849581039;1.490017722379175;0.04355868635568206;0.13616430283917946;0.04301505152296608;-3.8904684996853813;0.061818089120016385;0.0912613439380035;0.9195655929364537;0.8456008797125717;1.2398092570899606;-2.576068427681742;0.34372158340615716;0
0.7260587216250393;3.479741853039279;0.5271612672477862;0.46657808036130755;0.1332184563813124;-4.470032833159266;0.017747157120619635;0.20311608283664806;0.028323660526547518;1.6038775838627561;0.025619455490975905;0.0657693484245947;0.6071090388566998;0.36858138506150584;0.49819179677596503;2.8662056322491942;0.18952187956102134;0
