acc_X_std;acc_X_kurt;acc_X_var;acc_X_iqr;acc_Y_std;acc_Y_kurt;acc_Y_var;acc_Y_iqr;acc_Z_std;acc_Z_kurt;acc_Z_iqr;acc_Z_range;acc_std;acc_var;acc_iqr;acc_kurt;acc_cv;hole
4.7455634180469595;1.524413121139128;22.52037215470554;3.759489852955682;0.13965322327868473;2.353320816419565;0.019503022772126174;0.12787166268809225;0.034789803364831694;-0.14286756812750667;0.03862037320281429;0.0795350260018354;1.6344093156696422;2.671293811147708;2.047908218197346;-1.3362049887487775;0.29684994755862876;0
4.7455634180469595;1.524413121139128;22.52037215470554;3.759489852955682;0.13965322327868473;2.353320816419565;0.019503022772126174;0.12787166268809225;0.034789803364831694;-0.14286756812750667;0.03862037320281429;0.0795350260018354;1.6344093156696422;2.671293811147708;2.047908218197346;-1.3362049887487775;0.29684994755862876;1
4.7455634180469595;1.524413121139128;22.52037215470554;3.759489852955682;0.13965322327868473;2.353320816419565;0.019503022772126174;0.12787166268809225;0.034789803364831694;-0.14286756812750667;0.03862037320281429;0.0795350260018354;1.6344093156696422;2.671293811147708;2.047908218197346;-1.3362049887487775;0.29684994755862876;1
5.918718265566963;-2.5006554571661166;35.031225907156006;7.960668967531623;0.06698690619036793;-2.390861718284299;0.004487245600957154;0.08812724575599118;0.016871002455158858;-0.5419987072773083;0.01835423676965435;0.0397675130009177;1.5689998612322955;2.4617605645469625;1.673422689420792;0.38259976960787867;0.2551773073460155;1
3.396618501404003;2.9949717213655767;11.537017244079975;2.4071965429536486;0.16642712823286762;0.6751080824277658;0.02769798901183936;0.18435283412062287;0.029720868201703145;0.5132316725887858;0.028168655042316665;0.0713775874375446;1.2439007497869108;1.5472890753204387;1.2776508920057088;-0.04450024419227461;0.2239792827407402;0
1.1149791812990282;0.44603834182128566;1.2431785747302513;1.1355332456812395;0.2789816886638293;-0.6534546048023913;0.07783078260972176;0.3212128795992646;0.020063782184482733;-2.2645592031137767;0.02549199551340877;0.04537575201386759;1.0378800942991866;1.0771950901424885;1.144282786662556;-0.5221119153793641;0.1825001321750444;0
1.506045329225926;1.226184707093287;2.2681725336832277;1.3631250179007846;0.3805291819224579;-0.995432769942175;0.14480245829457505;0.4414960430918424;0.0501762948107617;0.9787844287846106;0.05251351075762207;0.11216478025899869;1.419913023673705;2.0161529947982038;1.3449882690894164;0.847170583921832;0.27813390476573935;0
0.6709442212602157;1.775622854172079;0.4501661480424773;0.5541352236087915;0.4687762262118152;-1.1192345002442057;0.21975115026139092;0.5452023245983573;0.05050311098531372;2.8631209419487327;0.04065973284388703;0.11216478025899869;0.6686984479080619;0.4471576142346509;0.6269994666829346;0.5353672525105289;0.15115318283856338;1
0.548623272107492;-4.0245852829755755;0.3009874946979311;0.7911928050815575;0.5431724357882897;-1.1742761729520623;0.29503629500018363;0.6323317241188096;0.05606442698314211;1.997386039435149;0.0455032119914347;0.1315386968491894;0.5888982173352061;0.34680111038058364;0.8022923279005911;-3.214190120187599;0.14974206738124912;0
0.9825155688235211;-1.134081879644146;0.9653368429806072;1.2029579827943269;0.6035218565188737;-1.2019024467584192;0.36423863129598794;0.7028842416531988;0.06524556608990942;0.4651331290046965;0.07265218721321508;0.1437748546956256;0.6856060777240756;0.47005569381219114;0.8658011578707074;-2.078499303993846;0.17156195086783377;0
0.7797356068307498;1.036662082732681;0.6079876165597177;0.6572519994406889;0.6497385629842671;-1.2166957164201815;0.4221602002288605;0.7568598772015249;0.03816654893894743;1.2855118781781787;0.032119914346895026;0.0917711838482715;0.6455073357634004;0.4166797205243633;0.6236556222236938;0.3997954973172604;0.1583299836428223;0
1.4307668093915649;0.2228397840893468;2.0470936628565184;1.4297009166725316;0.6817802763162635;-1.2246501415712459;0.46482434517388055;0.794258630763788;0.019191934561760594;2.645024700070568;0.016059957173447527;0.042826552462526604;1.2511322410496373;1.5653318845938877;1.3768573778725615;-0.30970862432463875;0.27476092216478437;0
1.3862173322996203;-3.283042555246862;1.9215984923678757;1.8959499161996236;0.6996254082015159;-1.22842786343951;0.4894757118011377;0.8150805023399847;0.018845695114845712;-5.076779328596965;0.029315794840419976;0.037728153359844904;1.3377049588292098;1.789454556876258;1.7605398211659455;-2.7316171940933103;0.2446085560440683;0
1.3389095938350173;-1.9515812357860103;1.7926789004634511;1.669308856531135;0.787940356622359;-0.625158665901445;0.6208500055941701;0.8722549366138324;0.017072660147342777;3.0457965080357106;0.0132558376669725;0.037728153359844904;1.300944473466543;1.692456523043141;1.5622457423945404;-1.4668112809123954;0.23504577258725085;0
0.8844953962624348;-2.17357779363833;0.7823321060094415;1.1394466748350034;0.8097009809563436;-2.188769440777312;0.655615678561665;1.0225226971645776;0.024655737171846093;1.2963930628022187;0.018864076679922452;0.0601611094116447;0.7995538572592309;0.6392863706581146;0.9210068065189878;-0.9528898985612546;0.1346607812934121;0
1.2805406123337528;1.3139667792824756;1.6397842598361028;1.0362827738430616;0.7151590798286993;-0.606769217581455;0.5114525094614318;0.8129359631087821;0.020263597763071014;1.4420371143249415;0.01605995717344748;0.0489446313857448;1.096660366908;1.202663960346789;1.0097208721535846;0.9856973623853662;0.20026851954149724;0
2.2235407448299167;2.2558206576511193;4.94413344391878;2.0674334978617077;0.5163486324553963;-0.4278520382224702;0.2666159102385579;0.5684183791904307;0.025908363379998935;0.3370946575271443;0.027786275109615503;0.0591414295911083;1.4050216703087635;1.9740858940372277;1.3659294505477857;1.4422831405879162;0.3240937896505992;0
2.527070155612794;-4.32168881043337;6.386083571388871;3.81968979419821;0.3586754886816493;-1.2242454530352624;0.12864810618101993;0.4344771949709829;0.02581455288514913;1.4170290005080393;0.024727235648006447;0.0591414295911083;1.5394276273777618;2.369837419933925;2.182081597846741;-3.022762065444903;0.4178380003168156;0
1.8299224457709649;3.7521641423593337;3.3486161575363895;1.1449179218467966;0.303521910713435;0.4786443426922027;0.09212555028313439;0.2879246041394339;0.011667056316464256;-2.519437886161519;0.01605995717344745;0.0244723156928723;0.9101716707926999;0.8284124703135748;0.6924161213784679;3.3480593767987514;0.3052329536166347;0
0.2074445252085686;1.0768332236037796;0.04303323103900845;0.17191385367148926;0.3077755368176541;-1.7507909345375996;0.09472578106339517;0.38272628406689746;0.012264449578646933;3.9082057380704605;0.007137758743754399;0.0254919955134087;0.29441228995014324;0.08667859647368721;0.36797205407012434;-1.6453058963861302;0.11078760860982091;0
0.33761819088539563;2.2577812339471492;0.11398604281672746;0.24488670316167138;0.22719855976169093;1.3516312324763167;0.05161918555778664;0.17369683957350368;0.0509907884391572;3.994669332290737;0.026511675333945176;0.10298766187417151;0.23431629696810205;0.05490412702484379;0.24238945166782244;0.25940740773515003;0.08405238527664959;1
1.015716482298236;1.6791442899996785;1.031679972412303;0.9989781671099018;0.15794168985884502;1.843176530445069;0.02494557739546759;0.12864623476880155;0.05075916575773892;-3.921722457057122;0.07596614662995821;0.1019679820536352;0.29476981157817284;0.08688924181783152;0.2731666940944919;1.4572574176464972;0.09739636551769508;1
1.4470380542218646;-2.4475314620910993;2.0939191303661997;1.8944973608990607;0.18744482578354368;0.09173484664492726;0.035135562713023046;0.21325198940388468;0.04204556728871046;0.9846793117793613;0.03747323340471098;0.10094830223309881;0.6088498357649477;0.37069812251100376;0.6434270438870446;0.9588971957155898;0.1790759408037334;1
1.7229561067995987;-0.6137198093396901;2.96857774595803;1.8882920679864372;0.09318177490577628;2.4996001641140033;0.00868284317459076;0.08280583836649758;0.035601285306609755;0.4910990261519874;0.03364943407769968;0.08565310492505361;1.1069806837219076;1.2254062341334222;1.244315334417903;-0.45020779814282896;0.2765730954169336;0
1.1409271938270393;-0.9169596756389513;1.3017148616140426;1.3395194815979004;0.04940747733343209;1.0961659794360425;0.0024410988164536057;0.0424732129155565;0.026464243938747342;-4.1837463594680955;0.040022432956051804;0.0530233506678903;0.8741065101499257;0.7640621910864822;1.0390057310117022;-1.2698792308052713;0.19337681890496736;0
0.6494437662552507;-2.5802903634908105;0.4217772055278046;0.8583376883566745;0.12378381308163201;2.4519497424947474;0.015322432381028412;0.11258382715458337;0.01783893345255516;-3.2320031572176227;0.025619455490975853;0.036708473539308596;0.5716823700042332;0.3268207321736569;0.7994616945044477;-2.8128228000640405;0.12073255056392014;0
0.7974972278292952;-1.5410704491179512;0.6360018283954109;0.9585440635590734;0.1820865558856303;-2.6962084610071155;0.033155513834290766;0.2440523774721779;0.018529834439481023;1.4858138192881327;0.012108697868869124;0.0453757520138676;0.7710813300247473;0.5945664175127333;0.942093655088204;-1.7306645077514045;0.16790078911878104;0
0.7620426454242939;-1.5659216194125687;0.5807089934452562;0.9252636124511473;0.19016933662045135;-0.772375967056103;0.03616437659066254;0.2180219454582888;0.02578054630346244;-1.5901552148653249;0.031482614459059796;0.058631589680840104;0.7351905447733126;0.5405051371240801;0.8847356358315026;-1.4168387000707199;0.18136141375037093;0
0.446504136359703;1.9277730558431578;0.19936594378632425;0.310606437579374;0.11301761709293594;0.5366834515745413;0.012772981773365485;0.1274396571082521;0.026818338536651484;3.1560096988531683;0.020775976343428128;0.058631589680840104;0.4253143573638629;0.1808923025798357;0.32622194718662545;1.9323393413609118;0.11472541879665006;0
0.44246299584192567;1.9057832768847227;0.19577350268941193;0.30838297606457976;0.09573375083874062;1.673715795901705;0.00916495104965407;0.06712716553031317;0.011566363840232102;-0.09467368251496744;0.01274599775670435;0.026511675333945002;0.33506188721084706;0.1122664682612944;0.2759353783307601;1.255765504085531;0.0916232969535699;0
0.9286517743186595;-0.3223540813212864;0.8623941179451946;1.0534694147397219;0.20544132763836642;1.7471312909473156;0.04220613910181462;0.20926911555453365;0.021078864394430647;-2.034746070029989;0.0275313551544814;0.0458855919241357;0.7206958550199666;0.5194025154429607;0.7984901057973448;-0.07439984847927228;0.18152813363179615;0
0.8422797676450473;-2.819632840093824;0.7094352069841948;1.183703540977298;0.29561096715575813;-2.614941444938374;0.0873858439027627;0.38782535043351696;0.016827291790879332;1.3748631063582941;0.01325583766697255;0.040787192821454;0.6350944328376418;0.40334493862136583;0.8761339288580543;-2.844887949973847;0.1459264268076486;0
0.4817160393535415;1.8109004511347901;0.23205034257046278;0.4815353115754366;0.3761023956441891;0.0014801487517281942;0.1414530120092982;0.38569241480438143;0.01954312431455764;1.7569161498150407;0.014785357397777078;0.0469052717446721;0.38033157200684614;0.1446521046651988;0.4978272251440785;-2.23597937832435;0.08332645960529302;0
0.6784739935041341;2.906175431818891;0.4603269598614477;0.5835667823432225;0.39106090020316125;-2.422748365827969;0.15292862766770685;0.5041860379047937;0.02027428475171706;-1.3883346746329188;0.023962475782604152;0.0469052717446721;0.7521160738259967;0.565678588507432;0.701237571995379;2.2418239291538278;0.17246630550019043;0
0.6244247669395909;-2.0131034881083796;0.3899062895675624;0.7889383176503806;0.32314555301457865;-0.26586892640059645;0.10442304843309785;0.38645679059164084;0.013347033694348774;0.4189843903768615;0.0132558376669725;0.0316100744366268;0.6785394054702518;0.4604157247759228;0.8628674467641981;-2.2376024293390557;0.16649355867520868;0
0.46530282275255963;1.0568256613227476;0.21650671686149994;0.4191139852238166;0.15547801261519803;3.6908806842805575;0.02417341240677168;0.108658747385732;0.009404439046444705;0.5479849334969416;0.009049658407260125;0.0224329560517997;0.4828219208524397;0.23311700725563952;0.4258549484934133;1.3232519000075609;0.12798174281686198;0
0.667939588319022;1.8537422806807768;0.44614329364378463;0.6287674436075239;0.05321996186062214;2.3331733096180187;0.002832364340446075;0.03558091801835295;0.01307402248991276;1.84249860694635;0.011089018048332825;0.030590394616090498;0.6584706567794483;0.4335836058395579;0.6098922207133519;1.975135507897269;0.20306083577475958;0
0.7292880759536692;3.636632288676431;0.5318610977282048;0.522652798298294;0.11360819582921118;1.1033027247713783;0.012906822159568397;0.12372306959149626;0.014965198221995109;0.3978920944242219;0.016952177016416797;0.0326297542571632;0.7108069858915598;0.505246571192244;0.49616987719277894;3.7031120940021793;0.2112456936945419;0
1.1788002645976323;1.3406954811776775;1.3895700638154478;0.8789168405080314;0.14313915458631307;-3.183514694210176;0.020488817575684434;0.19446502196706;0.014344392159880705;0.9443690422984705;0.014657897420209974;0.0326297542571632;1.1455597848147479;1.3123072205848116;0.8265021059184714;1.394292648058288;0.3100156483719996;0
1.1910517243822885;1.3581008966841548;1.4186042101540226;0.9583555920634783;0.11744393878153572;0.8764735087531506;0.013793078756521112;0.12337125423009482;0.01683758686176648;2.842890107065351;0.013255837666972576;0.0377281533598449;1.1566720856485884;1.3378903137186555;0.9276168384884853;1.3312440606788023;0.3033436934988645;0
0.9110309575719063;0.9577495783665615;0.8299774056543846;0.7896872407858249;0.08551009407297509;0.8676715353083875;0.007311976188369051;0.0760215439710879;0.010543541938918434;1.3075574892973219;0.009941878250229423;0.0244723156928723;0.9108923514011641;0.8297248758411419;0.7792591330893508;0.9995427832673016;0.2299401622650391;0
0.9759775176414189;-0.780546615987344;0.9525321149415061;1.1479479250420441;0.1472094568203739;1.027268232269213;0.021670624177349523;0.15467391089920257;0.01549988795101476;-2.1399277675009625;0.0195013765677576;0.035178953808504;0.9800814826532364;0.9605597126397661;1.1618945222556678;-0.8505011164630929;0.2556365060937088;0
0.7964623179487155;0.45233298057290483;0.6343522239122408;0.7579132921798841;0.22667438399162632;-1.3830218163424437;0.05138127635798326;0.2760043075599752;0.020331364720699855;0.6144739942130126;0.020011216478025878;0.047924951565208394;0.8018822615546591;0.6430151613960148;0.7515149707616948;0.5405381710233979;0.25931691022672293;0
0.5032481936682697;-2.6142803332019433;0.25325874443037627;0.6608900318531847;0.22741710956539868;-2.0359287785312112;0.05171854172308055;0.289946174432035;0.009649991450365906;1.5443939558475162;0.0070102987661874;0.0234526358723361;0.5033189365960755;0.2533299519362043;0.6653098145688805;-2.7300336823810127;0.18846064610053792;0
0.5561750462559442;-4.92418531756625;0.3093306820778016;0.8583808464506455;0.13580512188635757;2.635053084399889;0.018443031130568437;0.1053473674408543;0.010911050555232334;-3.021652905169667;0.015295197308045273;0.0229427959620679;0.5545822479554989;0.3075614697473745;0.8540832814277306;-4.882992719932933;0.20287548044415799;0
0.5617835118711404;-4.884749534115402;0.3156007142102717;0.8627860953145423;0.0381336635184388;1.6459978288012262;0.00145417629333751;0.02587305315822408;0.016772493269701216;-1.4462479964905643;0.02026613643315997;0.0382379932701132;0.5608173846444798;0.31451613891947444;0.8589887995778525;-4.840690160606638;0.20478890000806527;0
0.4112033179403928;3.629576848992759;0.16908816868518775;0.22460012165752286;0.1291534026550409;3.1463461888739097;0.016680601417375127;0.10730358007979912;0.020074036017752667;-3.111545518314861;0.027913735087182624;0.0428265524625268;0.41201568192300986;0.16975692215048285;0.24195078890753674;3.681578435390609;0.1374548289477141;0
0.18071169428679787;1.5483565219545685;0.032656716452005095;0.19071457922562773;0.1561830221388676;-5.996962640104745;0.024393136404430003;0.2692566430385624;0.02096086984875266;-4.637197937018488;0.031737534414193976;0.0428265524625268;0.1853839952639733;0.03436722570003288;0.17714734106303398;2.1043569292625453;0.05634376069948286;0
0.3509043311132806;1.2654590580328886;0.12313384959405889;0.304494718690572;0.15077484464162336;3.14995037879104;0.022733053776705658;0.08672288952844004;0.01973723685932904;-3.5684198528388666;0.027531355154481553;0.0428265524625268;0.3396007613930855;0.11532867713876337;0.28042782921763143;1.3390499036839465;0.10655978076878617;0
0.34363396421131936;1.5721831733420064;0.11808430135958632;0.22870708709406662;0.07429348058078747;-0.8485111228791649;0.005519521256807845;0.09409795938493953;0.017332057553683024;-4.211586453311645;0.02574691546854293;0.0356887937187723;0.3359466729297694;0.11286016705258144;0.24132301830285474;1.5209262114887068;0.1058461233657327;0
0.5114908942814733;-0.6661085756517373;0.2616229349328613;0.5677949220624354;0.0873732340890971;-1.9918896871589862;0.007634082035188159;0.11045097587802621;0.012320838149887403;3.7067930193280745;0.008667278474558952;0.0254919955134088;0.5093269559671462;0.25941394807475926;0.5481215097728;-0.3988213738949469;0.15138034616992307;0
0.8081181044246281;-0.16455259595773164;0.653054870698854;0.84055715329503;0.07018736117540836;0.3885707860623331;0.004926265668767221;0.07099170994686133;0.013408563473419914;-5.290172739149607;0.02166819618639745;0.0254919955134088;0.7852675645809453;0.616645147982889;0.8305745988430342;-0.2953229931690604;0.26217826036027325;0
0.8369038654407646;-1.4999900272448663;0.7004080799896933;1.0061465419791613;0.10697446132571314;2.195099211363562;0.011443535375926496;0.09100258504246195;0.009903675799145797;3.8002222527434846;0.006627918833486273;0.020393596410726997;0.8183808213977244;0.6697471688316141;1.0042650327588376;-1.6733149992054788;0.27861956327631854;0
0.9395407190831293;2.1539833850510544;0.8827367628152437;0.889915372465572;0.22387922257736126;-0.8258009692236126;0.05012190630184366;0.2736060754750283;0.011216478025899845;-5.835393757257138;0.018864076679922473;0.020393596410726997;0.9388681906507356;0.8814734794157859;0.8447374223109323;2.258445062252987;0.36222815181198825;0
0.5169615526021386;1.2350195414287306;0.26724924686881374;0.41456847536739616;0.31224873617468124;-1.2539470082280122;0.09749927324268569;0.36465153069354656;0.00956544460043524;-5.111570247934342;0.015295197308045246;0.018354236769654298;0.5382892677461898;0.2897553357707292;0.4982830383344039;0.7609352771848243;0.2816226472603121;0
0.6181558066865448;-1.3799107341189156;0.38211660134029296;0.7956239623587233;0.290305343572347;-1.3623881200733585;0.08427719250665844;0.34365488508504777;0.010398734605063265;1.4999999999997211;0.00917711838482715;0.0244723156928724;0.6262605319127661;0.39220225383166074;0.8026676172844207;-1.177357782694246;0.3713908113894106;0
0.40689254298748123;2.181569814490876;0.16556154153881927;0.2895020346978936;0.24256634231970134;-1.0073989403768433;0.058838430426358536;0.28249085485346914;0.010072833358986713;1.0591311082438128;0.008412358519424845;0.0244723156928724;0.38249182304994145;0.14629999470006771;0.2520446433166934;2.640750975902723;0.29476246174423554;0
0.6507303272737306;3.1369117622616116;0.4234499588337765;0.41694982318448437;0.19259772857758026;-0.5291097046027016;0.03709388505324327;0.2121082724559779;0.014104547038677424;1.8875244327355691;0.010706638115631648;0.0336494340776996;0.6532155507217196;0.4266905557046794;0.3912720177820963;3.4521785619239687;0.45461489848408543;0
0.6407862498285268;2.199273708247068;0.41060701796930726;0.5369389899986134;0.11039506478765508;0.3345698004500548;0.012187070329470563;0.11202098053149073;0.0145282011305955;-1.06709699337528;0.016824717038849826;0.0336494340776996;0.638377213159275;0.40752546628100234;0.5381673374084577;2.3855332316759075;0.42964645715908883;0
0.6657748414844586;-2.632324796745383;0.443256139553656;0.8783084441897271;0.14114092507323883;0.5782183373704513;0.019920760730529615;0.13195223764187514;0.03236312326207164;2.7088715403169417;0.02651167533394515;0.0723972672580809;0.6491645834516273;0.42141465640792486;0.849250201520064;-2.6104091336765833;0.3803400058945128;0
0.49118475033063574;1.3479745003351002;0.24126245895736895;0.49345988228976534;0.1461565179299041;-0.5453259696412971;0.02136172773339438;0.1628754735835179;0.03304140256147573;3.5561269841269727;0.02039359641072705;0.0723972672580809;0.4949113851996076;0.24493727920019434;0.5293099011489288;0.8255134584363422;0.2360157287450261;0
0.4671193417794885;1.914841266781938;0.2182004794645026;0.3781574081709329;0.19990403092287737;0.38525001455295715;0.03996162157921471;0.19690756303092266;0.03125586172759165;-4.309195569343316;0.04716019169980615;0.0632201488732537;0.4742041176241723;0.22486954517171984;0.4426988238843004;1.395956469989649;0.22929767997297998;0
0.455745741591141;1.8365104423138288;0.20770418097845908;0.37200796528996083;0.2610306475654427;-1.2642256766637878;0.06813699896843436;0.3145099857704656;0.02657043789292411;2.5201099251476613;0.021923116141531467;0.0601611094116446;0.391890429910537;0.15357810905546554;0.3971781280653155;0.45913049565931274;0.18541435434949768;0
0.6211351235361523;1.0187276635769589;0.3858088416902712;0.580174671316481;0.17073019101972722;0.7664572219764239;0.02914879812563255;0.18225144740208898;0.02222145695530018;0.7988571921555518;0.022687876006933724;0.0509839910268174;0.5762217191423376;0.332031469611351;0.5163130452268283;0.9400328562481857;0.24595796588640909;0
0.6789596339840743;-1.5777615026501444;0.4609861845797882;0.8734579097603872;0.06883575152505689;2.813755272374358;0.004738360688019372;0.04385135295163112;0.021144530797723705;1.1607896160086923;0.0193739165901906;0.0499643112062811;0.6362997770895172;0.40487740632416935;0.7844287000816454;-0.8772997768929915;0.29735803491481305;0
0.7139903912639819;-4.1952557211315895;0.509782278817294;1.0614477421074096;0.07368749568281983;2.9376487418379185;0.0054298470200055925;0.046371975554029055;0.03293634219197339;-0.6401545386805854;0.03619863362904035;0.0774956663607626;0.6650850923186781;0.4423381800245445;0.9636235429914446;-3.701821003325856;0.30236974726868515;0
0.6569496095426809;-3.949428476723112;0.4315827894782809;0.9683400386430043;0.0781869502673562;-3.602519375647276;0.0061131991921100325;0.10934529324160402;0.033410402299480634;2.1018680842610404;0.027786275109615573;0.0774956663607626;0.6237209486718954;0.3890278218121692;0.907819115262094;-3.5093385175546175;0.2789588970585779;0
0.4960142231109603;3.0354558712320063;0.24603010952836946;0.344774199881418;0.05876024387504174;-2.5713953486031134;0.0034527662602543796;0.07665492586405787;0.03684041713018375;3.035767459864516;0.03161007443662685;0.0774956663607626;0.4479649862743997;0.20067262892782312;0.2823667290554186;3.1888630794710195;0.2396540749320303;0
1.06942696709835;1.5483616894797567;1.1436740379571753;0.8540762403784281;0.044749898204374715;-1.5948703799568023;0.002002553389301899;0.05550846650470265;0.00932231273709423;2.9821164621782756;0.0053533190578158515;0.021413276231263403;0.7375019530255987;0.5439091307165724;0.6190049998539318;1.0298455876259105;0.45326740749834515;0
0.8104636302662822;3.5609553021161524;0.656851295984401;0.5758865266881077;0.03161179983174207;0.8415794885022425;0.0009993058886021279;0.031692066056778656;0.01089913241890075;2.0878050649028292;0.009941878250229456;0.024472315692872403;0.4675097706034586;0.2185653856096985;0.3843273155383298;3.0605600550698604;0.32967372063694395;0
0.7320634912064938;2.205653693330536;0.5359169551574402;0.6608670979645517;0.024331889274154417;-0.08094718936413159;0.0005920408356497108;0.025365564893516268;0.003432753794351693;-0.16089965401570794;0.0035688793718773072;0.008157438564290805;0.4163592236276485;0.17335500309981822;0.4320179434931435;0.6087492706923125;0.32107330378948934;0
0.8147017872991564;-4.011950594918487;0.6637390022284398;1.2225595488748522;0.03809393865229652;-0.502167143801385;0.0014511481620449308;0.04124010457748095;0.041010697570507904;3.9485519296992813;0.02268787600693388;0.0846334251045171;0.44071341217471965;0.19422831167068433;0.566428213765154;-1.6287108584846077;0.39233352780275343;0
0.8215850788544352;-4.032084591350946;0.6750020417962485;1.2285721543120107;0.03972127369814851;-0.33656027602737026;0.0015777795842032247;0.042260744837317454;0.06698447280602189;-2.937686258804508;0.09444784337717946;0.1391862955032119;0.43867728582438603;0.1924377610982501;0.5646995320419844;-1.6115229706728051;0.38992086538855075;0
0.5234413680063502;1.2049139137217448;0.2739908657403594;0.5582828989841808;0.05618536203928041;-3.3045853704878994;0.0031567949074850117;0.0769859560788646;0.07429141951664943;-2.926738994936011;0.10031100234526347;0.162638931375548;0.2473062709102491;0.06116039163153352;0.1878304919080126;3.5112249456798494;0.2785715530330347;1
0.9516274978848912;3.167315143469583;0.9055948947306587;0.7802427025493688;0.0966958687003652;1.0985124412968972;0.009350091023718267;0.08047308589162494;0.07654888722556825;-3.3972755583650063;0.10795860099928617;0.162638931375548;0.5976124362272077;0.35714062393341844;0.36380709683836676;3.919749036082049;0.5618018867678928;0
0.9440042462472916;3.225904785933462;0.8911440169329171;0.7510811642811883;0.08550884605614399;-4.591499402518359;0.007311762753853331;0.12805400798331412;0.07660206798649741;3.8107771340216026;0.045248292036300576;0.162638931375548;0.6484758811563356;0.42052096844148584;0.3534621008864074;3.6472525377027623;0.6514245323131727;0
0.9391534028367906;3.27040445318368;0.882009114059923;0.7455882253140476;0.07329547390897379;-4.695013942612807;0.005372226495541057;0.11204734477851741;0.020348936518277853;1.9069761026838403;0.016569797083715698;0.0479249515652085;0.6556953466250307;0.4299363875857191;0.39191195397419065;3.7094277438818537;0.667267828587464;0
0.9280090063041136;1.9397038296465556;0.8612007157815484;0.9215365498595223;0.07100167342084109;-4.718272916615593;0.005041237628559771;0.11013745568711852;0.03089899066891349;-1.3421851082308542;0.03900275313551542;0.0672988681553991;0.6447322232439034;0.41567963968902655;0.470524705293512;3.2969484531053865;0.6390693235636546;0
0.3976809409287396;1.7743208334040563;0.1581501307779677;0.2896738070972824;0.11355683881716627;1.4939095114009202;0.01289515564214788;0.0725450997162389;0.03743390538203006;-1.298067710085446;0.044993372081166425;0.08514326501478531;0.17307336256460124;0.02995438882941791;0.2152846318528141;-1.889618707258954;0.22965567731435882;0
0.40563201723324926;2.2899370455408636;0.16453733340471505;0.2867909944946479;0.08342573970370619;2.594860100381311;0.006959854045110539;0.05188814643942985;0.020902918184583456;-0.3751860809745118;0.02230549607423262;0.049454471296013006;0.13423548740354577;0.018019166078467496;0.18879569368055849;-3.4283437909970083;0.1720725051975918;0
0.42695318759150086;2.77406335811148;0.18228902439454334;0.3412517908467902;0.10622928339425673;0.9458844736857088;0.01128466065045731;0.10486931298441815;0.02602140524533367;0.5754368349901391;0.025364535535841677;0.0616906291424492;0.14143523085423051;0.020003924526789483;0.21047352969273192;-3.9278277831909882;0.18299669178833738;0
0.1286878169956069;-1.5546095243075975;0.016560554243094813;0.16942414219310964;0.13777342058334938;1.7235225371332472;0.01898151541923648;0.11870098295612097;0.025185523925323458;1.5005122163589757;0.015422657285612304;0.0616906291424492;0.17289011831222698;0.029890993010015843;0.10830867925119991;2.406651361365615;0.24911010597087183;0
0.7335613471070183;3.853099943998945;0.5381122499694634;0.3919679712717781;0.10773578809390535;-0.24331593855825773;0.01160700003621488;0.11951129103548169;0.014741340159886693;3.6337080195059315;0.010706638115631677;0.030590394616090498;0.339644603016584;0.11535845635829295;0.19434955441636592;3.474942956917385;0.43540171703386743;0
0.7250690460815009;3.7536239418710835;0.5257251215855376;0.43146309360407287;0.2448465465270296;1.8379403960090013;0.05994983134621287;0.22848787753285293;0.013981145305192209;-2.2516976007233396;0.018354236769654225;0.030590394616090498;0.47702617258638047;0.22755396933241126;0.3852844897547911;1.4094905468426742;0.7336491254826034;0
0.716743384444263;3.8384734948350925;0.5137210791446166;0.4216404955948831;0.30829526297526494;-3.6063631034359744;0.09504596917298776;0.4332733474824786;0.027736337645229047;2.2550826023685584;0.025874375446109828;0.0606709493219129;0.5012766859740062;0.25127831590108246;0.42985920576802317;2.131944157507542;0.8791304800191163;0
0.9588300777912765;1.7755902276849742;0.9193551180772253;0.6964633037670838;0.22818190786776443;2.212092980234745;0.05206698307817293;0.14531497908679764;0.024657054967507388;-1.384197044678352;0.0294432548179872;0.0565922300397675;0.5595442226927355;0.31308973714881755;0.8465503021096461;-4.7474242656086645;0.7890984607778184;0
0.6877264990592254;-3.236966145134547;0.47296773750825877;0.962587773630733;0.2785359730117149;2.650701964608423;0.07758228826158278;0.1720860456190911;0.028114870567201022;-0.8957375440132758;0.031737534414193976;0.0657693484245946;0.7043163767983487;0.4960615586263535;0.9423486185113445;-2.5851931865806197;0.8750452782493237;0
0.5799362772607389;1.2802593923100503;0.3363260856830446;0.5829802075796893;0.3165370744265741;-4.36012088781461;0.10019571948653451;0.47291431400604883;0.027477801349253414;0.610214376744711;0.026001835423676952;0.0657693484245946;0.5888245522426563;0.3467143533237646;0.633060317901196;0.553986495337389;0.514865804667062;0
1.3748728203632379;3.5619746494780387;1.8902752721735643;0.8759491607077852;0.21350779350826257;-0.7030886350312073;0.04558557788876689;0.25397257823682373;0.018918541737256128;-1.1897007594923341;0.022050576119098574;0.043846232283062996;1.3617031563584379;1.8542354860365322;0.8856092915612523;3.4300503143078664;0.6540962088255553;1
2.1226819074584857;-2.8241050295387105;4.505778480251595;2.973782996481589;0.17166790824814548;-2.6947457579545073;0.029469870722293692;0.2291555416891875;0.026447459047603667;0.4348356278814265;0.026639135311512147;0.0622004690527173;2.088547801768788;4.362031920273236;2.9108484177047727;-2.746194962357176;0.6380976526184414;1
1.8186647677376644;1.3225598405398227;3.3075415374102928;1.4201871422439951;0.128857357868354;1.6138460872342666;0.016604218676813057;0.08248849044513396;0.019686137486870356;-1.046296145151402;0.022560416029366773;0.0458855919241358;1.7936236099639495;3.2170856542201105;1.4043929484282356;1.3030041242031007;0.4751022873228477;1
1.2196872618452577;1.859926640310137;1.487637016707582;1.028531619176622;0.13750809932236654;1.7274339821948637;0.018908477379249826;0.08743493484910009;0.02005946321291524;-1.7048521389607032;0.024472315692872445;0.0458855919241358;1.208922852530093;1.4614944633694968;1.0198314701356082;1.896901239512406;0.2906205516064904;0
1.2892013179757356;3.1292089860863292;1.6620400382703735;0.9658345168896076;0.24246827668973664;-1.1925640816736411;0.058790865200890684;0.2854206135411762;0.03107375615550624;0.7013188700141111;0.031100234526358697;0.0723972672580808;1.270678708602248;1.6146243804950766;0.9152895303659787;3.189298800627533;0.3188217814551433;0
0.4011443164576255;-1.5343739505362866;0.16091676262625557;0.4827128447053326;0.22954854333491065;-2.181215319373095;0.05269253374717935;0.2955871435438661;0.023715320934350755;-0.07669783275510511;0.02472723564800647;0.0560823901294992;0.37114296656096435;0.13774710162767312;0.4842987434436643;-2.5245103507829736;0.11473824813322855;0
0.8397061814057909;2.4042688031915187;0.7051064710910949;0.7242916015996586;0.1502213275167888;2.023028184835594;0.02256644724090633;0.1493352678845834;0.017807942486563526;1.2274119860256594;0.01886407667992245;0.0387478331803812;0.8343395990317961;0.6961225665125382;0.7392772426719074;2.4421063104999288;0.2390883169688622;0
0.842457652229775;2.3766178125011255;0.7097348958005045;0.7361891488183039;0.06496183523098088;1.761405711072344;0.00422004003657711;0.04282287802575513;0.016847875641743826;1.775899314361375;0.01682471703884975;0.0367084735393085;0.8231486184610013;0.677573648074255;0.691994001598434;2.552929049806046;0.23482086296673046;0
0.8815107846969202;3.766225584117528;0.77706126353698;0.5161029996646405;0.05117926101195448;-2.9777346556450084;0.002619316757729764;0.07215053170755859;0.033736868750015366;3.4578816422146836;0.02549199551340875;0.0713775874375445;0.8570306540547419;0.7345015419894986;0.4955199644332806;3.7261514591906426;0.25077829064733814;0
1.1900154201721367;1.6816961991518404;1.4161367002474672;0.7680164713914412;0.07675964851059629;0.21575513010725622;0.005892043639470286;0.07670312306070759;0.03331821042272106;0.0963852086453052;0.0392576730906494;0.0713775874375445;1.1204544739900546;1.25541822828433;0.7130931824681648;1.772513389613854;0.3501518474410823;0
0.7611985827709434;2.2065531105531395;0.5794232824124929;0.4975692883870799;0.06256109165273231;-3.9070925331591795;0.003913890188781573;0.09257912671456159;0.03230416910930445;0.3891238601382856;0.0372183134495767;0.06933822779647181;0.7073382648506619;0.500327420921945;0.4582718744587022;2.0247922501289057;0.2401755216238373;0
0.9170188784401399;0.67614429768709;0.840923623415612;0.9862255552628341;0.05679601640176933;-4.943942376431153;0.003225787479110051;0.08872892121756626;0.03552209950031678;-0.19265983266979525;0.04002243295605168;0.0805547058223717;0.8550099209223218;0.7310419648755948;0.9487063373837539;0.36860861540210976;0.2720913540205415;0
0.9302485150067199;-1.2285553137516665;0.8653622996722077;1.1542652626194605;0.06542049670290175;-5.904801579629243;0.004279841388854379;0.1099640139667114;0.016620051226535558;2.113675971216251;0.010706638115631625;0.039767513000917604;0.8709495781636362;0.7585531677034157;1.1171404699097045;-1.7048006769803425;0.28220604466954735;0
0.6519252350879471;1.3130474083349295;0.42500651214447505;0.5656507328846736;0.172290760777658;2.5854934269177683;0.029684106249344182;0.10639923413834296;0.028785268154734468;3.180857668112907;0.017079636993983825;0.06525950851432641;0.6175774386940377;0.38140189278388786;0.518342199429477;1.6124351065130895;0.16859376582390734;1
0.6536456578506318;2.086014772724477;0.42725264602698515;0.4721884033393424;0.226400439371954;-3.372164989623215;0.05125715894781382;0.3288640405778289;0.028906918800881067;-1.9193923330455647;0.036198633629040425;0.06525950851432641;0.6177657687359783;0.3816345450219542;0.5039295651324367;1.7536768605771922;0.16842428799792108;1
1.3519118836939799;-0.1980950909669872;1.827665741273005;1.507725396419692;0.2766330542686359;-0.1368694912040258;0.07652584671399405;0.29086140685657413;0.03799248194669378;-0.5625707436441587;0.04206179259712445;0.0887121443866625;1.353619763061504;1.8322864629506828;1.4337545494668014;0.363382497139936;0.45240657159648123;1
2.019134524455911;-4.098593332051845;4.076904227849797;2.946094712526615;0.21518702736520623;-2.056529437430415;0.04630545674627402;0.2705512901107715;0.04442633928243993;-4.519664731021614;0.06806362802080138;0.0887121443866625;2.008566180345419;4.034338100827386;2.9424936056937288;-4.183062589158679;0.8711118795948234;0
1.5799738900137175;2.5363171803734765;2.496317493125079;1.1637832107894095;0.14200211223497458;1.4312690937010952;0.020164599879194316;0.14243535803863755;0.029868091191754428;3.0887764139512583;0.024472315692872372;0.0642398286937901;1.5687637859849164;2.461019816217729;1.1589692019941227;2.6169022763909133;1.086681000750332;0
0.5038687490138666;2.74907956949502;0.25388371623279893;0.37815200998732135;0.05040259485739672;-0.2816693883449872;0.002540421568358874;0.05409475279601386;0.013841003324664224;-0.158116534633006;0.0160599571734475;0.0305903946160906;0.4787523587745435;0.22920382103218917;0.3676374291839003;2.571308999604451;0.6300499239259463;0
0.7464951982578637;-2.4765041349155705;0.5572550810220472;1.0126194544541587;0.07814394020403491;1.8040177596930516;0.0061064753906117835;0.07048796872114743;0.012075781872465555;-1.370598085287444;0.014530437442643079;0.0275313551544815;0.3915776387881002;0.15333304719886387;0.3645175199558137;1.8523140518160588;0.6240473527602978;0
0.7989827538004901;-5.004123934067856;0.6383734408706147;1.2445209526463779;0.19849276811530533;0.6321519501976098;0.03939937899407637;0.21914330167769375;0.009565444600435192;-0.15289256198077616;0.010196798205363525;0.022432956051799804;0.22958528813029594;0.05270940452587101;0.27456073803681136;-1.340595155726831;0.32000740104874753;0
0.709755502114936;3.280038978472227;0.5037528727824249;0.4550535112790196;0.25634764621430445;-2.6137511491887455;0.0657141157196142;0.3352011053970878;0.009134532918919443;-0.41610621014519644;0.0099418782502294;0.021413276231263302;0.2207536916923509;0.04873219239580152;0.17491985747946903;1.7978931380932028;0.33694453752353226;0
0.47216337676408693;1.9260184789446892;0.2229382543572651;0.4577813407360459;0.16311368079973343;1.84855634187198;0.026606072864037326;0.11418504443357641;0.011228782751726719;-2.7164748112570862;0.015231467319261725;0.0242173957377383;0.41678015807018437;0.17370570016100786;0.277488861640795;3.2179135098406917;0.550036155748058;0
0.7556135954702737;-3.7766340378131105;0.5709519056595145;1.1083854782070013;0.1537857966355272;1.7116547386076189;0.023650071246823723;0.10898462046545188;0.029325306614495856;1.7050477229720507;0.027850005098399105;0.0662791883348628;0.6693389055891438;0.44801457053527277;0.9424072509089225;-3.339301351211363;0.6312654128244294;0
0.64227316812677;-1.6125880092925993;0.4125148224955983;0.7759570642108155;0.22199867300933915;-2.3956729605657934;0.049283410817907485;0.28536794332901805;0.02738412680992196;1.450139780872668;0.021349546242479853;0.0662791883348628;0.5736040484515441;0.32902160440000133;0.7462296452173514;-2.2754958031809096;0.4982785394403161;0
0.45519101761919917;0.34664696512025905;0.2071988625212021;0.4738020482359322;0.21178751339186921;-0.1079301452611432;0.04485395082871118;0.2208480112255482;0.020142844019415275;3.536667601403213;0.015104007341694703;0.0420617925971245;0.45608550520824825;0.20801398806106305;0.46074271849134174;0.6994794889243909;0.32293787971887644;0
0.5431386072094944;-5.07383448483173;0.2949995466414694;0.8599963070345823;0.1660351592158719;-2.325342431601781;0.02756767409583993;0.21326742347809985;0.04460540783802719;1.9288577529096251;0.03135515448149278;0.10706638115631681;0.5323772965737513;0.2834255859071759;0.8311800169163016;-5.035236186509845;0.413072805093136;0
0.502657287316563;-5.718134481019044;0.25266434849244573;0.8303732132043099;0.18946771807394822;0.6125932674985908;0.03589801619214913;0.17762909113889436;0.03866164593839779;-5.844230385910354;0.06449474864892418;0.07137758743754449;0.5154025065696721;0.26563974377830096;0.8189875788077626;-5.321521027051212;0.4037212858636418;1
0.6345692633334804;-3.8898139075843314;0.402678149967596;0.9256848942491841;0.30505315402553207;0.6112647279429382;0.093057426780925;0.3281941275899747;0.03035546179846391;-0.6467070109990605;0.03734577342714388;0.06525950851432641;0.4625956619514768;0.213994746456325;0.7161631371995614;-5.027315095134602;0.34940710472527253;0
0.5822626199860547;2.4702828696475674;0.3390297586330247;0.4839014504883524;0.35892042706673927;-3.2266225447701835;0.1288238729657705;0.48912831428446896;0.024454606510660972;-2.7696152392549394;0.03390435403283368;0.0514938309370856;0.41528984690114273;0.17246565693917457;0.4289722448815323;1.0763753409100882;0.3381248972499915;0
0.6851398463139223;2.8042929064358937;0.46941660900706506;0.5382619213469187;0.3464877328590368;0.3282203365022358;0.12005374902179522;0.3469954622723249;0.04084026661465582;0.6329397874852685;0.0395125930457835;0.0968695829509533;0.3418926061204029;0.11689055411980094;0.2755914757333142;1.5543426811629395;0.25420605717645367;0
0.25428748972805026;-1.2934440325550849;0.06466212743219328;0.2998000049133134;0.26403059144614244;-2.109296173633485;0.06971215321939978;0.3315767229023099;0.029255512639854864;-0.2962720816557596;0.03135515448149277;0.0688283878862036;0.28930223867518423;0.08369578530247328;0.24563183883309203;1.083107289163399;0.22000451942090166;0
0.4637813131552693;0.9740751440917403;0.21509310643202598;0.40199603261073424;0.22345897286681637;-0.4927522986158728;0.049933912554692574;0.2538945704649147;0.034196983863077166;0.07066250830579257;0.03454165392066887;0.081574385642908;0.37209692570887615;0.1384561221219969;0.4628527755959779;-1.2660430431954985;0.23472749911075316;0
0.5125927072082341;-0.44474007657932724;0.2627512834830665;0.6123087930786312;0.12163881115885736;1.3078926614351403;0.01479600038014016;0.1252640596673793;0.049720066239804316;-2.971817468288009;0.0665341082899968;0.1101254206179258;0.33047290102385624;0.10921233831112348;0.410520557590611;-1.1741422678615905;0.1865808286872806;0
0.4797399241487599;-1.0109183237325041;0.23015039482225788;0.5936909316271562;0.043219778597808144;2.3076220733193082;0.001867949262043555;0.033303432031247304;0.0344132497821681;2.172780676486438;0.027021515244213222;0.08055470582237159;0.23339251383794307;0.05447206551559445;0.3499376457333718;-4.599440571055082;0.12741240913179522;0
1.852789624235182;2.547009840924577;3.432829391673547;1.7068895844845695;0.04984793222164481;2.6632544408499683;0.002484816346773695;0.03678664525937503;0.011920517940756447;1.9111838191589872;0.008667278474558976;0.0285510349750178;0.6147392158864339;0.3779043035486675;0.41921972215064307;2.361660140577337;0.2834150453671466;0
2.306028364481402;-4.361986698576651;5.31776681779277;3.3958988764685003;0.15904282652042784;2.545515299155884;0.025294620667606904;0.1457573199812754;0.02170066166307505;2.0401489883370107;0.014530437442642978;0.0520036708473538;1.013408946463921;1.0269976927731144;1.3416334522390858;-2.6307824123163286;0.3886558302406117;0
1.6724384989233259;2.7647229696205677;2.7970505326809074;1.0515717380353617;0.37143507412331;0.9449019467450803;0.1379640142889888;0.3937740486465726;0.01762945513645453;-5.134941879221351;0.027786275109615476;0.0346691138982358;0.9301610680558136;0.8651996125267317;0.8508339842333639;0.7664807651507655;0.3356684136041564;0
0.8244684848586743;-3.038489229404318;0.6797482825251581;1.1584916511707806;0.5109243174367362;-2.301456588354842;0.26104365814819475;0.6565914942829395;0.023147705168391708;1.1214409677189003;0.019373916590190603;0.0560823901294992;0.7421356983703522;0.5507653947956505;0.9989137027306505;-3.040336546848586;0.2153541192937285;1
0.7132455665314825;1.396364158848753;0.5087192381768154;0.5563115534615051;0.5372453457355734;-0.9286638678072148;0.2886325615145358;0.6131543013891323;0.014811704951905567;1.7877855394092332;0.013765677577240676;0.0336494340776995;0.6926861313849971;0.4798140766131134;0.6860613514463552;0.47581100065408144;0.195100756545894;1
1.3295709235889432;-0.08769991895279716;1.7677588408531555;1.397568015021926;0.4077249419361558;-1.2893885568996808;0.16623962827684166;0.49558880930560056;0.026314852453479937;1.3210823436049903;0.019883756500458802;0.06423982869379011;1.2944322186972803;1.6755547688015635;1.3820533180722867;-0.13918303101028862;0.3224361895290391;1
0.930363754372726;2.0818658571273225;0.865576715450514;0.6401816887805678;0.26462055596676;1.0737685618077037;0.07002403864015716;0.27100703172879237;0.03036866036878838;-1.5571711645984294;0.03976751300091763;0.06423982869379011;0.9305248992078149;0.865876588045714;0.6446612942319505;2.043735878122037;0.21173878087010042;1
0.9441415437798494;-0.4932881642848628;0.8914032546909972;1.026208047934726;0.1778771245357119;0.5634403537165689;0.031640271433093156;0.16648629985965552;0.03183813150014898;-1.7637950693317155;0.04104211277658805;0.06933822779647181;0.946343353919582;0.8955657435077632;1.0364852035651313;-0.5751078772474312;0.20912318848266873;0
0.6256627466125023;1.7677802636520212;0.39145387249870023;0.41668219087657654;0.2558046375990389;0.17527225647386935;0.0654360126171756;0.2836289845394694;0.047364831958517296;1.53411269080045;0.034159273987967725;0.1152238197206077;0.6206380559779139;0.38519159652804413;0.38551842560483607;1.6829304706302022;0.12766751572455817;0
0.3000981376333556;3.9040958378179447;0.09005889221100843;0.16739767693822483;0.33651930424384674;-2.0544460882127833;0.1132452421287627;0.4229249382866344;0.028996701351063744;-5.6933009326688016;0.04792495156520858;0.054043030488426604;0.328243260011231;0.10774363774280059;0.18098193590045053;3.8684777551471115;0.0704864791836322;0
0.5036339754176243;3.965363944426528;0.25364718119496027;0.2693171522553621;0.407628665195956;-0.42142245419030466;0.16616112868943678;0.43934793531311267;0.022669250612231812;3.878992838481455;0.014020597532374876;0.046905271744672204;0.40778125051323316;0.16628554827013622;0.22086322625534827;3.9136634961908605;0.08832275180010513;0
0.4747635705367148;-1.2613460287573215;0.2254004479087702;0.6153417881092436;0.4191999592915975;-2.1235201527273553;0.17572860587007696;0.5270625231873834;0.009005568335197216;3.209401709425123;0.0071377587437544965;0.019373916590190707;0.3879207692735018;0.15048252323374542;0.37583959461116656;1.9320392008924578;0.08506940737628621;0
0.619358470636173;-1.3605499117610211;0.3836049151487792;0.7312089804549418;0.34828521282944297;-0.6708440257664954;0.12130258947565038;0.4175547718063104;0.008672275464581873;3.3117288538646967;0.005608239012949975;0.019373916590190707;0.5020026676323645;0.25200667831001017;0.7011471128749625;-3.5759004144817776;0.11664331174159012;0
1.895952503311917;3.2367080503236174;3.594635894814724;1.3728415897006476;0.2236290479789553;1.4017367925742157;0.050009951099973894;0.19523622669668406;0.00885028827456008;-5.867843997201143;0.014785357397777109;0.016314877128581706;1.1407760495705228;1.3013699952737279;0.8365403515657879;2.5984973995379796;0.3191711888438659;0
1.9074859072270947;-3.151060583983771;3.638502486269972;2.5902262836906536;0.12682755067819448;-3.5011316957141236;0.016085227611029988;0.17800581914080338;0.014623313119403797;1.57216520571904;0.009686958295095381;0.0356887937187723;1.2291648157670316;1.5108461443196008;1.7265315932947978;-3.5120400105264675;0.3890304157804328;0
2.2190551639932883;0.10176659569639135;4.9242058208452795;2.2276877704956575;0.09058373429191513;2.8043615664344657;0.008205412918268281;0.08002058387193056;0.025230637364451167;-1.2901151643798112;0.029825634750688272;0.058121749770572106;0.7868667289380388;0.619159249109649;0.8015267387880955;0.554098589123388;0.2896580548535738;0
1.3431848481886681;1.8823055876203778;1.8041455364036156;0.8611389180118498;0.0467734851978044;1.780759039746231;0.0021877589175492273;0.031606275258430294;0.01895571713513786;-0.6955364550966454;0.022178036096665674;0.0428265524625268;0.3869429128401924;0.14972481779725272;0.4386264283948047;-0.041372237789431665;0.16920141073472156;0
1.336154077706714;1.227990537777929;1.7853077193722797;1.0802074996619329;0.04625401195818848;1.8261890991950676;0.0021394336222282425;0.03124382102927048;0.012526577418422459;-3.9911187567483015;0.018099316814520275;0.0265116753339452;0.3767683750380407;0.1419544084288057;0.4298839048525447;0.11426311910541287;0.1641248803902176;0
2.050076370628632;1.8519735689775807;4.202813125409865;1.4991017718507291;0.1415381640436692;2.2376507696057217;0.020033051880852613;0.11572953991545942;0.012104448457308618;-3.28546194221901;0.016569797083715747;0.0265116753339452;0.676933587667379;0.45823908211222913;0.9234136487391438;-2.4324678106273794;0.2644431714218636;0
2.4090050101103966;-3.5335761462579107;5.803305138736992;3.464822019260366;0.3259004404434332;0.5745286943973511;0.10621109708122374;0.34629827302318494;0.012749396236369248;0.42713935652046686;0.012236157846436203;0.030590394616090498;1.3492539729300839;1.8204862834676157;1.7296015640479467;-1.164334757020665;0.4399424356555389;0
2.358268572583643;1.4087839251292245;5.5614306604356925;2.5141318657159184;0.39517062628229954;-2.9322012398932227;0.15615982387634483;0.5276689440755631;0.007417542858092858;2.179477958957218;0.005863158968084002;0.017334556949117896;1.3435455652865345;1.8051146860011134;1.7125356595996015;-1.1254391925764686;0.35945968220306307;0
1.2366454343401012;-4.225820109872085;1.5292919302742174;1.8763157298725242;0.406509985703551;-0.1504930918563563;0.16525036847670124;0.42675381286857106;0.015628623883058003;1.4231715286259963;0.0124910778015703;0.037728153359845;1.1991344149089378;1.4379233450190008;1.6283688957616835;-2.254959517697122;0.3137577791257451;0
1.367890062197359;-5.918653486052221;1.871123222258295;2.3137203190302915;0.32980330004486036;-2.0450496996885406;0.10877021672048019;0.41276280720672665;0.03217617675446852;0.947286811949196;0.02918833486285302;0.07698582645049461;1.3976690531867715;1.953478782236006;2.3664508258432297;-5.944345413267695;0.39086669354868425;1
1.643262220504944;1.6703433920476254;2.7003107253388396;1.1253853032628574;0.22895504197229977;0.791656991380739;0.05242041124453755;0.2508067681435865;0.03211957714941728;1.3884351873214609;0.026894055266646275;0.07698582645049461;1.6007847336530454;2.5625117634966514;1.0495104639648138;1.829934677146845;0.6197294936611071;0
1.4231438052661631;-2.2824280592705772;2.0253382904674546;1.9233951726059664;0.08906727045362435;3.2364137603216285;0.007932978666059064;0.05926504731443216;0.03511208151694399;0.0032008041447308955;0.040659732843887075;0.07698582645049461;0.8582044939322065;0.7365149534054348;1.4477725733465356;-5.910499101117674;0.528316314185976;0
1.3912896574056473;0.25553658331847906;1.9356869108039232;1.6021693822737946;0.051302380809424245;2.078453976480139;0.002631934276715181;0.03960708611296193;0.030304039667819586;1.5925571958644476;0.026894055266646275;0.07086774752727651;0.7743863749693225;0.5996742577381281;0.41957608010816605;3.9860819037956112;0.6147007540538746;0
0.57405681278556;2.0993472586500292;0.32954122430551547;0.5244566526610723;0.04145512561547411;-3.337788696872755;0.0017185274397947378;0.057844630144507025;0.018323526267672575;-1.9352361290322317;0.022687876006933876;0.0418068726419904;0.08981653066207833;0.008067009180172056;0.05846185653802938;3.1543293978965394;0.10834724100804237;0
0.1793014877547402;-0.11550319188797964;0.032149023511063246;0.1854116171980703;0.07710970319352929;1.4983669913850175;0.005945906326594182;0.06731679785467148;0.014878825621570113;-0.7874326461673959;0.0180993168145202;0.0326297542571633;0.09353705904418162;0.008749181414634719;0.07604762107290197;3.0461314885646544;0.11204308452725187;0
0.3383026591210277;1.8638013586596394;0.11444868916835825;0.31494607989568374;0.08125117010534703;-4.55540305945453;0.00660175264348804;0.12132148919481434;0.015807778055448085;-4.225765185893138;0.023452635872336078;0.0326297542571633;0.08645775874234023;0.007474944046748709;0.055359507849440104;3.517931536273;0.10471071786872282;0
0.45815801465025524;-2.931456694953681;0.2099087663882635;0.6203603245327641;0.1004113572829956;1.4350543487616925;0.010082440671413393;0.08541873352829643;0.021397084715729656;1.5777703790342557;0.015295197308045273;0.0520036708473538;0.15515064728472627;0.02407172335286954;0.11205599941468658;1.4173526932884055;0.17601305485088076;0
1.2598542674432158;2.282465205769892;1.5872327751948818;0.9888131133351539;0.12557478161601593;1.5294174399430496;0.015769025777910093;0.12342713466276523;0.02899670135106365;-1.054355841396669;0.03415927398796775;0.06627918833486271;0.9075270336861917;0.8236053168712582;0.6129810265093476;3.766440949930722;0.6510326383748674;0
3.2677742399965495;1.9244515990856215;10.678348483585026;3.222174730672333;0.1678771068844205;-2.8731175094559553;0.028182723015883145;0.2251327243120922;0.029535532493035973;3.2705289371960866;0.018864076679922424;0.06627918833486271;3.059639172389509;9.36139186522036;2.898663765852877;2.3145600772248276;1.008586148098589;0
2.8691207485185553;-0.11490668089713729;8.231853869579675;3.0299033584068567;0.13895703908653395;0.4774469871520175;0.019309058711696525;0.15879605930595697;0.031509866370592554;3.4388599486426905;0.024217395737738377;0.06627918833486271;2.7202790169858577;7.399917930253544;2.8902766608496213;-0.07330906007392812;0.6909239384331749;1
2.319552866701106;0.7226571867297498;5.380325501421318;2.5926044012271596;0.07691858993549287;1.9049066417750815;0.005916469477664506;0.053408938716182686;0.005669701001873548;-5.211208869470786;0.008922198429693072;0.011216478025899902;2.2370716816815928;5.00448970898171;2.4938144429629716;0.8640634685841277;0.5162127382578406;0
2.6752192347347017;-0.2408023727458417;7.156797953894523;3.0033901144143655;0.03780924109073447;3.0127401047398195;0.0014295387118572836;0.028323921876573843;0.011107803703727397;0.6052266128000614;0.012236157846436224;0.024472315692872504;2.522093900926554;6.360957645090923;2.794274706448297;0.00887324854620708;0.6188032273355428;0
1.2745550328514315;0.7582350601979595;1.6244905317669136;1.164089734558083;0.10593706299568191;2.316730633407964;0.011222661316151078;0.0715280009594812;0.021938919435089646;0.5497312287485947;0.023197715917201975;0.0499643112062812;1.1471343964031635;1.31591732341125;0.9801747767445077;1.16952594405085;0.3853945511361825;0
0.9901948888158946;0.3218733988599638;0.9804859178371218;0.9855231418966968;0.1041786139717568;1.2618170369245636;0.010853183609076321;0.08774165048487292;0.023228043706224177;-0.19330861998102122;0.027786275109615552;0.0499643112062812;0.8595353999409467;0.7388011037516433;0.8056697275127975;0.6071692339116499;0.30675623385961215;0
1.2017184322018943;-4.2403461791016746;1.4441271902937787;1.8205372123895387;0.07373286662702352;3.2791218487859304;0.00543653562103844;0.04238924961140289;0.020469929540006874;1.3128952213236307;0.01886407667992253;0.0479249515652085;1.0426525020116146;1.0871242399510799;1.531047453331475;-3.67482835885826;0.408921035220104;0
1.6129053951641452;-2.825971899363621;2.601463813749607;2.15086533462482;0.06293451431869523;2.336586452093071;0.003960753092530056;0.060294068325898564;0.025652936774741644;1.7352260006124496;0.023197715917201947;0.0591414295911084;1.2330973975431396;1.5205291918276636;1.7153366163081147;-3.496032462989797;0.5144665347762718;0
1.4851039254421807;1.7510556113011955;2.2055336693637746;1.1293143998428363;0.019840194541704787;3.404083264911481;0.00039363331945269244;0.011919817518933451;0.030469777955135214;2.3360121799935936;0.025746915468542818;0.06933822779647189;1.1622534337448895;1.3508330442517862;0.8557005508403306;2.6644569150972615;0.5507523636337113;0
0.6468499511302865;-1.3418243681946613;0.418414859277254;0.7782757024406382;0.08461471034634722;2.854066470411759;0.007159649206996241;0.07318556518583641;0.03016109951211794;2.4060470619704653;0.024217395737738297;0.06933822779647189;0.3859192121816724;0.14893363833092269;0.566178718725747;-3.9273075832480124;0.26499070642282224;0
1.085215325907823;-1.1207331732558448;1.1776923035852223;1.2727142645462153;0.1249389783836909;-3.115137677191713;0.015609748319560385;0.17112756620909275;0.030140624152344545;0.5001209767202894;0.031482614459059845;0.06933822779647189;0.7422031928878479;0.5508655795329159;0.948674603031088;-1.1920035281031325;0.43293643368297396;0
0.8771588095462994;-1.6581056011524087;0.7694075771646812;1.1369642409962322;0.12351062216631312;1.9164795964909445;0.015254873787909759;0.119807080196489;0.03113330082199485;0.37737468753514136;0.03224737432446212;0.072397267258081;0.6998500537899429;0.489790097789786;0.875570528948399;-1.1319719885452386;0.3366374472591734;0
0.9828065579084874;-5.557436450585874;0.9659087302679289;1.5900963380148538;0.0939943376328032;1.8534888437092327;0.008834935507029403;0.07134456492860641;0.03604481628787452;1.3648373089236596;0.033267054144998504;0.0841235851942489;0.8414471971493247;0.7080333855904545;1.421795454148948;-5.893602708004555;0.4435981840722974;0
0.764242025798801;3.8032414626730606;0.5840658739970551;0.4426756834802781;0.11432522624950393;-3.27228015835116;0.013070257357000263;0.16151632688397777;0.03723664222086872;-1.4553645572763898;0.04550321199143455;0.0841235851942489;0.7018125117170146;0.49254080160254476;0.46787338368068676;3.609307162128914;0.316638600524936;0
0.7607028969009756;3.8365739659874585;0.5786688973535363;0.43846795825449725;0.15566990263819677;0.09925934255788249;0.024233118587385666;0.15700487371545457;0.022252628574278652;-2.851074324370682;0.029825634750688175;0.0489446313857447;0.6790411746543937;0.4610969168760189;0.440307635055353;3.837163591760003;0.31022301250722506;0
0.833544203695998;3.2669521196871614;0.6947959395151955;0.5876966455866639;0.17768513138352357;-0.4320019978682037;0.03157200591478003;0.19975378788656672;0.01657567880800321;0.34301753682552594;0.0160599571734475;0.039767513000917604;0.7253744651581209;0.52616811470343;0.500114863572497;3.3359123520588057;0.32345928722718537;0
0.3473457623349423;-0.04320868595929461;0.1206490786120422;0.37771688254095226;0.24889330799411202;-0.8570192400212076;0.0619478787642519;0.28746316144503964;0.01972625891929543;-0.5590892316806553;0.02268787600693375;0.0448659121035994;0.31066149463040377;0.0965105642459964;0.329985842217952;0.358264307708545;0.11346716772880099;0
0.26372058697830336;0.4419539589610668;0.06954854799618086;0.2520920846734054;0.23657506871636724;-2.6125804222416313;0.05596776313815389;0.3162213622747074;0.017902569456591598;-2.683360860994009;0.025237075558274702;0.0367084735393086;0.24164449456282816;0.058392061752524684;0.22399803934798257;0.6934590443541762;0.08485036871426554;0
0.3364926948827427;1.0481557404509303;0.11322733370945055;0.2959305619896808;0.1667727397821974;2.089121406767884;0.02781314673446052;0.14989941627267717;0.017491298866532452;3.185060011015601;0.014530437442643027;0.0367084735393086;0.3363318773771375;0.11311913174002985;0.2812479316327492;1.2982992107117006;0.12052142004579816;0
0.6620302728742323;-0.8389038784811493;0.43828408220193055;0.7779749911897818;0.08092327038968897;-0.4804696099501786;0.006548575690562711;0.08760641557869342;0.00625117234551828;1.5331488045779356;0.0038237993270113235;0.015295197308045301;0.6607131728697038;0.4365418968035511;0.7770289673817867;-0.8553479788714977;0.26317289317760617;0
0.5041154818251626;1.2613839134610565;0.2541324190158159;0.391833394066444;0.07013089914796324;-1.9924839935150782;0.004918343015301791;0.08740151590431905;0.006814838943531238;0.056471374479967196;0.007647598654022678;0.015295197308045301;0.5024115152736479;0.25241733067956296;0.3873790606264249;1.2805495519746941;0.22023735629379088;0
0.8698357143082511;2.3312457546979406;0.7566141698861454;0.5981243347893885;0.06708971672269465;-0.3675847704471593;0.0045010300899314135;0.07180240562441292;0.010094315220364672;1.5000000000013394;0.0076475986540226505;0.0244723156928725;0.8706316196555209;0.7579994171439958;0.5950080372122586;2.3440465304396287;0.3498119017123092;0
1.107163295592092;1.1478552626297702;1.225810563106342;1.074464729712589;0.05678726469439486;-0.9772105892588758;0.003224793431471265;0.06516093928156763;0.018847993790845657;-0.5020154669836554;0.020903436320995228;0.0438462322830631;1.1079608228398463;1.2275771849479493;1.0758261096994022;1.1435818733850915;0.5058096387484713;0
1.312426124989155;-0.5043592580943397;1.7224623335540485;1.543754852214241;0.05947044781234214;-2.085126972911329;0.0035367341630005104;0.07649450874637798;0.019578560652479038;2.9832787785839407;0.014785357397777126;0.0438462322830631;1.3127168566131566;1.7232255456363268;1.5447911822219278;-0.5063069608905266;0.6650572688910256;0
1.3032268739081836;2.2872607178723836;1.6984002848764967;1.1541094763549664;0.0868908476309185;1.3565162296173359;0.0075500194020194965;0.06890647088364699;0.02612152229519621;1.8811326984127543;0.0201386764555929;0.062200469052717304;1.303669302244622;1.6995536496149795;1.1512339831673772;2.3090313933251245;0.7074952120826429;0
0.41444521180766264;-1.926937547530244;0.17176483359029834;0.5235838956484626;0.09048861386541396;-0.7350757899647622;0.008188189239283987;0.10896610379709848;0.03623691122469717;-0.3554933127505109;0.03951259304578348;0.084633425104517;0.4124032197915596;0.1700764156944454;0.522257579408751;-1.949296145600691;0.31731123401085787;0
0.48955000374312324;-5.364551500734688;0.23965920616489197;0.7939328614042922;0.08241474998727742;1.2160943891825529;0.0067921910154654435;0.06741367012590066;0.019158044486648106;1.5141442431930017;0.011726317936168;0.046905271744672;0.4886242073642373;0.23875361602232914;0.7940890777515477;-5.389950017218542;0.40423162293885695;0
0.7095593084435814;1.2033460288963642;0.5034744121989335;0.5641141180705136;0.04299309867997471;2.8133937936182853;0.001848406534106043;0.027861028035709556;0.010641699605351983;2.86667575980222;0.009432038339961276;0.0224329560517997;0.7092303848012308;0.5030077387253019;0.5610867626053615;1.2155063937281305;0.4323493504959427;0
0.7255456320667972;1.4758838896289301;0.5264164642112084;0.6136055295850289;0.054998282282305855;1.5532018895642192;0.003024811054004198;0.03658259910853193;0.01720410690981771;1.0853649172654176;0.014275517487508925;0.0418068726419903;0.7254095673908434;0.5262190404621706;0.6161579965256885;1.4535251346951874;0.4722561566503425;0
0.884786286598467;1.3481140464515011;0.7828467729527046;0.8794542204573232;0.09781910088748895;2.110064467527609;0.00956857649843674;0.09594726863103523;0.017883199616506328;-2.7732938446492685;0.024217395737738276;0.038747833180381296;0.8765110541491743;0.7682716280456967;0.8720513334205444;1.4193547931870842;0.6804043117709899;0
0.9666829289041496;-3.035127141469088;0.9344758850347051;1.3745097883343396;0.10062035374248511;-4.011540516781823;0.010124455587262838;0.1474113814733475;0.01707012240520355;-1.8370210744354551;0.0211583562761293;0.038747833180381296;0.9561326942384596;0.9141897289916957;1.3705547370244717;-3.1785528039493514;0.5598344211778968;0
1.1830349031154048;-2.5729651329820786;1.3995715819892751;1.5384485177174303;0.08481999914701986;2.0913183839279217;0.007194432255300451;0.06523673621753986;0.016596574724031497;-1.4602430368130914;0.02013867645559292;0.037728153359845;1.1758645433052908;1.38265742420256;1.5365196423027687;-2.641588830516568;0.6275127320562977;0
1.2763049985294717;2.2268670788533704;1.6289544492713144;1.2204605888259925;0.1361379563320712;2.905755191261182;0.01853354315427293;0.11383981625617584;0.017921918361948837;-4.282041230404888;0.02625675537881102;0.037728153359845;1.2716345039910262;1.6170543117405032;1.2235391032332628;2.1402209396043936;0.5352528948676795;0
0.4205740049078985;3.078205869148988;0.17688249360426903;0.30992347021440825;0.13363875424670385;-2.9122569908851403;0.017859316636610906;0.17818781940011602;0.01637848312859074;0.9711856258641465;0.016314877128581574;0.037728153359845;0.42877530193800006;0.1838482595520231;0.33046575843450476;2.990982543837827;0.13859290146445394;0
0.557122436854164;3.4297346283508077;0.31038540964632194;0.3992796889120709;0.10075205106274913;1.2789013086377068;0.01015097579335081;0.10384199477328837;0.016700662133332433;0.8709552178397892;0.01656979708371565;0.0387478331803813;0.5585753391583931;0.3120064095159139;0.39408259294917647;3.398650741797713;0.15614149968326613;0
0.7070321155039774;-4.87976066424233;0.49989441235402965;1.0896028760631045;0.036471130770520596;2.856869807162205;0.0013301433796804143;0.022662180821951594;0.007854403322994518;-1.1511804065074287;0.009686958295095274;0.0173345569491179;0.7037713800170415;0.49529415533109106;1.087805756695726;-4.90442517329625;0.17768037024365432;1
1.1434900413514169;1.3556959275685188;1.3075694746698652;0.9265044094906463;0.04902598082804786;-3.485545791480263;0.0024035467961521164;0.07149141831886313;0.014190289755717327;1.423013914522567;0.0101967982053635;0.034669113898235904;1.1386792998427366;1.2965905478903448;0.9226492537204622;1.347253295535383;0.24339986494719892;0
0.8217695937491;3.525176156603383;0.6753052652105609;0.5584436781567161;0.10429389743288524;-0.434327571056798;0.010877217041741187;0.12858838306050135;0.016804104820343384;-2.286606796426682;0.023197715917202003;0.034669113898235904;0.8185956316295763;0.6700988081230249;0.5662957362159746;3.5171320471084364;0.1650287653023818;0
0.9511924460231488;-5.678558102859301;0.9047670693715008;1.553428204883586;0.16485542652968868;-0.702312844234342;0.02717731165628558;0.18605150588753253;0.013190311622264484;-4.953230901096349;0.020903436320995228;0.025491995513408805;0.9469069684103124;0.8966328068240085;1.5443248495252266;-5.668548251967136;0.17379336591385622;0
0.9275787460635971;-5.4534266057891365;0.8604023301489153;1.4830300531586413;0.1522432230475064;-2.77734077381937;0.023177998963892787;0.20573616189502023;0.015650784296716964;-5.809896959795067;0.02625675537881105;0.028551034975017806;0.9282519225279398;0.8616516316768162;1.4885183152015156;-5.485780944676501;0.16978975983241434;0
0.8610104275473274;-4.074006464112532;0.7413389563452314;1.254628364802624;0.09353098289076964;3.24648990866811;0.008748044760513442;0.06018558377268232;0.024655737171846038;1.5000000000000835;0.0173345569491179;0.060161109411644605;0.859486547415452;0.738717125188134;1.2535392773145348;-4.0811472733615926;0.15949674863162297;0
1.6553320411876506;0.8430118674597153;2.740124166582474;1.7345909925928948;0.07413746678521707;2.8743567616093806;0.0054963639813291635;0.05020323439265548;0.01600117755325286;3.5230796980087966;0.010961558070765775;0.0346691138982358;1.6529055454713164;2.73209674224983;1.7333781526987986;0.8337401764923555;0.3367159824324604;0
1.51926906144679;-3.4195934724524637;2.3081784810694104;2.1412927723059285;0.08446786524095179;-4.920669344230207;0.007134820258363592;0.13021150331848247;0.015363025566757655;3.813503075938545;0.010196798205363525;0.0316100744366268;1.5167091946770594;2.300406781217934;2.1370994166651727;-3.413178009758589;0.3722580632907149;0
1.4721720022592137;3.4545151081965955;2.1672904042359025;0.9782755775893612;0.09348542533967681;1.405647177161807;0.008739524750940288;0.07003098139437011;0.015631395652855876;-4.81068356722421;0.023962475782604173;0.0316100744366268;1.4692850350071665;2.1587985140960106;0.982078738370054;3.4432631938569678;0.3982512520248018;1
0.3355862268074456;-3.4468691501267923;0.11261811562285833;0.47021652811330394;0.08906623361745396;-2.157783616119369;0.007932793970798886;0.11802776530550818;0.013604225618564504;2.459474813787196;0.010196798205363525;0.0316100744366268;0.33154953156746303;0.10992509188260417;0.46581973195482496;-3.3942113952657813;0.11593004234850432;0
0.32304688519897107;2.279321326323153;0.1043592900367572;0.2899924725030547;0.2208363615294808;1.5850956676972068;0.04876869857357955;0.20906607075848527;0.03658552841589929;2.1195087322571915;0.02702151524421325;0.0866727847455898;0.3157231005152006;0.09968107619893145;0.2875616767761744;2.121379621777484;0.10548388537739033;0
0.7212928577590122;1.7805613461574854;0.5202633866541626;0.49594053627684076;0.3881188905195099;-2.568103017796858;0.1506362731780953;0.5252700916180326;0.037056161710088235;2.056737772085727;0.0300805547058223;0.0866727847455898;0.7249280616523579;0.5255206945710448;0.5014765964614685;1.8325136409388243;0.21890123854906482;0
0.8044372322801661;1.2065813318093852;0.6471192606785738;0.8574092990856181;0.49043185117155713;-0.37654451391417076;0.24052340064356037;0.5340300744342035;0.03033297534275149;-2.936058133382831;0.041042112776588174;0.0662791883348628;0.785985609413135;0.6177733782045373;0.7707489119663959;1.670832099087777;0.24723977016065127;1
0.8840629010713985;0.5450930615107428;0.7815672130507774;0.9273633302020019;0.3682239238282801;-1.4973742620657386;0.13558885807949503;0.44565574633445165;0.028311803940994973;-0.8680636488465776;0.03186499439176103;0.0662791883348628;0.8111182745836822;0.6579128553636098;0.7931943733843902;1.420076706397575;0.2569597567585074;0
0.9343300903230495;3.5184227437431552;0.8729727176830778;0.6424970878585716;0.23728995323443489;0.8489753287821973;0.056306521906000294;0.26309500957264387;0.024059456466246833;-1.2396969972202552;0.02893341490771903;0.0545528703986948;0.8557042925216595;0.7322298362399938;0.5424578950497501;3.685706563530047;0.2835530442836715;0
0.41122422319535085;1.763945567176476;0.16910536174261973;0.36950522461594115;0.10803765986821288;2.8736861389002186;0.011672135949799656;0.07394255399173089;0.01336244270085917;-1.126815735588762;0.015422657285612325;0.0311002345263588;0.33714791490030355;0.11366871652162232;0.30825410153329713;1.9499032506141543;0.13851443290704887;0
0.32859296153642376;2.168382982526353;0.10797333437127765;0.26244262132456786;0.12366660231849559;3.1067976814494003;0.015293428529000938;0.082009594403883;0.024804205051271882;0.8029258210347514;0.022560416029366828;0.0596512695013765;0.28001210748363764;0.07840678033742825;0.29320421125220086;0.1887779327137018;0.12048822783252934;0
1.6837236568693752;3.355972319307618;2.834925352701582;1.1350574696920162;0.144982017170051;-4.952771049175434;0.021019785302696964;0.229703805203763;0.03053191957074157;-3.7533204368132207;0.04473845212603238;0.0627103089629856;1.597575382183565;2.552247101758964;1.1162599005089433;3.455419105773231;0.5205886596350143;0
1.8438593469326277;3.4409964783737372;3.399817291270816;1.3605321238636208;0.15113649590023154;3.5214600255503505;0.022842240393000705;0.08358012590452091;0.021791804693744834;-5.576017627090957;0.03530641378607107;0.0418068726419904;1.7667238671167573;3.1213132226399893;1.202012366120736;3.5140251369941957;0.6276201564624407;0
2.7838636997721657;1.1951149007052564;7.7498970989091704;2.2352920132562013;0.02950515151425391;-5.854523477489859;0.0008705539658790798;0.04966881650686483;0.02910221407193425;-2.6166882597609806;0.040149892933618724;0.061180789232180996;1.8373350041373846;3.3757999174285227;1.4783671003663708;3.302825738019685;0.6755597237927133;0
3.146943419960437;0.34648572496510965;9.90325288843229;3.6263486176482616;0.04938506359933582;-1.1470167270471503;0.0024388845067104437;0.06269839505302954;0.026205969768321326;1.499999999999968;0.023707555827470177;0.061180789232180996;1.9528011044097404;3.8134321533839017;1.017173450043198;3.9688031078948605;0.7796571852628252;0
1.2920301293924221;-0.9399644837741388;1.669341855257799;1.5927976703971258;0.060104983680738217;-5.961049961341109;0.003612609063261807;0.10235990702614317;0.03892297434582839;2.661786151273475;0.032119914346895054;0.0871826246558581;0.3560970839524471;0.12680513319943615;0.30668843806567603;2.9349394144845284;0.26272881234394163;0
0.8318652030762129;1.7817734233264986;0.691999716089029;0.6754400368432697;0.09302025980036366;-1.718472985539723;0.008652768733327152;0.12406208931569807;0.037843666549779754;-5.07370615720175;0.05875904965840729;0.07596614662995821;0.4998066497797204;0.2498066871640281;0.4198016828961748;1.0878534958231683;0.340353646190412;0
0.8979754129330965;0.8371013451782492;0.8063598422323651;0.9742048194826175;0.14451677394748325;-3.9403554027596055;0.020885097952187976;0.21679034127908237;0.06910713388837893;-1.1621530121834986;0.08731008463342506;0.1488732537983072;0.541793403800538;0.29354009240177276;0.6447108180625385;-0.7741391742216859;0.3510248133489394;1
0.9004528906376686;0.19498108103572953;0.8108154082577333;1.030169895308022;0.12061790161594652;1.1124882835851544;0.014548678190234152;0.1053929609446822;0.08280308711283256;-5.935659965418218;0.14046089527888228;0.1488732537983072;0.5575235027686324;0.3108324561394052;0.7534572031913152;-2.788286951862993;0.3699035814196362;0
0.39016376477206755;3.49781892687146;0.15222776334111324;0.22402208314879934;0.13392291293355962;0.23507846205677474;0.01793534660860979;0.14712537790649605;0.0712050043483085;3.9104579167806435;0.03874783318038132;0.1488732537983072;0.3359113251902011;0.11283641839103704;0.21471115427983767;2.928494149280489;0.19085095322673185;0
0.3791801557206096;3.7484624486542018;0.14377759049230573;0.21222959096923377;0.12376435990644362;1.559385118419618;0.015317616783051708;0.08002604387597623;0.009359416616032165;-1.6297052892833275;0.01198123789130218;0.020393596410727098;0.3164821861738321;0.10016097416536812;0.19630650795547666;3.4844072216446236;0.1817122395811786;0
0.7542648280813271;-1.077274042016743;0.568915430880554;0.950691217253372;0.12498122688438766;1.5980405159041453;0.015620307073526784;0.09320319712364222;0.027954542891798925;2.2969680459608277;0.02421739573773835;0.0632201488732537;0.614732050811395;0.3778954942947836;0.764786162051448;-1.1339995963001268;0.4298448086553347;0
1.0508585413826779;1.879672041491844;1.1043036739969292;0.7002378119526198;0.24093298102770921;2.3112335222577105;0.05804870134689849;0.1603051660139012;0.03164842621796606;-5.182736078351462;0.04945447129601298;0.0632201488732537;0.9571175707481608;0.9160740442348607;0.6788511579552776;1.4820438420916577;0.5166168828876414;1
1.2441311976772436;0.7211612488362729;1.5478624370338128;1.3668977828983586;0.2511633306703781;-5.438957476459786;0.0630830186734377;0.4046356673055016;0.07647542004933902;2.2366238257294633;0.05225859080248795;0.18150300805547048;1.1621499307564502;1.3505924615572222;1.3800479644004908;-0.3608187128118434;0.5319795869181855;1
1.419124919069597;3.4563555195495006;2.0139155359242897;0.9241147369375335;0.2027262604621704;2.985365027646374;0.041097936680975757;0.1429088102394458;0.05810684025854707;0.8199644231141416;0.06322014887325378;0.1274599775670439;1.3152843312303577;1.729972871980089;0.8796483086685614;3.440330189088769;0.5115214755279724;1
0.2502928356112246;2.422656320498925;0.06264650355830752;0.1648083286674713;0.08813263208584406;0.6588077307047229;0.007767360838378749;0.08105553169193946;0.052747080439186994;0.7452486318881846;0.047542571632507455;0.1274599775670439;0.23822278592206025;0.05675009573246775;0.20345030847969703;1.881590656508875;0.07477214393112981;1
0.6576676370486003;2.7341440068870035;0.43252672082108945;0.3999940401993616;0.11904514685893104;-0.9283202196719387;0.014171746990664461;0.13855925137680059;0.046196813430831936;0.8040086544323284;0.04320893239522798;0.11012542061792599;0.649931183329239;0.42241054306374487;0.44075380961770794;2.7389627700484453;0.22041431239531661;0
0.6511242887900455;0.0097076818799966;0.42396283945234253;0.6817072720783379;0.07296831595846051;0.5485524180986943;0.005324375133813722;0.08409660191352575;0.0335394972863644;-2.688133003043136;0.043973692260630165;0.0749464668094219;0.6393669211755747;0.4087900598935335;0.6769944034033721;-0.14499742401965499;0.22617797693525105;0
0.5630761122389488;0.48297761744785817;0.31705470817412934;0.6140177553243982;0.07941078446349607;1.076558926869506;0.00630607268910783;0.0875733170890286;0.032146541770741825;2.7122151663363177;0.01873661670235547;0.0749464668094219;0.5536599974466053;0.30653939277257497;0.6126534619890118;0.18383652776387827;0.20042062840218855;1
0.6003288980936614;-0.23499172415502656;0.36039478588634966;0.730716501273688;0.2405666079649603;1.550391708845014;0.0578722928677669;0.25378400621530306;0.018790442530416954;1.591177688283377;0.01147139798103395;0.0458855919241358;0.6268842448021511;0.39298385638116334;0.7743569514027722;-0.9919219844424898;0.22098188978530936;1
0.4126146212244276;-4.01833009128079;0.17025082564817784;0.6200033792944466;0.37220240735424864;-1.8403952141312718;0.13853463204029803;0.46586824176251973;0.020535433481957473;-1.3300260738816831;0.025237075558274744;0.0458855919241358;0.34055514359636124;0.11597780582993823;0.5166622029870838;-4.786509839585104;0.11222557468506718;0
1.0910220640000108;1.1589932488544754;1.1903291441348436;1.192759811391902;0.2924090766341032;0.03281553196023701;0.08550306809800884;0.3199788782739035;0.012443297310074689;-4.3070136899319635;0.01860915672478847;0.025491995513408798;0.7763480874210636;0.6027163528423435;0.7681440997197404;1.7657708679013293;0.27895312241758624;0
1.087035890738537;-3.1134109114440154;1.1816470277537243;1.511712546337619;0.14201979411403173;-1.3460935587926315;0.020169621920191963;0.1683930774661555;0.0399717957933912;2.9830873184296536;0.028041195064749627;0.0907515040277353;0.8378711250645887;0.7020280222169997;1.2357792945907868;-3.7456716675315658;0.3492336033182928;1
0.6840268732517181;-3.0106147282391333;0.46789276333052193;0.9302420836693308;0.1006268839214293;0.8611500857251713;0.010125769767736804;0.09438308122546402;0.04293465584670737;3.37935533367121;0.03339451412256557;0.0907515040277353;0.5329125447078843;0.2839957803070328;0.7136180279013651;-2.0131066703981393;0.25034807466691117;1
0.5647777914490707;-4.625715355914265;0.31897395371409004;0.8488578094411858;0.12467773819073096;1.7145281882627934;0.015544538400356453;0.10766227587708266;0.04234760648038308;2.079489289658367;0.04161568267563984;0.0907515040277353;0.44058328688913595;0.19411363268603465;0.6566582063744333;-4.094272878988427;0.21266478356997714;1
0.7858058972741246;-1.3331054855227027;0.6174909081907921;0.9872262437036959;0.1948879691240309;-3.452651761642784;0.037981320509289214;0.272185413289429;0.0604414353495932;0.6682925505741455;0.05538136025288054;0.1458142143366981;0.41024997058233453;0.16830503836280633;0.5968831438002256;-3.772748965723949;0.195416612220707;1
1.363405171647022;-2.6589816444835623;1.8588736620738455;1.8783520651568788;0.18574716800177002;0.19500593989352488;0.03450201042067778;0.2018320878769828;0.035446021643185194;2.5953558418873506;0.025173345569491204;0.0823391455083102;0.33797582134615745;0.11422765581460974;0.3882446918771594;-1.0748631458048319;0.15506177029609386;1
1.1965433158236949;0.4571711650583392;1.4317159066423626;1.1368324461162556;0.2958423670212613;2.6723675646264375;0.08752270612474268;0.22390144000503232;0.0402694867330443;2.5241505976595207;0.0362623636178239;0.0876924645661261;0.3656955097311148;0.13373320583749987;0.5082275536664134;-3.296761274450267;0.16475629162514202;1
1.7205908920363742;0.552179496766934;2.9604330177585254;1.8408353307174958;0.3678492861025616;-4.284450676073012;0.13531309728616425;0.547239178306312;0.03750703407310996;2.6560975063489956;0.021923116141531522;0.0876924645661261;0.9763061118513381;0.9531736240382774;0.8568719432226306;2.383012740985201;0.38014313389655324;0
1.7501375748916785;0.3167524791974188;3.062981531047726;1.9518925119735784;0.3868287981851138;0.6847397753557338;0.1496365191053395;0.38323874601552754;0.014129098052973302;-5.999999999999282;0.0244723156928724;0.0244723156928724;0.8276005851218742;0.6849227284940684;0.7202468793233372;1.8108192727485743;0.29390474509826603;1
2.14549748653086;-5.817626656359023;4.603159464710237;3.5919943684046953;0.2201207121726892;-1.847687971899104;0.048453127927411875;0.28514243688582486;0.022988070393791117;1.6190592556802397;0.014020597532374814;0.056082390129499296;0.8546463202760424;0.7304203327613795;1.3235393688161015;-5.036760212875436;0.2551524239498153;1
1.653674898308582;0.5330354325931665;2.7346406692958993;1.8994314548304048;0.13367767957532348;2.9615350791152935;0.01786972201664286;0.10997952133738309;0.030149606285250347;-0.8296440046776752;0.03543387376363819;0.0683185479759356;0.64130244580403;0.4112688269942308;0.8580223230086474;-2.6576418756668936;0.18025152116774765;1
1.7542663890669716;0.04446909153928935;3.0774505638100713;2.0164385872426305;0.08784081213400868;1.6223322316632593;0.007716008276362207;0.08614550616054917;0.02806590368949281;1.5275761047253429;0.020138676455592947;0.0683185479759356;0.7369548826696682;0.5431024990906645;1.0526678171906036;-3.5467568352213927;0.20202964384319783;1
0.9600244822557455;-5.277990277950831;0.9216470065304123;1.5216969174152422;0.1461496059158232;-3.285832392862151;0.02135970730935043;0.20755705058613305;0.039433845728989766;-0.4642259354140883;0.043591312327929045;0.09177118384827171;0.6681511775649615;0.4464259960814447;1.0072707295160894;-4.571908915016229;0.18091617878387523;1
1.031155202359839;2.9506218450873227;1.0632810513537605;0.6954812818271461;0.26241058019075325;0.938523203655107;0.06885931259604774;0.23928605806886427;0.05030219493550407;-2.458064938192237;0.0660242683797288;0.1111451004384624;0.7941093004033406;0.630609580987083;0.7196697168714188;1.1985398154467841;0.24353594670089934;1
1.226079826715948;2.3190177150102578;1.5032717414798091;1.050352603784016;0.34405600676644327;-1.574865517346863;0.11837453579207086;0.4315417148164924;0.03824818870910792;1.1767671945882423;0.03670847353930867;0.08871214438666261;1.0155103890714745;1.0312613503120973;0.9701897597719227;1.258136538668115;0.34630184711771755;1
0.673452463407356;-0.5721532024701066;0.4535382204694362;0.747870059485163;0.3378499388950051;-1.7950943263277725;0.11414258121135867;0.43407141732285015;0.032292097046185166;0.2918976969446696;0.03339451412256553;0.07545630671969;0.44536731599911245;0.19835204616025326;0.5478923575229109;-1.0546230070950404;0.17374126317607727;1
1.3276161232839583;1.1730428666461243;1.7625645708035265;1.1187151784698584;0.3351113498775335;1.2185184085393104;0.11229961681674265;0.2685088483392195;0.07936216802025903;0.5390678400827635;0.08692770470072395;0.1764046089527887;0.5161921808409672;0.26645436756135377;0.6453895970814545;-2.005945583987991;0.23003989953692977;1
2.37943733844112;-0.5188445270405495;5.66172204756776;2.618275701276098;0.38968268623995617;-1.9739304084117428;0.1518525959551881;0.508829718881141;0.07577028441637668;-0.6235208208040621;0.08463342510451721;0.1764046089527887;0.820813558068584;0.6737348971092088;1.1043443105424389;-2.826830815958072;0.3281938001874246;1
2.509282001859447;0.5717015270336372;6.296496164855754;2.7484055331475883;0.6355572084688792;0.3374302657752999;0.4039329652367543;0.646058784317581;0.043221275575981315;0.7484784232466577;0.042826552462526674;0.1009483022330987;0.7467774220983623;0.5576765181558755;0.49697433168541894;1.959859151659142;0.27623031884323346;1
1.0213882903309084;-0.5724098975444782;1.043234039625096;1.149834468573332;0.6864054393224942;-3.129785508766062;0.47115242713150635;0.9292947822772284;0.019317932202821644;1.2441038392554962;0.015550117263179276;0.046905271744672;0.8014220960985806;0.6422773761150425;1.015941773117223;-2.0070970179264194;0.3207642200252279;1
0.7890725291819352;-2.294315444304063;0.622635456309576;1.0053060012325847;0.7669527599892341;0.12404223579773088;0.5882165360551036;0.7680837579248054;0.014596625513652843;2.70913646677381;0.01198123789130205;0.0326297542571631;0.77978267625034;0.6080610221801427;0.999685689506401;-2.037456314586999;0.31008563641137254;1
0.5464304009414007;-1.7859801035397513;0.2985861830729799;0.6813508606670284;0.8099799535178408;-1.3767601416580888;0.6560675251007635;0.9745884708059616;0.004313599179666895;-1.9855721983631227;0.005735698990516976;0.0091771183848271;0.5888943278846133;0.34679652941467043;0.8735600742043379;-4.4178852045632695;0.2465429259261732;1
0.43828120510429824;-0.5722070066270728;0.19209041474767594;0.5135224418697009;0.8716717826488181;-1.7163042183838506;0.7598116966661683;1.0619173656146428;0.007142309435159725;0.29434054131501597;0.007265218721321499;0.016824717038849798;0.7061830613547407;0.4986945161443535;1.0678514785467164;-4.727857372917018;0.28350769890906186;1
2.7643781228560256;3.4681004981928965;7.6417864061250045;2.0900612490382406;0.7509311244336018;-0.7724875257291082;0.5638975536431134;0.8564154399376926;0.03292943588496617;3.1692957626728386;0.0243448557153054;0.07290710716834921;0.9976978005948407;0.9954009013117826;0.7755270909379632;1.3275252866745504;0.32970637874877395;1
2.816405461941864;-2.772576308144231;7.932139726055965;3.9541998764705326;0.6942230767721168;-0.20675164314654637;0.48194568032294444;0.7280000710855987;0.03126660191904618;2.2753616015986005;0.024344855715305404;0.07290710716834921;0.5236526664409089;0.27421211507067383;0.41000005281247454;2.54384029918889;0.1528689587961518;1
2.995572634362297;-0.4854575164610715;8.973455407740271;3.4645690249361034;0.6609929748046995;-2.6584342756626285;0.4369117127411662;0.8648685692047389;0.025749018682599142;-2.7451249040525276;0.03466911389823597;0.05608239012949941;1.1310234048509848;1.279213942320715;1.2384455012891378;0.8248666668571172;0.2759667691559864;1
1.978527932768221;-3.912836865183536;3.91457278074409;2.831108740991388;0.5321778603358859;0.31869295104466033;0.2832132750316817;0.5926229311247901;0.02676376269525274;-2.6611391792978853;0.03543387376363823;0.05914142959110841;1.0147829906263275;1.029784518064513;0.908151916134933;1.9423750014150638;0.2397362397862592;1
2.789185564145593;-3.9822153328479324;7.779556111238172;4.042756516943912;0.23122509364037477;3.090242804529609;0.05346504392900009;0.15699648195508198;0.018133393743019068;-3.708116046179331;0.02574691546854287;0.0387478331803813;1.7233692184433977;2.9700014630782072;2.369085049906063;-2.898987506829016;0.3482729300108331;1
2.480599887072506;0.7668241433235465;6.15337579974413;2.3714403160086595;0.14970408111126515;2.135819590717867;0.022411311901368258;0.11441284397559537;0.01711068111377168;2.6950158968937785;0.0135107576221066;0.0387478331803813;1.4180250123809326;2.010794935737944;1.5996467725969392;-0.7560520362345233;0.2690713756674862;1
2.3994823330445687;1.4943228786742395;5.757515466593007;1.536403207289439;0.21854038920224342;-3.8972022048022623;0.04775990171266803;0.3121050115867363;0.014811704951905822;3.545158464548468;0.008157438564290805;0.032629754257163204;1.4301756218633144;2.045402309372118;0.9335809887631923;2.845963349930141;0.28744237959571045;1
1.473156563817089;3.9530518020623227;2.170190261517373;0.8246436905085526;0.22436771604807812;0.5274640607139052;0.050340872004631006;0.21921081643947993;0.003381895371016431;1.9338842986005336;0.0020393596410726994;0.008157438564290798;1.2856165357159097;1.6528098769061768;0.7891954546668352;3.7997381979186464;0.2511015590876941;1
0.374896225523826;3.293427758446928;0.1405471799120114;0.27294867180465854;0.2023822745972333;-0.9915716225478128;0.04095858507114994;0.23475016745940946;0.006782978839426209;2.9990105015371498;0.0058631589680840715;0.014275517487509;0.20685529258626337;0.04278911207094862;0.23015797452656983;-0.7562401755723442;0.04535435813948423;1
1.1181128696444236;1.5631234263385672;1.2501763892644877;1.1565027954657667;0.24964941226097292;-1.11506853135975;0.06232482904224922;0.29028524131146494;0.03053369318714625;3.312512264894071;0.01937391659019072;0.06831854797593559;0.777749270276397;0.604893927415468;0.6650334876127895;2.6314763586456777;0.158338622101311;1
1.2843519270794694;0.48635459255455693;1.6495598725927465;1.3526309255126598;0.28984678978569484;-1.1703331257553842;0.08401116154907277;0.3373540212081152;0.04065527083390603;1.7183631742028354;0.032629754257163274;0.0968695829509534;1.0744641025336439;1.1544731076334287;1.007163841367932;0.6841604896433129;0.2307595834365041;1
1.2109727107368757;1.0651869442393558;1.4664549061494168;1.0098033388497338;0.3228722344924624;-1.1982838329757577;0.1042464798061556;0.37595650714935314;0.049377321923137735;1.3615015438916416;0.049199551340878896;0.1111451004384622;1.0508059200078714;1.104193081523589;0.7129624130241314;1.4607552887675883;0.22102347521370005;1
2.0408771647689465;-1.525457621951718;4.165179601675335;2.4582313729803875;0.34868072861795707;-1.2134298803308177;0.12157825050954944;0.406092699135173;0.05012964890883069;3.2579323738948567;0.03543387376363817;0.1111451004384622;1.7190523814123215;2.955141090039374;1.937405880890533;-0.8770773507393734;0.4236388654033986;1
1.6448102721966527;-1.290232219764027;2.7054008315236264;2.1374838224727037;0.36724992830062647;-1.2217794601223169;0.13487250983681529;0.42776259716557585;0.012122330648262855;-0.20879316481177135;0.014275517487508875;0.026511675333945;1.370995698615955;1.879629205623451;1.8244920684241208;-2.202656459315733;0.4587543963458084;1
1.9963218611182756;-5.995550981894293;3.985300973178736;3.4364338640629954;0.37856817542818105;-1.2260475460616487;0.14331386344702204;0.4409662012405644;0.017414348196797512;-4.870765714281607;0.027021515244213173;0.0346691138982358;1.5517123511612083;2.407811220746245;2.5367077560972975;-5.690451416067401;0.48101343921066403;1
1.6409391062457956;1.0764555244733511;2.6926811504067505;1.8011603701139836;0.3826296989005831;-1.2274476607930378;0.14640548648075088;0.445703511360134;0.015917024538891406;2.328021693205276;0.014785357397777048;0.0346691138982358;1.2215657643334998;1.4922229165916876;0.8260622494540013;3.521147414328169;0.46858715842202014;1
1.5092547926206346;1.9709635953465892;2.2778500290483548;1.3358414690594245;0.379432633757415;-1.2263510792890617;0.14396912356008862;0.441974527524294;0.016242355854964113;2.1299999775546574;0.015932497195880423;0.0346691138982358;1.3170951040810508;1.7347395131942742;1.0718677063029942;2.9994683661430557;0.5292729385718986;1
1.2586925483771296;3.1834217815639683;1.584306931340113;0.7565705774676725;0.3689784394631087;-1.2224681591886544;0.136145088788631;0.4297792497330353;0.014506565673869527;2.476056228352359;0.009304578362394124;0.0341592739879676;1.2795988614265545;1.6373732461641346;0.9010825067012149;3.1200422409321185;0.5027049414360472;1
0.5458341946259166;-1.7583849794405104;0.297934968022923;0.7179671959937126;0.35127235267166074;-1.214707746163704;0.12339226575148361;0.40911767798635634;0.015471912315989728;2.614445913324065;0.009814418272662299;0.0361986336290403;0.6041421086954688;0.3649876874990077;0.6788880485850446;-0.2372098965393281;0.3648949191172132;1
0.5458341946259166;-1.7583849794405104;0.297934968022923;0.7179671959937126;0.35127235267166074;-1.214707746163704;0.12339226575148361;0.40911767798635634;0.015471912315989728;2.614445913324065;0.009814418272662299;0.0361986336290403;0.6041421086954688;0.3649876874990077;0.6788880485850446;-0.2372098965393281;0.3648949191172132;1
