acc_X_std;acc_X_kurt;acc_X_var;acc_X_iqr;acc_Y_std;acc_Y_kurt;acc_Y_var;acc_Y_iqr;acc_Z_std;acc_Z_kurt;acc_Z_iqr;acc_Z_range;acc_std;acc_var;acc_iqr;acc_kurt;acc_cv;hole
2.755678769183293;-1.4422188797541118;7.593765478927549;3.4109297621589905;0.6114284480545419;-0.780092510599621;0.3738447470903856;0.700926862021066;0.02113787086078624;2.7673393118087866;0.017462016926685024;0.046905271744672;1.1464181075245194;1.3142744772601005;1.1623543482154823;0.11520688228262621;0.5074327169484242;1
2.755678769183293;-1.4422188797541118;7.593765478927549;3.4109297621589905;0.6114284480545419;-0.780092510599621;0.3738447470903856;0.700926862021066;0.02113787086078624;2.7673393118087866;0.017462016926685024;0.046905271744672;1.1464181075245194;1.3142744772601005;1.1623543482154823;0.11520688228262621;0.5074327169484242;1
2.755678769183293;-1.4422188797541118;7.593765478927549;3.4109297621589905;0.6114284480545419;-0.780092510599621;0.3738447470903856;0.700926862021066;0.02113787086078624;2.7673393118087866;0.017462016926685024;0.046905271744672;1.1464181075245194;1.3142744772601005;1.1623543482154823;0.11520688228262621;0.5074327169484242;1
2.548444894504206;1.601524117211122;6.4945713803245555;1.9403239290563257;0.4320591511164584;-0.5257166153045603;0.1866751100634746;0.49133817121501705;0.057035266122915235;0.9791795170859352;0.062200469052717325;0.1233812582848984;1.2198442593010907;1.488020016949827;1.5896630560041678;-2.5427705919236008;0.5762639291328339;1
2.4384712488334466;-5.148872078616796;5.946142031387349;3.8103387834445437;0.27096587944474737;0.10328974833766758;0.07342250782326536;0.3017439459915665;0.06291515387336528;0.16553817573963414;0.07035790761700811;0.14071581523401638;1.224059242076779;1.4983210281135786;1.5923602572568014;-2.5143043839901456;0.5775192569856697;1
2.1181791194861557;1.4118874340606968;4.486682782227146;2.0204963709029182;0.1312965493716989;2.187245505469038;0.017238783876914965;0.12521301347139074;0.06715967696573917;-0.5669303682107518;0.0836137452839807;0.1417354950545528;0.9714027274522766;0.9436232589017219;1.2699586317177693;-2.01194015486781;0.41667564427788334;1
2.0296920119488053;0.26862968987434144;4.119649663368789;1.9883563253772327;0.0552501199008963;-4.456908287171789;0.0030525757490634177;0.08254210601642159;0.06657918422618209;1.3540904647823382;0.0713775874375445;0.1417354950545528;1.211682717049566;1.4681750067966186;0.8771712629054631;2.3517288025682266;0.6568243445471399;1
1.2401750352818481;2.1158743935030238;1.5380341181363335;0.7496976443183505;0.13254929264931647;0.7390070049635682;0.01756931498183414;0.14707193618319508;0.03486226503089173;-4.35853375057887;0.05327827062302425;0.06933822779647181;1.1967935417054893;1.432314781467969;0.7583893206436267;2.276877573122851;0.6351216895533139;1
0.820609064593176;-3.269022092419089;0.6733992368924872;1.1897882604054275;0.22197123042149744;-0.7208674249939371;0.049271227134833506;0.25668829907625224;0.030408577881574396;2.6779623681412765;0.023452635872336047;0.06933822779647181;0.7492124029314904;0.561319224706378;1.059399306352954;-3.0164738538264295;0.7324746977507887;1
0.9562066921521168;-0.16527985294124647;0.9143312381164931;1.0301457689191187;0.2973505200687413;-1.06841499279132;0.08841733178515093;0.34631019638671046;0.02362930605946044;1.9603910267747224;0.0198837565004588;0.0550627103089628;0.6167846003765164;0.3804232432616191;0.3888717562566131;1.8060684125584743;0.7920830221779059;1
1.0136421735720806;-3.1730851458793676;1.0274704560439323;1.3758021082278176;0.3564315397483222;-1.1851277761843662;0.12704344252735977;0.415937628114571;0.02561533331927636;-3.809639779275239;0.03632609360660742;0.0550627103089628;0.6370353676683419;0.4058140596603395;0.7054333605500401;-0.6755989938883609;0.7204592596187148;1
1.953731946239519;1.5020025584465415;3.8170685177568586;1.9173042015274708;0.39870059816046877;-1.2323554014688423;0.1589621669735156;0.4655705942598344;0.01795995060200322;1.2791687466563708;0.015677577240746372;0.0428265524625266;1.6529764227887003;2.7323310542953276;1.2649749024550796;2.8392039677222876;1.144919618710153;1
1.8287093113914241;0.5085108541099554;3.3441777455696964;1.7288291193130703;0.4239845595692861;-1.2520708514803989;0.1797629067531615;0.4952090948225007;0.015721901053522155;0.8036548946612427;0.014402977465075949;0.0377281533598449;1.4019266458625161;1.965398320379325;1.5871718179834629;-0.0997071044214497;0.7131266428236676;1
2.337863361614473;-0.7026297196499769;5.465605097579325;2.745578952185495;0.49823271313628315;-0.48066580165763995;0.2482358364391418;0.5457809998722282;0.025182083397466835;1.6973630397574269;0.020011216478025902;0.060161109411644695;2.3343658288426763;5.449263822868354;2.5731413442899727;-0.13617442395914559;0.683232428421403;1
2.9843298139145964;-1.6016285320277603;8.90622443821953;3.6050882803710755;0.5663890157423881;-1.7698084141400372;0.32079651715363117;0.6949632739726062;0.038577512210010115;-3.179095341925956;0.05251351075762207;0.0846334251045171;2.9721704549879604;8.83379721350334;3.67724061800155;-1.8319169814911298;0.5532711611117518;1
3.402803063303521;0.7303004872217063;11.579068687627826;3.697028783890037;0.5161380446146931;-1.4468829568087536;0.266398481098679;0.6340435836912537;0.07091174882350766;-0.9361823818983535;0.0848883450596512;0.1590700520036707;3.368556423535321;11.347172378541073;3.7090191875569296;0.5448339225566112;0.4936028535448063;1
1.956559412329254;-4.141739945723746;3.8281247339741955;2.848984179402594;0.30895227040561773;1.985425266451145;0.09545150538878595;0.30581951202092705;0.07982902954085411;3.1260012200230847;0.06207300907515033;0.17487508922198408;1.8891843734018112;3.5690175967055944;2.825281637834717;-4.5823422020676805;0.2450887587047908;1
2.806162813511105;-3.8899745005210082;7.874549735932562;4.066494898562804;0.20648351881199764;-0.43261583019474514;0.04263544354098458;0.250705442934279;0.0800663769669484;3.272624942514984;0.05977872947894358;0.17487508922198408;2.686033164340489;7.21477415993698;3.8374017574534314;-3.6768231913203433;0.3795930263163611;1
3.5539995302703393;0.5762482504866053;12.630912661161794;3.435272903928524;0.2272324111184035;-5.145407193744743;0.05163456866268314;0.35962267118702096;0.0755944055250627;2.493720168860671;0.05748444988273675;0.17487508922198408;3.185223016896558;10.14564566736761;3.187119947328817;0.6401303254129544;0.5909935722804897;1
1.7941333779030173;0.6060397913189544;3.218914577705691;1.6596888227553865;0.20972773942761197;2.582898612031098;0.043985724685416304;0.1846925343019281;0.024146181780798644;2.3370446203169006;0.019628836545324727;0.05557255021923109;1.4784065966575521;2.1856860650405663;1.3863944841596014;0.7778408014224318;0.3891073344706076;1
2.4800205114618175;0.21391189993131654;6.150501737271335;2.740461439580553;0.20390707013515505;2.8527274431396457;0.041578093251103045;0.14330091452978255;0.008686002364332073;0.15407727899626522;0.01032425818293052;0.018354236769654295;0.7714255273614957;0.5950973442649617;0.9423660016803113;-1.6276762013005843;0.2553265767203994;1
2.2953567228594913;-3.1150711054440094;5.2686624851762645;3.2369772418557003;0.5088059205818911;0.8731258972882863;0.2588834648191857;0.5381102167038179;0.015466311116669268;-0.16007337694126988;0.016952177016416846;0.0356887937187723;0.5663047366782213;0.3207010547841896;0.6297148560678978;0.031217841231955035;0.2236097406443703;1
2.295683675720542;3.8978763167174293;5.270163538969779;1.2666324460071061;0.7427304834195639;-1.7097177650416011;0.5516485710006591;0.9211933839857851;0.039237528141986486;0.7156114288768016;0.0426990924849597;0.0866727847455897;0.6917104282253888;0.47846331651575064;0.8468435927697744;-1.388849574672884;0.28647477279680084;1
0.17365758093965777;3.2408879303089897;0.030156955417813793;0.10843762866196016;0.7594642940292038;-1.6492719466059143;0.5767860139052768;0.9316574455504847;0.058865354468814746;-0.22359176776344647;0.06169062914244923;0.13969613541348;0.4021036433819976;0.1616873400210767;0.3740943557994991;2.2129570819471382;0.1968037158207908;1
0.3393579445410188;3.745949912757567;0.1151638145231052;0.23003733459843434;0.6538074247385454;-0.06105131809199804;0.42746414864324866;0.6783385033400473;0.06323659318329211;-2.481958550312905;0.08310390537371265;0.13969613541348;0.30265930571955774;0.09160265533864471;0.23186688024171875;1.9777199548676823;0.17689598563471534;1
0.9151433955316751;1.412276493416046;0.837487434385244;0.9609459910017214;0.5241759439086947;-2.2342127827150513;0.274760420172571;0.6660996176229312;0.08681462411205286;-4.668368021861623;0.13102885693892105;0.1784439685938614;0.38412077240037296;0.1475487677894591;0.5366816783715709;-3.076342321326866;0.2637057251631624;1
1.30738236680136;0.1731770290978627;1.709248653023126;1.3013847065994089;0.5561481766635523;0.10443979145401627;0.3093007944061938;0.5585549027080831;0.10074725600841491;-5.609485198660304;0.16365861119608432;0.1927194860813703;1.0282566006075606;1.0573116366930166;0.9642951674922555;1.8606726934365128;0.5560053582616243;1
1.5799043576467795;-2.9260571671693274;2.496097779311283;2.2106266273612576;0.5243159693140612;-2.76441106475985;0.2749072356777436;0.6914944053080789;0.08680813652649497;3.4376147492390885;0.058376669725706085;0.1906801264402977;1.3564787979213624;1.8400347292101842;2.171963889252757;-5.475755493724764;0.5881284490041333;1
1.536415823673332;3.1745156771511205;2.3605735832338035;1.2231977405412895;0.430480680462687;0.2514638876724291;0.18531361625161805;0.48746456337007227;0.02443511158625831;-0.1070700573090182;0.025237075558274688;0.058121749770572106;1.1964706378925745;1.4315419873390642;0.8247613318559637;3.348518758606822;0.4342117439820818;1
1.7841368969092022;3.3903372962679263;3.183144466912797;1.349181376681205;0.40616226770058184;1.6861774072493088;0.1649677877036791;0.3057101853672801;0.027780427706383767;-2.9613285867061094;0.039002753135515426;0.058121749770572106;0.4437494077534656;0.19691353688155147;0.42854759867503756;0.5562969173260264;0.14079621051072927;1
1.6617495824559654;2.3152986631955415;2.761411674792575;1.3663550195963534;0.348302836902459;-5.726445083298349;0.12131486619430094;0.5786051079869128;0.028078249848097012;3.949281934330564;0.01453043744264302;0.058121749770572106;0.43148542232704307;0.1861796696807467;0.27586670930453705;1.4962098331265015;0.13915201498461705;1
1.3519185663760784;1.5029672077851455;1.827683810112351;1.276305686479215;0.2660582295591368;3.022792677530976;0.07078698151614234;0.2273274963116072;0.02960585528899351;3.9542812274416015;0.015295197308045273;0.06118078923218111;0.27939232246148266;0.07806006985042112;0.45832189512784716;-5.630377004260273;0.09784951490296441;1
1.0813525996616753;1.4466400251915879;1.1693234447950636;0.9514531491313787;0.16289586419961113;1.3519035304518958;0.026535062573338153;0.17376700345695273;0.027780427706383736;3.34475036248071;0.022178036096665632;0.05812174977057201;0.3421954420551114;0.1170977205632931;0.2630921337417855;1.4992377676270827;0.1290242034134548;1
0.539686564859655;-3.2268692749039847;0.29126158829001464;0.7771599344731854;0.2591077286726612;-1.4728406148935065;0.0671368150579054;0.31666074856161286;0.026836505819859108;3.5288998546574675;0.018354236769654357;0.05812174977057201;0.3385578642890301;0.11462142747194932;0.22365698416959345;1.508430455006856;0.12649742120122023;1
0.7506196008795384;-2.0305553161886074;0.5634297852245576;0.9415870827583679;0.4128064733732991;0.4157560850231352;0.17040918445890033;0.42330483520774465;0.05082739964491925;1.6881569809184445;0.03466911389823596;0.1233812582848984;0.24192099098373324;0.058525765878551544;0.16033001705206207;2.2487974660607186;0.09258098273990233;1
0.7332409263430921;2.1679794696154566;0.5376422560644759;0.6018689692166186;0.3853686866934903;-4.012056411839238;0.14850902468386548;0.5683014736186469;0.0466264324010885;-5.479439823300474;0.07520138676455577;0.0897318242071988;0.24441891650170633;0.05974060674386809;0.2648236862262072;-0.43312006861567376;0.09480056952998926;1
0.66765769771628;1.861324153441485;0.44576680131980356;0.5668754683101902;0.2487942118504124;-0.1988481898677854;0.06189855985026788;0.2888246349355388;0.037018731234161974;1.018744775847912;0.037218313449576726;0.08463342510451699;0.4379650106032757;0.19181335051272738;0.3717426116949083;2.2233040615329003;0.1772187602657886;0
0.7101898065875613;-3.182888449797977;0.5043695613808776;0.9656756125478454;0.15918066036732012;1.1669520755332616;0.02533848263497612;0.13883033602719008;0.01616548988898293;0.8963230586291839;0.017334556949117976;0.0356887937187722;0.5072285094559936;0.257280760804949;0.7552895401220243;-3.9022415417191176;0.22454695233202962;0
0.584334387595683;0.7854065837076245;0.34144667652682187;0.643651763131045;0.43274813444913013;1.9940524915204048;0.18727094786920243;0.3461849845588745;0.030754237591266935;-1.881280563350554;0.040787192821454;0.06525950851432641;0.6049984639207027;0.36602314134640973;0.3870503145555928;1.546419399365199;0.33521857292135254;0
0.2959027711375805;1.9762683019690073;0.08755844996689936;0.22752561731118948;0.5241570571503035;-3.4476895605806384;0.2747406205604665;0.7511552799727219;0.02776950925931852;-0.8533528594874245;0.03313959416743135;0.0622004690527174;0.5291194198768844;0.27996736049085064;0.8478291271745709;-5.255823033188134;0.38236526143669947;0
0.30469182491961394;2.790008029272059;0.09283710817284467;0.21067898482859837;0.347948981509013;3.7346971909918167;0.12106849373315946;0.237569225453913;0.03147685157095271;3.106990118670371;0.02421739573773835;0.06933822779647181;0.4520390078587382;0.20433926462591234;0.3146809425761439;3.3534913097656798;0.3902227072931631;0
0.12599745145147903;0.9911409262719388;0.015875357772267815;0.11104764772529874;0.04438292216002402;3.1343892109311504;0.0019698437794627515;0.034493960811077806;0.02978493599282212;2.516990254094175;0.021540736208830374;0.06933822779647181;0.10870984883087621;0.011817831232831958;0.1271461894849586;-0.6859139021970808;0.11197064439787377;0
0.8455436787289069;3.5794106531621352;0.714944112638413;0.5694618911494976;0.02371666447832551;1.6879551172039768;0.0005624801739774671;0.020410007692049148;0.009871910346728387;2.9451588881348023;0.007775058631589624;0.0219231161415315;0.10117182277280642;0.010235737723172152;0.08426511065391917;1.0989265790636207;0.10576361041874018;0
0.8327613649373271;-0.3491744967961825;0.6934914909322801;0.9875244880450307;0.04685013469511382;0.7598058879780751;0.002194935120950308;0.05091434355461327;0.009950589645767558;-1.2568174820809137;0.012363617824003198;0.0219231161415315;0.30301725663163104;0.09181945781655974;0.19074652707841933;3.4286802764472633;0.356447692238554;0
0.7519395919107242;1.0648789931165776;0.5654131498828665;0.6311490872721133;0.06481949015208688;-2.172277275258768;0.004201566303576488;0.082386858727106;0.017643579582442098;2.7425669822758536;0.01210869786886915;0.0407871928214539;0.3727216114291123;0.1389213996263142;0.6074441334649607;-5.608856671192679;0.5287219743590387;0
0.4407921094548006;-3.349622317093564;0.1942976837576129;0.6056989865492456;0.11628017102626571;1.1779455580264155;0.013521078173897605;0.11294734541108631;0.03912613030579758;-0.18988801012651102;0.04537575201386755;0.0866727847455898;0.31492327728945047;0.0991766705787281;0.5039982248671542;-5.381261845723678;0.4814235683973209;0
1.1138177038991086;2.493210351941542;1.2405898775190825;0.9804702281193186;0.19536036201990653;-2.936462793019862;0.03816567104854894;0.26780232111792823;0.039272016614973426;-1.1511804065142908;0.04843479147547668;0.0866727847455898;0.9959183051465388;0.9918532705259544;0.8809827549348412;2.815802872367499;0.9658470119556323;0
1.076879106351867;-4.5615273143019675;1.1596686096971958;1.6114899442771906;0.22960472249450023;0.11346672749246345;0.05271832859177646;0.24663864994915174;0.044977782914899955;1.66809735405368;0.03466911389823602;0.10808606097685329;1.0251618233720265;1.0509567640994582;1.5328781176693302;-4.497992796936261;0.6914721789383261;1
1.0746808446310208;-4.579389110974267;1.1549389178168443;1.6099471353592134;0.1108618425213067;1.5173826078161188;0.012290348127219004;0.09697988774275168;0.043568696601697654;1.818119952480174;0.03364943407769967;0.10400734169470788;0.8757931508048535;0.7670136429966928;1.4206407707157132;-5.490265198445728;0.5491499991503426;1
1.298407325137722;-5.338084502491764;1.685861581971294;2.0544368733587453;0.09663430706499498;0.9758951410484773;0.00933818930193174;0.08908404207429699;0.07072884201919363;0.544528847785994;0.06627918833486282;0.1702865300295706;0.9351210434108238;0.8744513658297478;1.499497170510068;-5.454768839013296;0.605492633590221;1
1.097479758461308;3.293720303140848;1.2044618202322912;0.8444432537337712;0.17055195260498526;-1.9873363846465075;0.02908796853737314;0.21723153181787846;0.07759846062298476;0.9961823436559634;0.08310390537371251;0.1702865300295706;0.7634001556665678;0.5827797976717399;0.512119725470172;3.7057212580345436;0.7121666870513477;0
0.24175978790767977;1.433282631864298;0.0584477950491663;0.2414365903261121;0.26498238139044195;0.3858943922431095;0.07021566244734964;0.2684730547993917;0.034802565068375424;-5.387409678793205;0.05633731008463332;0.06627918833486271;0.15664024691483372;0.024536166953540075;0.15024168709214092;0.4073361047037185;0.2489130034766171;0
0.14817698701581722;0.6721907292732858;0.021956419481085662;0.13555196079048315;0.2568779094343508;-3.8879899128755095;0.06598626035536252;0.3686509406713645;0.028569237740638187;2.802515315022724;0.020903436320995172;0.06525950851432641;0.09644872942446261;0.0093023574075932;0.08232043425068714;1.2627923094032791;0.17034037173666353;0
0.6982533855357113;3.645927738996484;0.4875577904120827;0.4850934752506405;0.24046635501608235;1.2399704710045896;0.05782406789472055;0.20835889660535803;0.024787169944140784;3.785008957727811;0.014020597532374775;0.0530233506678902;0.6463180072355726;0.4177269664769618;0.36922756389916045;3.7976995550830956;0.757594258706961;0
1.1652005886722403;-2.2150635830133893;1.3576924118421354;1.5655097501983155;0.3006047298440588;1.2332419338297775;0.09036320360461958;0.30396316016536523;0.02436408945787907;-4.770795915076368;0.03798307331497902;0.0479249515652084;1.170261015330365;1.3695108440020565;1.5619607053046511;-2.014437166512753;0.8157523469823224;0
1.0326999875267409;0.24178769798671595;1.0664692642377307;1.1390176308401045;0.41047609352742137;-2.465846139111015;0.1684906233575324;0.5358278715884912;0.0178638087735944;3.9566397230287613;0.009941878250229377;0.0367084735393086;1.0677868545977158;1.1401687668516836;1.2420208144317968;-0.18451256865818877;0.534747044537112;0
0.49178097454760294;2.1715536483844833;0.2418485269269901;0.47236491731593944;0.46626170606847345;-0.682520416835116;0.21739997854588353;0.5154509255273482;0.01728450037060769;3.276476224825487;0.013765677577240726;0.0367084735393086;0.5605824066157695;0.314252634607128;0.48855259245137006;2.41125945192759;0.21362942714722977;0
0.7091547121274752;3.1326497394949833;0.5029004057326022;0.584306349849367;0.4559610528349488;-1.3127237571113053;0.207900481702355;0.5359604283540627;0.016081523218813783;2.9366792713157643;0.011089018048332747;0.0367084735393086;0.44116141336630244;0.19462339264335357;0.4255730803105142;1.5022307360436713;0.16417950749548502;0
0.7100491454950438;-4.653543450718619;0.5041697890182419;1.0671525081002222;0.3679453682478359;-1.654933600491983;0.13538379401503556;0.4764014470124627;0.011227094666256977;1.183779773871244;0.011598857958601022;0.0249821556031406;0.4426012686369836;0.19589588299906735;0.5485629149731732;-1.7757868266440529;0.1749853939608855;0
0.8083248728715505;-5.429294984788392;0.6533891001028084;1.2978745371534421;0.23650325758479243;2.4480099534304838;0.05593379084821868;0.18143371415176368;0.013727070730117157;-5.828309720718523;0.023070255939635;0.0249821556031406;0.6321136894483994;0.3995677163880675;0.9196967221620427;-4.136627129574666;0.23338529256135457;0
0.690847972465903;2.900972659838086;0.47727092106024904;0.511939557849362;0.1427312787283574;-0.9519382738031279;0.020372217927432046;0.1689512143204952;0.0130075805784962;-5.092138869519102;0.020775976343428176;0.0249821556031406;0.5840118159139926;0.3410698011271593;0.5595941363113388;1.4608480351335675;0.22562470993313544;0
0.5811890038497746;1.4337385426817129;0.33778065819589326;0.5764268799582832;0.12231894767598375;-0.08254694030133436;0.01496192496056005;0.14474307567785716;0.009529142971943062;3.947409824578905;0.005608239012949975;0.0193739165901907;0.47253825339917854;0.22329240092554628;0.33865736595808693;2.29738229930531;0.1725243031133963;0
0.4834369261796065;2.3163654068616335;0.23371126159398628;0.32560798300555627;0.10455215056072607;1.741245174915873;0.010931152186872732;0.07769032953738297;0.009722670704862806;3.854286508794228;0.005863158968084051;0.020393596410727;0.3707005378722404;0.13741888877876832;0.2735752774048681;3.2725892787114823;0.12971251015902432;1
0.5422037677258253;2.5757462623846195;0.2939849257360807;0.3567810151962565;0.1425419265866382;-3.6815412903787;0.020318200835030553;0.20133396322845964;0.010179789355815573;-5.0271920895888975;0.01580503721831343;0.020393596410727;0.4747604512485917;0.22539748606976637;0.32637164321698897;3.552580394090853;0.16311098237780572;0
0.4299658694576736;2.3041940472227367;0.18487064889849322;0.40144438279635075;0.19264599295014292;-3.604917050263886;0.037112478599746514;0.2698634366708639;0.012516197708794675;-2.861148093044431;0.017334556949117955;0.026511675333945103;0.4292930945344455;0.18429256101496036;0.5227556709453576;-0.8414427624896135;0.1407583538220945;0
0.40608169693806745;-3.506951010131539;0.16490234458810044;0.5642238704553635;0.143157250292525;2.338667656313673;0.02049399831131665;0.11361653752454592;0.011063839314074649;1.9701207507269292;0.00777505863158965;0.026511675333945103;0.37702225477249995;0.14214578059373986;0.4534020858141079;-1.1036810205795167;0.11603041018647621;0
1.1956760429620847;3.08865908712092;1.429641199713469;0.8258743782481544;0.05900777707226177;-3.468196132135647;0.003481917755009742;0.08337443131193734;0.017331432648505417;2.9535373675194165;0.011089018048332802;0.0397675130009177;1.060315164897383;1.1242682489113642;0.6958569245646355;3.395182413911119;0.26967833783896483;0
1.3370875251371632;-5.027800365142577;1.7878030498774242;2.065487399452281;0.09793967576347665;2.1355508457577628;0.009592180088654935;0.06953713505054315;0.02038244061144167;2.261527295674302;0.017971856836953203;0.0458855919241358;1.1903639361293277;1.4169663004373063;1.8841418326841843;-5.341440272837826;0.27504599586149736;1
1.0567132419344052;3.462404634004333;1.1166428756795206;0.7932251595642903;0.10414403103327252;-2.2566774165477916;0.01084597919985923;0.13390758758622434;0.019438099300398515;2.4137075606442497;0.0126185377791374;0.0458855919241358;0.9673544168321543;0.9357745677646774;0.704409485885253;3.5957219855563736;0.19715126837144195;0
0.7721770245362167;2.9802004116610945;0.5962573572216051;0.6484481460471399;0.06576220036495271;2.3136532699151466;0.004324666996840187;0.057148771982550084;0.019988065447040734;2.7418730943378335;0.014530437442643002;0.0458855919241358;0.671486111938488;0.4508935985262676;0.5544288142942175;3.1442648968216;0.13279290305640185;0
0.6992589812937721;-1.2232003689930995;0.48896312292000393;0.8400506815091386;0.030652370583697904;-0.5975891342381878;0.0009395678224003485;0.033553165872977964;0.010576362382313388;0.883482802038964;0.009432038339961254;0.0254919955134088;0.615218666936745;0.37849400814742556;0.7362710930591927;-1.1359296213240064;0.1267610444728514;0
1.2170134958001166;0.1528941503831529;1.4811218489596205;1.2346471964003953;0.05357917749799841;-1.3794329190754375;0.0028707282613620196;0.06457541088572594;0.04455876367956271;3.486861352199991;0.032884674212297405;0.09483022330988071;0.9888223529122524;0.9777696456189231;1.0446845991871716;-0.2579110672138487;0.2281407467910912;0
1.032976360206945;-3.8433482299856614;1.0670401607463884;1.5107384350109765;0.0952975274465773;1.0799788892862079;0.009081618737431152;0.09262772541826614;0.04143213960214154;1.9867605889057565;0.0367084735393086;0.09483022330988071;0.767264514774312;0.5886948356318605;1.101436277845707;-3.0647193636666863;0.20474082283236908;0
0.9963878349089451;-1.8997402997670267;0.9927887175545353;1.3108664700819004;0.14893742918158337;-0.8573356156096157;0.02218235781121916;0.17764473414687032;0.037955974838920645;2.769111141279083;0.03339451412256545;0.08157438564290811;0.7679956187284183;0.5898172703860459;1.105337079497219;-3.1151353985295422;0.2048648324306614;0
0.6130473555573513;3.093370205963023;0.3758270601558616;0.45456172368915015;0.14023663190016378;-2.376402365880155;0.019666312926702036;0.1921704104342643;0.03542439705439875;2.9342348908787166;0.021158356276129255;0.08157438564290811;0.4740388190714794;0.22471280198668275;0.253481599384195;3.9897917350246495;0.1409329762719555;0
0.8909910800267257;1.5417822033567798;0.7938651046871911;0.6738773745154418;0.08780361476324824;3.502166752766719;0.007709474765492906;0.055507496764009456;0.01926403412372403;-1.17398274725036;0.024727235648006524;0.040787192821454;0.5537226754424457;0.3066088012991401;0.3406153809958372;2.759745170160521;0.16882846498131696;0
0.9465296815560661;1.7782785106494803;0.8959184380666279;0.8748383102349568;0.04178824920935265;1.4218233059620058;0.0017462577719829623;0.04207125991795824;0.01658874184006338;0.7804979411053736;0.015295197308045294;0.0397675130009177;0.5707902986844876;0.3258015650723266;0.44141383484845553;2.8259818230861242;0.17583364253765568;0
0.3240926115991903;1.591162640513435;0.10503602089318359;0.2070535668404223;0.03689014616065317;2.5649814199493015;0.0013608828837543537;0.030243355143151796;0.020171455932779914;-3.9468045587398795;0.030080554705822396;0.040787192821454;0.14635831973484728;0.021420757755607783;0.13103790770242485;0.7953636955889554;0.049465989983164066;0
0.22880318692133542;1.9911102477021245;0.05235089834535956;0.14683391105924937;0.11521995503208242;2.8837912652311033;0.013275638037595095;0.07565766876352908;0.021340317667438106;-4.077865348930414;0.031610074436626896;0.0438462322830631;0.08411763554810671;0.007075776610204105;0.10015956380961688;-1.448922069360961;0.029132250157562087;0
0.1314039877949448;1.9502848373844373;0.017267008008414002;0.08827159208664814;0.2141527343425122;-1.3872377141750896;0.0458613936263746;0.2649025949883419;0.013990438191100853;3.3803272963852997;0.009941878250229401;0.030590394616090602;0.21164489143871135;0.04479356007210391;0.169520926769001;2.8487981898505197;0.07510253968934202;0
0.262105691545209;-0.44401654006781577;0.06869939354039226;0.2958912224798198;0.24202414913796264;-1.7823029064451745;0.058575688765954786;0.29708231306605537;0.01248847630663432;3.227999999989329;0.009177118384827126;0.027531355154481504;0.18163840923647284;0.03299251170995639;0.18639289570555206;0.838999590014545;0.06583318296434602;0
0.5210806974271157;0.5402234228843401;0.2715250932311293;0.5199688521750907;0.2942870909352844;0.567657424953012;0.08660489189115232;0.28486512336355707;0.011814653029730681;1.960391026763789;0.009941878250229429;0.027531355154481504;0.2042848584037047;0.041732303373021674;0.20351981025322496;0.42052540950279393;0.07358440694007164;0
0.5042710715255501;1.315979060811804;0.25428931357752643;0.3973967094744322;0.30489039685050395;-3.4425786036881885;0.0929581540916578;0.42202430385351297;0.011212614937090738;2.371882600972052;0.00943203833996125;0.025491995513408798;0.3006903858788981;0.09041470816000065;0.35095236531689533;-1.2336769793645939;0.11406343413748694;0
0.43018912152329786;-5.327075519914976;0.18506268027698672;0.6802436122155655;0.25509404756566495;0.9879757528204056;0.06507297310343373;0.2723480679339605;0.010930885239037859;-1.0132701177735548;0.0124910778015703;0.025491995513408798;0.3221099742112123;0.10375483548634785;0.3380998126799222;1.3812097811629478;0.11714782602243952;0
0.3922884951887413;3.706355260330543;0.15389026345744714;0.21653306991163035;0.11076020569359393;2.6225460004896632;0.01226782316528724;0.09453044917427467;0.01260930750249828;-0.21797771162590074;0.01351075762210665;0.029570714795554197;0.3263873324579759;0.1065286907890333;0.2549468782922917;3.302754061364844;0.11751879382696588;0
0.41095998092921826;-4.501839440892278;0.16888810592534345;0.614790722556191;0.11617452230387075;2.7455385691763645;0.013496519632532561;0.09732923494068157;0.016845304035892166;-1.0109229065926204;0.0196288365453248;0.0387478331803814;0.30049814875685227;0.0902991374062953;0.38087846585465757;-1.8330116732878938;0.1124690325379052;0
0.3032720527022122;3.514023462689856;0.09197393795021336;0.22086493955749198;0.19085598676832907;-3.3844637675617477;0.0364260076853126;0.27297358564927987;0.017999105985283235;0.46625090011635884;0.017589476904252076;0.0428265524625267;0.238631799760943;0.0569451358571468;0.22293436578970915;0.7888825337219068;0.08276986383908881;0
0.36091434059422384;-5.480855034279932;0.13025916124656342;0.5781503062416999;0.1720429356263;2.0873169784980714;0.029598771698915203;0.14494922957059764;0.01247459250433563;0.09877927192566283;0.012745997756704324;0.0295707147955541;0.2787339633899794;0.07769262234708639;0.36188797680334384;-1.4557327709274386;0.10029069229469036;0
0.3712647014855132;-5.675167730100491;0.13783747856912723;0.6080484323427449;0.06087189046869726;1.1097655039166856;0.0037053870492330765;0.05894298662266784;0.008692234698035378;2.2272115141750426;0.0066279188334862505;0.0203935964107269;0.31003438127462657;0.09612131757234053;0.5024823292607006;-5.49233810229363;0.10970298411076145;0
0.3365403513826412;3.91317198200802;0.11325940810875162;0.1862037433758501;0.1784219163922062;2.8574120516815817;0.03183438024906742;0.12574620390777502;0.008001942399642522;-5.599044900309227;0.01300091771183845;0.0152951973080452;0.26002628710624043;0.06761366998625698;0.2759251283238253;0.5096953849767178;0.0896134233781421;0
0.5817855353492118;-2.0533078052551996;0.33847440914156907;0.7895882680906023;0.30689821796455463;-1.0260364927092684;0.09418651618981928;0.38667262453569795;0.006529136573298013;3.6192742415049572;0.003568879371877225;0.0142755174875089;0.5972127960409557;0.35666312375505616;0.5794439918898466;1.603272941738446;0.2349783058329505;0
0.5679486891070303;1.9241917168212925;0.3225657134583942;0.5720745861975944;0.3376389523091605;-2.0884050373839713;0.11400006211642759;0.43459461415009026;0.013015072226332308;1.5674465760930048;0.009432038339961226;0.0316100744366268;0.604934147022302;0.36594532223360005;0.731159156715524;-0.9076961197581195;0.2428485009555909;0
0.529907342010199;2.5648864133951896;0.280801791116314;0.4358830222863814;0.22815149797285328;1.7656574985495688;0.05205310602725688;0.21906569685940758;0.018820391149053078;-2.8428142508653327;0.02498215560314055;0.0418068726419904;0.4884078603226083;0.23854223802490845;0.4014805250447764;1.4300227461999153;0.2075962851365421;0
0.5694804546789188;-5.3674976476964975;0.3243079882613082;0.906888584045999;0.08860588377692245;1.2536493414028254;0.00785100263988949;0.0925332556591888;0.018820391149053105;0.16820362973322922;0.01886407667992255;0.0448659121035994;0.48075898711851606;0.2311292036952215;0.730430665030164;-4.788591442085682;0.23906671199885784;0
0.7317897174513754;-4.226354818401701;0.5355161905675639;1.0791882667849317;0.14641036792385642;3.230140620549328;0.021435995835599006;0.09307769248668563;0.023078352804642363;0.22332407028215684;0.024727235648006475;0.0530233506678903;0.6952970734229142;0.48343802031046934;0.9954849692129122;-3.598940356277737;0.37729377905505934;0
0.6561416950802444;2.7877634009565675;0.4305219240227765;0.39672357562602434;0.20506506485978884;-3.497204223661562;0.04205168082594941;0.29796405762904254;0.018027365359679227;2.1760896370985847;0.012618537779137351;0.0428265524625267;0.6398485806658739;0.4094062061801333;0.5341114138731748;2.3257495497907215;0.4057954581766862;0
0.6356624158656713;2.7265647044487054;0.4040667069441816;0.3860183252447331;0.34158522580033746;0.83043712932899;0.11668046648506754;0.3162368687972884;0.03590753660905671;2.1803001824789305;0.023325175894769026;0.0856531049250534;0.5364688489618842;0.2877988259064889;0.47927408143677686;1.7197544040077553;0.3524904285022666;0
0.8981008745569765;-4.065138400287227;0.8065851808800061;1.2962294000847958;0.41450020559655376;-2.1770765579301283;0.17181042043958536;0.5364573626815551;0.0452761092554778;-3.7481805372751467;0.0653869684918934;0.0948302233098806;0.7989905500219124;0.6383858990243181;1.1628498895330013;-4.104771251192471;0.4382453898482738;0
0.7068365636834083;-3.6271374417506603;0.49961792775976893;0.9949704515285587;0.4313267650816459;-1.2511343070904513;0.18604277827579738;0.5147725033075344;0.035480303576248394;2.442670301386677;0.02740389517691442;0.0820842255531761;0.660240007214437;0.43591686712651984;0.9152076320273443;-3.3499081381266524;0.33892275560422713;0
1.234901504733664;0.5380534605652194;1.5249817263934677;1.31503880092025;0.3795075613119724;-0.036122075180786695;0.14402598909296047;0.38861034537084904;0.025593760371186214;0.3966490299827914;0.02753135515448142;0.058121749770571995;0.8342096142085743;0.6959056804380185;1.0312562221306691;-1.784874870068501;0.45535311810084445;0
1.2423828017481866;-1.1486185652515655;1.543515026079674;1.496355696854748;0.4358833878237433;-0.6389817827035209;0.1899943277807038;0.49688210180027004;0.020348936518277932;1.9902027427761784;0.013000917711838499;0.0489446313857448;0.8018032698548001;0.6428884835498494;0.6262762781340574;2.0137421171350205;0.5026657509972711;1
0.7715164209242457;1.2666202837762341;0.5952375877557577;0.7955699974200641;0.38927389169809695;-2.7403249300461976;0.15153416275778173;0.5444234698194412;0.014670637881042376;1.8181521155741613;0.014785357397777123;0.031610074436626896;0.30194910846576095;0.09117326410326787;0.18317672686877806;2.54392239913188;0.24228822232342698;1
0.5080813225519787;1.0759653415839487;0.2581466303261678;0.4257323227708184;0.2690316163020779;2.90322417869557;0.07237801057010847;0.17311896187445863;0.02197049192048057;0.6558415101988597;0.02013867645559295;0.0530233506678902;0.34661961795585533;0.12014515955186311;0.21604438566335626;1.7660585468189556;0.2709856366850485;1
0.5052970070970219;1.2927652055771865;0.2553250653812078;0.38732891491174437;0.13629048569366498;-1.7947749310956365;0.018575096490615096;0.177350497896823;0.02190285150797117;-2.624615283133828;0.028933414907718925;0.0484347914754766;0.17336374714515893;0.030054988824210597;0.26813278697615717;-4.629916170603007;0.1182264389147043;0
0.3062567826676737;2.8640433939167913;0.09379321692995474;0.2338787325728593;0.1435237105851072;-1.5249759374560607;0.02059905550011762;0.17856220374999743;0.02190285150797117;-2.6246152831338083;0.028933414907718925;0.0484347914754766;0.15918797732209972;0.025340812123901338;0.14482807738691839;2.561248898396805;0.10291018860422241;0
0.2918962397806879;1.043795486795629;0.08520341479810484;0.27070826102436085;0.1419149658715554;0.9433838324650896;0.020139857538324733;0.12355865830483181;0.027257369099892806;-1.4143161919575569;0.03250229427959615;0.0627103089629855;0.11258028552318913;0.01267432068848279;0.07672453882726482;2.261531259553479;0.06715946362347353;0
0.23303448118386033;-1.168610278124243;0.05430506942063096;0.27428543149418927;0.2231765962046328;0.5256441417535846;0.04980779309348571;0.24507099279289069;0.03935439042806785;-0.10314679170373786;0.04091465279902108;0.093300703579076;0.21860597363928974;0.047788571710781845;0.26379846328828216;-1.0911262722936783;0.12309104836301252;1
0.6304931921620185;2.156444591546215;0.39752166536265193;0.4703555856209368;0.19403007287066568;-1.5676761735319449;0.037647669178195835;0.2341225881885005;0.02274556542364988;1.4281948526918278;0.019628836545324754;0.054043030488426604;0.32587395575819017;0.1061938350414909;0.35735156954744074;-0.34161997744873496;0.1641539492193267;1
0.9426539472915423;-2.731618938131259;0.8885964643443257;1.240643658785332;0.1643211396924371;-2.5617377674787427;0.027001436949821433;0.21451643797990072;0.01788562199370913;-3.5687058428521183;0.024982155603140578;0.0387478331803813;0.36109727881076886;0.13039124476454214;0.46302758637507413;-2.384602363842653;0.16151586637580542;1
1.016025496843905;-4.1131090598539295;1.0323078102369043;1.4991880658856662;0.26925607129419443;-1.8085120035988957;0.07249883192878431;0.3366361652143861;0.051135867055235464;1.810841187207716;0.04970939125114709;0.1131844600795349;0.5175190848860792;0.2678260032213249;0.5577679088682974;0.08482745173114914;0.2417255649812602;1
0.7996112693761355;0.7219097074674412;0.6393781821133147;0.7495614773576514;0.32009538059334164;-1.0251480151119843;0.10246105267719623;0.3659044296753684;0.05196033305842214;-4.5406149221954255;0.08004486591210352;0.10298766187417141;0.5892205881439523;0.34718090149270503;0.9051103232663795;-4.902299359632613;0.29095075985487895;0
0.8034695771743284;0.8154058726582623;0.6455633614446942;0.7551101231698645;0.28241721407296927;-1.9506278032899367;0.07975948280473734;0.3547595516161486;0.04827800792407394;0.09918204557705401;0.05710206995003557;0.10298766187417141;0.6210987529668742;0.3857636609370063;0.45178083276495173;3.1053522487525456;0.35713926248530137;0
0.5047133542080725;-0.2771783995618957;0.25473556991596324;0.5657279179949759;0.2603917669479238;0.207848187183032;0.06780387229426188;0.2582800098878414;0.020720251908673975;3.688576400520141;0.0140205975323748;0.043846232283063;0.1443262392638769;0.02083006334005384;0.13602815659320622;1.3083887547524213;0.09896807546817489;0
0.5248804311499214;1.059026783249804;0.2754994670041275;0.47594168838361284;0.16961787760204852;-2.865643384403535;0.028770224402223515;0.23371150947238206;0.03209832656702425;1.4207520231793147;0.022687876006933772;0.0785153461812989;0.3631925042007921;0.1319087951076424;0.26911279211196737;1.9517414674296525;0.2233495950010814;0
1.1178629705783003;0.4645737303192483;1.249617620990142;1.1471816938975166;0.11091200257688234;3.314934006059868;0.012301472315614357;0.08495121796233163;0.04951137943685669;-1.1122059704606695;0.057102069950035576;0.1152238197206076;0.9504242791153974;0.9033063103320229;0.9847329233419462;1.0141079916008398;0.457828251865274;0
1.7508358891856899;-0.41508309727109705;3.0654263108606457;2.0051440113610015;0.02041294295327289;-0.7713097178750576;0.00041668824001357343;0.022919588858697493;0.05041661112379512;-1.7412314848438175;0.061690629142449147;0.1152238197206076;1.675361117333743;2.8068348734737683;1.898267774300578;-0.22673564322540685;0.5422396460480043;1
1.6448366194032618;-2.8942892252009873;2.7054875045299505;2.3178261395607525;0.0728123921438272;2.5531531496186695;0.0053016444497064686;0.06210628489511505;0.05266652853768438;2.7331639688881104;0.0452482920363006;0.1152238197206076;1.5871824604178486;2.5191481626580554;2.2594123066828224;-3.053607997436572;0.39103206321755296;1
1.1938102025455715;-5.912362361834745;1.4251827997018982;2.008770678029199;0.1246208738562206;-1.1490632668964569;0.015530362200688047;0.15450889508058674;0.02031857568674342;0.658540013607853;0.018736616702355477;0.048944631385744904;1.183575259127311;1.4008503940182813;1.9832811628336309;-5.878374903993044;0.273022169088353;1
2.4638934632060043;0.3137764354037458;6.070770998029278;2.866989672291605;0.1464791824976649;-1.370134759715258;0.021456150905184216;0.17970645278086494;0.023242493791502446;-0.3837046840331606;0.028678494952584926;0.048944631385744904;2.2947321086337875;5.265795450394868;2.7829333433226013;-0.24240318551588125;0.6344251497364831;1
2.4567515117857397;-2.352116976072308;6.035627990661517;3.3001127908847887;0.08033043075763892;-1.541813027696973;0.006452978105707822;0.09634524919237919;0.05449620863833775;1.7369158927521777;0.048116141531559097;0.1266952177016416;2.284166122639626;5.217414875814543;3.0196217564235868;-1.9363078197854318;0.915065581551451;1
1.469697867118562;3.6339569928184368;2.1600118206128505;1.044662269645307;0.22047874100224615;3.000431253441377;0.04861087523393554;0.1722052533978754;0.05261339347617582;1.935433985837001;0.03473284388701944;0.1266952177016416;1.2374552711032072;1.5312955479811121;0.8159472471091425;3.4956360682368626;0.8840263550066491;0
0.23876143734456026;-5.452213748817979;0.057007023962840374;0.3866961250220785;0.33409462353870994;-3.1035923329137454;0.11161921747747232;0.45679898182532885;0.03777771250149133;2.5389236483701865;0.03422300397675125;0.0818293055980421;0.3487604831243356;0.12163387458911999;0.34712172190364265;0.17029602720791281;0.37462093257278195;0
0.3913025037400767;-0.41380081194980534;0.15311764943325273;0.4804012433772614;0.4139243019114224;-0.06627542754389282;0.17133332771285834;0.42520441585848634;0.034586776322526706;2.0324094234940446;0.026575405322728556;0.0818293055980421;0.361020602874959;0.13033587570019886;0.45778822501156613;-2.132188673125233;0.29794742886718173;0
0.3942542429371559;-1.931056224329458;0.15543640807394993;0.5272076765281982;0.3156076736276597;-3.289222122556307;0.09960820365266336;0.44970800946316025;0.020554411655267918;-3.1198638456859165;0.028041195064749624;0.0448659121035994;0.3082825219798346;0.09503811335824719;0.3827516032992808;-0.828584262718703;0.21651670412198232;0
0.5530214840066645;1.8330371170451407;0.3058327617729335;0.35489339566203326;0.2221464845825256;3.131596616472759;0.04934906061237428;0.15456077992732675;0.019702085919838953;2.8714285714289183;0.0142755174875089;0.0448659121035994;0.2276557252810149;0.051827129253224934;0.16517116533926512;1.4632160866131336;0.1381913464965469;0
1.1087129518709682;2.9092347953680537;1.2292444096464359;0.9680551183918399;0.056568170766964236;-3.529757804073588;0.0031999579439204273;0.08072131555192108;0.02758166374857197;-3.855434540086227;0.03925767309064955;0.059141429591108303;0.7008076054053042;0.4911312997939165;0.5434740037715555;3.3859397315467525;0.33528638786343556;0
1.1151023140215173;2.858448740336236;1.2434531707361425;0.9891183518524237;0.058311543860729495;-3.201505543243684;0.0034002361474217793;0.08182198384618333;0.020416950700875933;-1.6673559661405122;0.02472723564800655;0.046905271744672204;0.7027394183244564;0.4938426900669954;0.5457376708846382;3.363628706577046;0.33657513427098723;0
1.0452031595441083;-2.194095044991256;1.0924496447209864;1.3306497956429153;0.2394760309028977;2.8013833442353615;0.057348769377005615;0.21168395197965073;0.019534255185753177;1.3576906800120891;0.016314877128581623;0.046905271744672204;0.6485979990343841;0.4206793643514069;0.5625305934147333;2.039018985895945;0.2936392644234747;0
1.0161744901654322;-1.326002388552883;1.032610594462976;1.1958616046207273;0.2619473991560299;-5.104256739787273;0.06861643992460843;0.41701593362459954;0.015283863332937245;3.069090156648418;0.012745997756704399;0.0326297542571633;0.7218641342374261;0.5210878282983488;0.7875697097214411;0.9340591790132748;0.34030193259042457;0
0.6337008856390299;0.8144375732656997;0.40157681245969085;0.5705651431732452;0.19465781938544532;3.9936187785068427;0.03789166664789665;0.09931441109642769;0.013790831874286093;2.8513799741643098;0.011981237891302125;0.029570714795554197;0.269687517923618;0.07273135732380177;0.2247436164205292;2.6329707268710045;0.15209788650660383;0
0.48839498110039103;-3.6178713711893664;0.23852965756405134;0.6835766215186521;0.07440198135636496;3.95724143371719;0.005535654829752879;0.039161065356811076;0.012762981105685602;2.7907197827148345;0.00815743856429085;0.029570714795554197;0.4048570521016546;0.1639092326364419;0.5446293587420172;-2.936950900936967;0.20479906265263442;1
0.4536418593950715;0.2238312630538637;0.20579093659541783;0.4738224823293349;0.18532696093968273;0.7499996215394518;0.03434608245113869;0.20838017545239307;0.014042981720617083;-4.025951241805359;0.020393596410726973;0.029570714795554197;0.41215917289780585;0.16987518380380343;0.5776965925343698;-3.5969836984936485;0.20733682159607394;0
0.33431317112605524;1.5957183443494376;0.1117652963883591;0.2565661001915249;0.2225572870672972;-3.196324439800687;0.04953174602675533;0.30393926609249977;0.011920517940756848;-5.28453301605153;0.018864076679922445;0.0234526358723361;0.31358070582342157;0.09833285906471527;0.2702793042395366;2.1742308301356115;0.143836131505963;0
0.3214917316629169;1.7607153327935539;0.10335693352762097;0.24744777466813095;0.14394197694626862;2.1839592308049767;0.020719292727200127;0.10290298466104542;0.019391797458408595;1.7797532332403172;0.01325583766697263;0.0469052717446721;0.17891495598679458;0.03201056147575664;0.1959951560464872;-0.4960572680438471;0.07936224815617478;0
0.13851327713248102;3.0827539767486805;0.019185927941979486;0.08277006309998924;0.054181892254355525;3.317305827983809;0.002935677448262591;0.030517154142735592;0.02041058399918766;-1.1162718264892177;0.02396247578260422;0.0469052717446721;0.1227645275139303;0.01507112921571855;0.0765945323138455;1.7649146179655784;0.05594475034775289;0
0.150777170144091;2.9420945187504053;0.02273375503666017;0.13101549949958113;0.05513253020378654;3.436906015766713;0.003039595886671435;0.03579820212502427;0.011879561659548935;1.4147273338781527;0.011089018048332774;0.0275313551544814;0.1265945862923627;0.016026189278534466;0.10752179773836756;1.7197422636961655;0.05738372092667042;0
0.371567799986956;1.0889622522180549;0.13806262998714655;0.3910646905320745;0.09424409477422883;3.7776335842843807;0.008881949399813828;0.06155068027732136;0.005369480057775525;-1.2892561983221196;0.007010298766187374;0.0112164780258998;0.2944149908022066;0.08668018680906342;0.29571715404615095;1.6536669859196707;0.14531211979000447;0
0.47386337424411457;2.4301486754879527;0.22454649745001776;0.33154557808343954;0.09737785272282935;3.980142890257916;0.009482446200909045;0.053443016362625606;0.016611577427928518;3.4483641238578144;0.012873457734271372;0.0346691138982358;0.3692739269572111;0.1363632331303997;0.2483911333289095;2.61102930709621;0.17288909794673277;0
0.7773489916076028;0.8211777129794608;0.6042714547533571;0.6886483218316286;0.1812032937100655;-1.4851466896732965;0.03283463365137626;0.23795242783725734;0.023893221889734667;1.2967177391742695;0.0187366167023554;0.0581217497705719;0.5427450106087779;0.29457214654072245;0.4880040438479809;0.9095390695642056;0.2347970651261534;0
0.8585284037665953;0.6669100613331569;0.7370710200740181;0.9470538772530441;0.22462653210636419;-1.387311465948855;0.05045707892613146;0.2675455631472865;0.02525766675032511;1.374753548665355;0.024089935760171273;0.0581217497705719;0.5778709267270129;0.33393480795633673;0.5243202558324165;2.0538584684770544;0.23764342854255058;0
0.5271859474421993;1.2519359523710563;0.27792502318052925;0.42053139067178114;0.24876352962767623;2.274282960745243;0.06188329367281975;0.2363017926843256;0.03262278304495471;1.9002681180340666;0.027148975221780332;0.07647598654022619;0.3611683771959713;0.1304425966863714;0.348490225068685;0.5710489210956915;0.12619546915597823;1
0.2933872860573432;-2.9906569905984295;0.08607609962009333;0.3951735682338713;0.07130450794731034;-2.092091898905183;0.005084332853608045;0.09293917898290927;0.014094560973569077;-3.30306490495229;0.020266136433159998;0.029060874885285998;0.2654291776981311;0.07045264837350607;0.3444682916940307;-2.540496364770597;0.08737510161009968;1
0.27062463250547764;2.041972870085708;0.07323769171872481;0.19261415977396812;0.09659499725733772;1.8722549113375866;0.009330593495145083;0.07252743109663484;0.015527813183908407;-5.716541664066119;0.02561945549097587;0.029060874885285998;0.25227726375452414;0.06364381780746975;0.23707762323557047;0.99543534086793;0.08207850447448357;1
0.24616424761855854;1.8016386343190849;0.06059683680561101;0.1792064235543509;0.09852241115068211;-0.6589680521816348;0.00970666549894405;0.1091268335057547;0.021526275835041728;-2.3525435941204655;0.02957071479555422;0.0448659121035994;0.24539237351598614;0.06021741697980925;0.2332200368884676;0.8717161684023154;0.07973842571357051;0
0.41449444128591;0.04050684025066609;0.17180564185691868;0.4863251643948474;0.12108872670502152;1.0137729952221104;0.014662479735043393;0.12215927946671123;0.019246034555090243;0.662938750385953;0.020138676455592926;0.0438462322830631;0.41661042270998727;0.17356424431059428;0.462671064670904;0.23165126536316194;0.14852231020191103;0
0.5021937341398134;-2.6415137591593325;0.2521985466092896;0.6579742780611979;0.10172619423102654;0.9099908128385845;0.010348218592728537;0.09457235233903216;0.008028966935874534;0.8756503642273863;0.007137758743754476;0.0193739165901906;0.49886319142806235;0.24886448376179157;0.6599782047566096;-2.8119995608458126;0.199705389895206;0
0.6502567300653213;0.9253124265840142;0.42283381499524414;0.5895996923889342;0.22505627605294456;0.7238764378083324;0.050650327390819185;0.2252137687580138;0.011843951656317823;1.3041564406017532;0.011981237891302073;0.0265116753339451;0.6857087071952711;0.4701964311234101;0.630594640082065;0.8907898118239892;0.34078848143468476;0
0.6308174848992283;-4.260745752918416;0.3979306992545881;0.9225309994692525;0.3527352456410095;-0.5640716503132559;0.12442215351742332;0.4102919388556616;0.011964050104890014;-0.6468584561074415;0.014275517487508898;0.0265116753339451;0.7043239440691283;0.4960722181890927;1.0021266181995294;-3.8353735361873724;0.46728138677751896;0
0.5318748470914938;1.9687679189523806;0.2828908529685999;0.5027691711415323;0.3602420135536363;-2.8061430644746537;0.12977430832917825;0.48678492537408186;0.01711321284140478;-1.2000000000004825;0.019883756500458774;0.039767513000917604;0.6045909564103262;0.36553022457315293;0.6214633087290417;1.2833209456359889;0.5504464451136403;0
0.4079702746802751;1.7150930069101467;0.16643974502269912;0.33220043380331243;0.30690657737364085;1.1484915178029222;0.09419164723520261;0.26919066927138036;0.014525218845614994;-1.7096973044550214;0.01809931681452015;0.0326297542571631;0.35592924263558356;0.1266856257631401;0.3101822887545531;0.8931628865983381;0.5276907994744979;1
0.72785941621544;0.2484826494075847;0.5297793297734812;0.8289929412910736;0.2182481670862626;-3.109836070599263;0.047632262436513195;0.2951462891988216;0.04381855781783989;1.7125050502417238;0.043846232283062975;0.0958499031304169;0.29459137537999114;0.08678407844827485;0.27067304031771067;0.8682696803863816;0.46392769276060064;1
1.0051387226193063;-1.8963086449959512;1.0103038517087708;1.2474214959543999;0.22399503485469938;-0.038043808425275216;0.05017377563955799;0.23269148298224968;0.05661672155265665;0.20622112246880064;0.057866829815437795;0.1335780564902619;0.6493491774784902;0.4216543542919918;0.6416667257514574;0.763750296081966;0.7262132293488376;1
0.6990723995105036;1.5175923028690335;0.48870221975737316;0.4334365140739028;0.12775182319891393;-0.4591169420489223;0.016320528330646563;0.1417302646559862;0.06092249158289701;2.542173163879905;0.05404303048842661;0.1335780564902619;0.6200214372892973;0.38442658269828595;0.40207628640732995;1.5079649051357862;0.6268111167438484;1
0.43599795980299216;-5.575824841790736;0.19009422095237158;0.7160198689652537;0.07702984451741213;-0.32666960879364026;0.005933596946376688;0.094364609019359;0.0622499010956522;-2.0311764057585826;0.08233914550831029;0.1335780564902619;0.4285587474560454;0.1836626000210945;0.6989482720478932;-5.57628842208474;0.32027833412580725;1
0.3591476232597955;1.8646812589637154;0.12898701529316;0.32898344627866516;0.03565697701637509;-3.38222117436408;0.0012714200099463015;0.051785697482451376;0.06053941943282784;-2.3181677372993814;0.08131946568777393;0.12949933720811652;0.3439160725759349;0.1182782649760557;0.32298050968284575;1.6828736955533898;0.2342028691015317;1
1.7835421678489272;3.5175499884736503;3.1810226644952504;1.1053637304314754;0.12271910899532637;2.9826708930086774;0.015059979712606792;0.08930039163599879;0.05059074746975879;-0.014396561465000346;0.05276843071275612;0.119302539002753;1.7352242627042156;3.0110032418773884;1.079536733925444;3.5332253281595705;0.7798725903035705;1
1.804120646371541;3.411368526541569;3.2548513066640665;1.1264083248274628;0.12446188485333762;-1.7824224835741571;0.01549076078124547;0.15719749627047092;0.038256116616480804;-2.488203304859468;0.05021923116141533;0.0846334251045171;1.7633308711427957;3.1093357611252106;1.1082696177719913;3.3845425506906004;0.8028726926484199;1
1.8877777827937199;3.6234940392680954;3.5637049572095734;1.315523933952342;0.1417982995526337;-1.4973768357368424;0.02010675775601844;0.16960053599611197;0.03719968449842577;-0.48836558024636467;0.0425716325073927;0.0846334251045171;1.8333796281836992;3.361280861038999;1.2358178747205715;3.6325248659676888;0.8861655118911501;1
1.887092601792896;3.6139985241603085;3.5611184877414814;1.3204489286610284;0.22686980968296075;-2.0690438022161164;0.05146991054558283;0.2866044885245777;0.02960000143717397;-0.5765902900179274;0.032629754257163225;0.0693382277964719;1.8213878479939565;3.317453692820056;1.3257979331663003;3.4430585443347965;0.8677886729616824;1
0.9520383340397812;2.4743002905315645;0.9063769894812421;0.8440512782122104;0.25677851969500026;-0.8658456871136799;0.06593520817675563;0.28892031123182527;0.03903633923519851;0.4031098623043512;0.03849291322524723;0.0927908636688079;0.9691058618300934;0.939166171433448;0.8882999899937003;2.0688185886077086;0.5833116267062205;1
0.9477737063900122;2.5162234378181054;0.8982749985242612;0.8398308951598809;0.19753215805501476;-1.996081174080059;0.03901895346587133;0.25992752407622366;0.04079887497974484;-3.136202703172872;0.055317630264096945;0.0897318242071988;0.8719848035037362;0.7603574975414494;0.7034547403853573;3.008818769904167;0.49337491595508487;1
0.9369950844886781;-2.8165047991716765;0.877959788355945;1.2406418910230266;0.19689372264441773;1.3723538632309058;0.0387671380167769;0.14714272757800573;0.03374072094354051;-3.3356350481144332;0.048689711430610676;0.0693382277964718;0.8380871398449635;0.7023900539735114;1.2416227134735924;-4.436450893984089;0.38973818013564804;1
0.8857243871946167;1.9301845122264645;0.7845076900712793;0.7199148469096288;0.22656020033428326;-2.093698495575458;0.05132952437551056;0.30097023832894365;0.02780536805723243;1.0499124660110954;0.023707555827470098;0.0672988681553991;0.7599458295888466;0.5775176639094803;0.5244357146731624;2.799365118923081;0.3180425098212562;1
1.1561522151457893;-2.8899433846387304;1.3366879445865152;1.5880859698806264;0.21600867886279268;-0.7936583806898714;0.046659749344049095;0.2716340723187207;0.02942973323067571;0.08098701665549868;0.032119914346895026;0.0672988681553991;0.711660469165789;0.5064606233732709;1.1469957192752767;-5.528848939945647;0.35605081946719047;1
1.111461204830212;0.9460695482127157;1.2353460098426265;1.1716090871142575;0.21620996214408997;1.7404333406508616;0.04674674773034882;0.13739039174027257;0.024292859691484987;0.34451433756168015;0.023707555827470153;0.058121749770572;0.5344180374298583;0.28560263873038144;0.5327450130937184;1.548631762455603;0.23914566825096623;1
1.2177256109353938;0.4473650724102036;1.4828556635279782;1.258638353785069;0.3189156127713866;-0.6712487121541546;0.101707168069349;0.3988951499668043;0.04027842850844924;-2.0976244675177877;0.05098399102681755;0.09075150402773521;0.8141857449047214;0.6628984272060561;0.7276764106953997;0.8102150196604008;0.3351071479737947;1
1.7978622793324261;-1.0472735317307063;3.2323087754463864;2.0599906554846994;0.27528646100962384;0.8928332321015233;0.07578263561520314;0.24162489905989193;0.029580968418330373;1.1041747595914657;0.026766595289079202;0.0703579076170082;1.3234973494863795;1.751645234097472;1.6579866644148602;-2.028441594619011;0.4544829059088855;1
1.114930320713969;1.3163385312501141;1.2430696200473537;0.8612460031368903;0.15161548887895296;2.1501553341235304;0.02298725646800391;0.11166984441146033;0.013968745173879431;-0.8963778792384787;0.015805037218313424;0.032629754257163204;0.919271422827353;0.845059948827026;0.6087454683464433;1.5604949088150981;0.26881640545868113;1
1.248613766074977;-0.8163500590914197;1.5590363368319373;1.5249781396839879;0.1409218471682103;-5.784503825894593;0.019858967009300416;0.23549966201788486;0.035654788190594346;2.9615157291864413;0.027531355154481484;0.0795350260018354;1.1185754126037966;1.251210953681754;1.3262429993259448;0.02324145179051129;0.258899043099254;1
1.6992148275025658;-0.5123981802200372;2.8873310300045745;1.8436242738021145;0.14888801824883996;-5.637733194908415;0.022167641978066904;0.2420495216551357;0.039210191744454156;3.5073588420341792;0.02855103497501784;0.0836137452839808;1.3887747842853473;1.928695401466813;1.5393269132424363;-0.5974922766725612;0.33811330936727635;1
1.9895332412506181;0.35531184459687815;3.95824251804119;2.2342414387038945;0.2749424141194391;1.946242325894664;0.07559333108182513;0.1860440453283303;0.04396069804350586;2.5337395972490704;0.035688793718772316;0.0999286224125625;1.492743776537076;2.2282839823901717;1.3603638317518234;2.4683596237391043;0.40544504183253344;1
2.1266450268085673;3.871542296520797;4.522619070049612;1.338877843022797;0.22859044179533722;-5.6785260064801;0.05225359008018745;0.37404391357200284;0.04786706242849482;3.4374543090531233;0.0372183134495769;0.0999286224125625;1.567898447133689;2.458305540524233;0.8312027240088158;3.9483969972085546;0.4489844177261409;1
1.210154030475622;3.593102672855018;1.4644727774763926;0.8781367356114163;0.18438006220007758;3.474643074387089;0.03399600733690448;0.11941599541913916;0.017729922648102057;1.8963567694104189;0.010706638115631703;0.0428265524625268;0.8361941805794496;0.6992207076349373;0.46442864839132225;3.825181658931829;0.2675542402489961;1
2.1131661487558357;-2.623701193459347;4.465471172247572;2.956480243472677;0.08693238035827149;2.04859241771109;0.007557238754755187;0.06910484713525022;0.033833042006422384;2.259207396739372;0.020138676455592953;0.0805547058223718;1.5079397850559997;2.2738823953547342;1.9848964027856892;-1.4868335661229626;0.3813959383368398;1
1.8071543205442728;0.13625731748941483;3.265806738261832;1.8147275519488528;0.22293916716871456;1.9926046056371316;0.04970187225788005;0.21780974928489494;0.03884470465931144;1.3445316080588778;0.04091465279902105;0.0841235851942489;1.388951957254805;1.929187539561954;1.5874673627672533;-0.4452650036158765;0.33991163638656047;1
1.6079258360424276;0.14053157445271403;2.5854254942127395;1.6783632267685151;0.28015964597615023;-3.854745247332392;0.07848942723348183;0.3985867614132337;0.03887592000524343;2.056270309643983;0.037855613337412004;0.0841235851942489;1.46854630019492;2.156628235816188;1.6473911995302752;-0.5347928275339253;0.36473923911436873;1
1.707097018695748;2.91464866570875;2.9141802312399108;1.3826935584346747;0.2984370756857055;0.5438957099827739;0.0890646881438355;0.28431707084645397;0.03604481628787476;-0.9254295973531903;0.04091465279902112;0.0841235851942489;1.5891802434642806;2.52549384621719;1.3730634816723857;2.9032478110296793;0.44322609309027805;1
0.8663658204337393;1.0549122012691523;0.7505897348158262;0.7924051642090375;0.37667979599587254;0.5916529805015358;0.14188766871149217;0.3965087626193893;0.03208988989605029;-1.4932344603281251;0.038365453247680245;0.0739267869888854;0.833067565771449;0.6940015691403675;0.5745277046606656;1.8823888446680517;0.34226237635445805;0
1.0224995788149698;-2.9113272722977914;1.0455053886767904;1.3825993160801007;0.35982490248515614;-3.8556657531597054;0.1294739604484521;0.5370046135885258;0.07516811018763787;2.6765276047611515;0.061945549097583395;0.168247170388498;0.7596014742609017;0.5769943996993354;1.2607843353792467;-5.820929531117955;0.3985466053109731;0
1.1570281724473694;-3.8700517070491642;1.3387141918368994;1.6982105595197905;0.22528405057024764;1.4434247484722178;0.05075290344133789;0.23877532281239544;0.07852362236702887;3.754065252905473;0.04665035178953807;0.168247170388498;0.7694429096973769;0.5920423912835658;1.2880539686191006;-5.873572336312023;0.4017939341326531;1
1.5955898943745943;-2.6671503167055803;2.545907111030329;2.1017428814966475;0.1106179409292025;-4.855052742094394;0.012236328855416534;0.17293166156034778;0.0769436095846375;3.230444447652175;0.058121749770572044;0.168247170388498;1.1423404922795257;1.3049418003014293;1.5378623225392496;-2.128837606295706;0.5276820954701764;1
1.4813322710420975;0.7234480414239375;2.1943452972307385;1.3827274755888277;0.1594089775969986;0.950626375737393;0.025411222138520404;0.13675167457973014;0.06962302206686023;3.5600955274105566;0.040914652799021074;0.1529519730804527;0.9974409525724098;0.9948884538685564;0.8877355517174028;0.804076197264596;0.41882253687406723;1
0.7831772289626605;-1.076969841799464;0.6133665719656315;0.9010597538218925;0.23589743333483504;0.5725231542842568;0.05564759905396294;0.25794577895744775;0.017574692722691552;1.3472207460921766;0.013383297644539601;0.0428265524625268;0.6695750795176252;0.448330787111034;0.9467674248571862;-3.7323352217548322;0.2296768575733013;1
0.7618315371033327;1.3323467615497453;0.5803872909252266;0.6496268468345359;0.33974780231717294;-1.6868643875718394;0.11542856917934881;0.4185072519465689;0.04077311668667885;2.844252274477004;0.035306413786071175;0.0876924645661261;0.6381872986718756;0.40728302818610573;0.37726234574886597;3.251809297822824;0.20552696120787706;1
2.6695917063773438;3.3032449416839924;7.126719878758698;1.6886691778741652;0.3801564527856502;-1.2816720428025157;0.1445189285945683;0.44517535933242325;0.05130756232595389;1.2688686859162797;0.0441011522381972;0.1228714183746302;2.528061123591522;6.39109304461483;1.4436701399256404;3.2528241369287407;0.6060266306814257;1
2.3594279284634316;3.7723647320914004;5.5669001496132395;1.510015741691379;0.35568496270733674;-1.250290942539273;0.12651179269611953;0.41636777649505596;0.05452268460715688;0.21172580925936124;0.060161109411644674;0.1228714183746302;2.177622194561544;4.7420384222470355;1.7281281395657588;3.35417717715573;0.4675520881302192;1
2.3134461730038316;3.742899267800002;5.352033195386075;1.2890491100291555;0.30882835133496384;-1.157978625709763;0.09537495058827185;0.36103895826187316;0.05466235229575747;2.7781924588124696;0.043336392372794824;0.1228714183746302;2.0407360536034114;4.164603640476825;1.2040313621486245;3.3568348084143196;0.4187162909211212;1
2.1681741357041546;3.957190146747191;4.700979082736457;1.238741737008199;0.24006276145593292;-0.8721198709948776;0.057630129437848156;0.2791889046328939;0.01396254097851507;1.4468088888828117;0.009686958295095374;0.0341592739879677;1.8167248105359564;3.3004890372169062;1.1285072429596523;3.873439355836478;0.35217474356166506;1
0.30314448188373744;1.7077024244998054;0.09189657689655963;0.29901592020933476;0.15141060610941592;0.33167923958979806;0.022925171642420698;0.17081761560810804;0.00841235851942587;3.181867932138349;0.0065004588559191695;0.0183542367696543;0.30680973770011066;0.09413221514761072;0.35891122147490506;-0.41133464803645126;0.06990435592324475;1
2.0623151761500047;3.626087629150394;4.253143885778624;1.424548653164179;0.06351405222714049;-1.1756001575879473;0.004034034830311929;0.07629210258707753;0.008902754770670597;-4.608173073192077;0.013383297644539723;0.0183542367696543;1.7791128637558704;3.165242581981614;1.2136362432323997;3.6137801060045653;0.3318189486910952;1
2.0161966447994875;3.775641393668522;4.065048910500711;1.3675456420654544;0.12983370849128473;2.6147117498595662;0.016856791860599896;0.11204023626659332;0.044103116895438776;3.583552755292029;0.027148975221780405;0.0963597430406854;1.7624132651723239;3.106100517255372;1.1941007527933198;3.6865173248395173;0.3275110430390562;1
1.9768052488294128;-3.6949190630747673;3.907758991799516;2.839198156557015;0.28358355174994737;0.2837836379518297;0.08041963082311507;0.31342366384105746;0.048163683406817315;3.443371242716541;0.03479657387580313;0.1040073416947079;1.706839075000933;2.9132996279500407;2.2650672232453424;-2.469997820226391;0.2886729573349349;1
2.9010137755909704;-2.33636493046226;8.415880926168576;3.7494844946138586;0.46569824461602677;-0.4423386936741771;0.21687485503844872;0.5278798944490548;0.05514349372058142;3.262539581082045;0.036581013561741524;0.1233812582848986;2.5917919972084014;6.717385756793515;3.1977167687631107;-1.7915228913482277;0.4945309529129826;1
2.1464386093782357;1.4367761935437766;4.607198703829574;1.7597670547109123;0.6719381541912403;-0.7314003683983792;0.451500883057931;0.768857360452863;0.05731108594431096;3.6284411672543797;0.03772815335984504;0.1233812582848986;1.954174013597435;3.8187960754195083;2.1395927838841047;0.05945974902975415;0.4925638576039953;1
2.2811733768862448;-2.2119334436364095;5.203751975414593;2.8931339895973855;0.9014999992588236;-0.8764472214848968;0.8127022486636589;1.0363560618524523;0.018439014295937063;0.8183561054523718;0.0183542367696543;0.0428265524625267;1.9996014547356156;3.99840597778079;2.538036786964195;-1.9506287802643332;0.48768789341810653;1
2.2811733768862448;-2.2119334436364095;5.203751975414593;2.8931339895973855;0.9014999992588236;-0.8764472214848968;0.8127022486636589;1.0363560618524523;0.018439014295937063;0.8183561054523718;0.0183542367696543;0.0428265524625267;1.9996014547356156;3.99840597778079;2.538036786964195;-1.9506287802643332;0.48768789341810653;1
0.6843700301104266;-1.9715718425864992;0.4683623381133462;0.9196628569709648;0.3550015492471111;-1.160787068560312;0.12602609996784905;0.41295128651364754;0.007657505790697703;2.2703573722631223;0.0059906189456510744;0.0178443968593862;0.3932548178745178;0.1546493517815202;0.5453050048592119;-2.6777819292545164;0.22124505557168386;1
0.6843700301104266;-1.9715718425864992;0.4683623381133462;0.9196628569709648;0.3550015492471111;-1.160787068560312;0.12602609996784905;0.41295128651364754;0.007657505790697703;2.2703573722631223;0.0059906189456510744;0.0178443968593862;0.3932548178745178;0.1546493517815202;0.5453050048592119;-2.6777819292545164;0.22124505557168386;1
0.6843700301104266;-1.9715718425864992;0.4683623381133462;0.9196628569709648;0.3550015492471111;-1.160787068560312;0.12602609996784905;0.41295128651364754;0.007657505790697703;2.2703573722631223;0.0059906189456510744;0.0178443968593862;0.3932548178745178;0.1546493517815202;0.5453050048592119;-2.6777819292545164;0.22124505557168386;1
1.0160959389212505;-0.37189314751626945;1.0324509570922578;1.0884208130601616;0.3976223820754254;-1.1886515921973668;0.15810355872733556;0.4627419655183753;0.032436331368904996;2.804156718429642;0.027913735087182652;0.07035790761700819;0.4011323317836361;0.16090714760217714;0.5520534026830151;-2.7344111556123742;0.2248233678709099;1
1.021629742072114;-0.6860591087656811;1.0437273298863343;1.1303891983430123;0.4326237991300266;-1.2042579930986754;0.1871633515736976;0.503591444106929;0.04131905697839256;-5.84246136362625;0.06882838788620367;0.0764759865402263;0.4346011556305612;0.18887816447541925;0.4936525896106252;-0.032756711104987346;0.27904153383866803;1
0.9033744111115418;-2.4894415997353665;0.816085326651125;1.181543639531696;0.45998062417697516;-1.2133488166129158;0.21158217461823967;0.5354997222793084;0.036313345371925876;3.8816008919101073;0.019118996635056573;0.0764759865402263;0.5896864990536399;0.3477301671661384;0.9297213085294325;-5.264393963940249;0.33981220359378683;1
1.5839033715726432;1.5493698568926675;2.5087498904791867;1.5646826938595402;0.4796790962422093;-1.218622892798157;0.2300920353717427;0.558466800035514;0.023123361824102254;3.720328442027384;0.012491077801570275;0.0499643112062811;0.6067627049683822;0.3681609801405481;0.9787541474246721;-5.4516820861129265;0.35297705077610664;1
1.499569374802755;-0.4985475053580739;2.2487083098463256;1.622934256370282;0.49171155441423575;-1.2214135599983464;0.24178025274446394;0.5724926773755452;0.029954993008194878;1.9545201263747582;0.0224329560517997;0.07137758743754449;0.7292258833244573;0.5317703889103349;0.4772752957097457;2.0941477878243173;0.547714081129884;1
1.8815907339560716;-3.6941215157054064;3.5403836901093477;2.7022076451749717;0.4960740439149555;-1.2223534738108714;0.24608945704613724;0.5775773542994022;0.030093513945903306;-0.23817062352285312;0.03161007443662685;0.07137758743754449;1.0525515998005084;1.1078648702426095;1.4150262476699482;-3.034036618924322;0.5953101140037892;1
3.9882375466911624;0.5474449479789953;15.90603872883714;4.277821323863157;0.4927652483546022;-1.221643942945592;0.24281758998597283;0.5737208308070851;0.030424245432518954;-0.7707066498821291;0.0339043540328336;0.07137758743754449;3.312202739639858;10.97068698847778;3.0974197774201264;2.132709813279419;1.048137790899884;1
3.342698978976223;2.1615394080399284;11.173636464048686;2.7592398866501564;0.4817861607317687;-1.219133558239534;0.23211790467265767;0.560923106898594;0.031642950237958364;-0.591063535658396;0.034669113898235876;0.07443662689915359;3.1333455539919393;9.817854360721054;2.2344605028126905;2.4998013450565164;0.9088123884889254;1
2.798482549643888;3.512361018206679;7.831504580661357;1.7980343722921721;0.463140330369052;-1.2142593880028425;0.21449896561435464;0.5391841825739294;0.021177287642765604;-0.2142488575257513;0.02243295605179965;0.0499643112062811;2.565281993719927;6.580671707303683;1.5592082885446397;3.7003409166274004;0.6274745352817604;1
2.80078681857789;3.530038850091863;7.844406803119658;1.7819965139952738;0.4368348071281824;-1.2058112064370103;0.19082464871871632;0.5085040578331006;0.03504291820157969;-2.378967995184727;0.04550321199143455;0.0780055062710308;2.482068088720068;6.160661997042492;1.7237566596251788;3.241594113335921;0.5824912546818728;1
0.648557150368109;0.5085523250017872;0.420626377293602;0.6331671322021011;0.4029483631314065;-1.190753555369442;0.16236738335027984;0.468926830456601;0.04949125019077216;-4.298389278272369;0.07290710716834903;0.10349750178443959;0.7491742958508065;0.5612621255635517;0.7839403375638252;-0.09033868342782547;0.22556598996836802;0
0.7000454482690475;0.8476835207679994;0.49006362964221156;0.6625854538847591;0.43005933508217925;-0.40485276644390567;0.18495103169132612;0.46415900620686257;0.03882155566595586;2.714892409165355;0.030080554705822354;0.0882023044763943;0.41915117588834583;0.175687708248583;0.3872663896069328;1.0648604575902674;0.11697941987958231;0
2.491451860113522;2.332032358297896;6.207332371263127;2.2684799834831457;0.36665625817222786;-3.0761421480726217;0.13443681165685942;0.5088443675607235;0.013852735973481776;-0.6266047063786591;0.01593249719588051;0.031610074436626896;0.3173805095797136;0.10073038786107867;0.39330805392155277;-1.891496668698828;0.08423299814259945;0
2.5032680346979186;-3.1213144747078534;6.266350853540381;3.40050837946752;0.24104999401353128;3.374629394432155;0.05810509961392347;0.18955363569216876;0.01899909150696443;-1.867774561644847;0.023452635872336078;0.043336392372794894;0.3782195231333211;0.14305000767919682;0.5489308204584971;-3.7680754357134347;0.10208047297411484;0
3.503274145571964;-0.2182307696365875;12.272929739032975;3.9974477449414163;0.05883131899898349;1.7881917442738509;0.0034611240951601557;0.039386197557103486;0.02213501936724372;-0.7703433062005072;0.025364535535841726;0.0509839910268175;1.4582590882721338;2.126519568528275;1.121365370851449;3.4215694410180504;0.34091021079021794;0
4.81724342504525;-5.065995824034077;23.205834216141692;7.479444750912494;0.02690517654598633;3.3960134282534895;0.0007238885249706929;0.019413524514176217;0.03146549473313593;-4.239457211450883;0.04601305190170282;0.06627918833486279;2.188140373958392;4.787958296146771;3.0719425361306465;-3.3247158814644173;0.4032586059927831;1
3.7939664404271785;3.2724780956306354;14.394181351087676;2.296965427333095;0.023879790471572782;0.5549127617510301;0.0005702443929662182;0.02589374741186301;0.038920748204138454;-4.624669995486364;0.05837666972570607;0.0805547058223718;1.9636588367283443;3.8559560270613145;1.2949928375003594;2.28434217337988;0.32163944307822273;1
3.676955519423961;3.2316913971129537;13.520001891822332;2.237080352316112;0.1357957657176465;3.61579096683667;0.01844048998684194;0.08617918588594797;0.03776803529150901;-3.953641202106377;0.05417049046599365;0.0805547058223718;2.107113278163898;4.43992636701461;1.371514475697392;2.4457815939105334;0.3495175362734023;1
4.093848849301382;-4.9355081211169765;16.759598400926247;6.288920791916326;0.28111769709420453;-0.09636059188631485;0.07902715961954894;0.33597661034027393;0.04275644266711975;-4.906540477738007;0.06666156826756398;0.0846334251045172;2.667025985084336;7.113027605115074;4.027565813784345;-4.514359215388389;0.526629261856007;0
3.7430175533259984;2.1294965289885273;14.010180404506544;3.0151949622987417;0.6027438121650228;0.9698321986672873;0.36330010310322436;0.6000417098222952;0.04397720188807323;1.9512801582165729;0.03989497297848478;0.0999286224125624;1.827378314237707;3.3393115033462437;1.29565497217951;3.304399352983232;0.4663035898173177;0
1.2915353646869174;1.7759533099423077;1.6680635982369687;0.9156955519596464;0.7714423630627284;-2.6356807881645423;0.5951233195278065;1.0179247896387305;0.045553941584855054;-2.7395095558335516;0.06092586927704697;0.0999286224125624;0.7767449825911147;0.6033327679804711;0.805262827331223;0.4396107808387928;0.29030087590484244;0
2.270608997507473;0.028321684734658348;5.155665219561891;2.3177214294265425;0.956658692769735;-0.2296719187714924;0.9151958544518983;1.005049990834168;0.049303347050193326;-4.9741566011042355;0.07583868665239114;0.0999286224125624;0.7358988404701152;0.54154710340526;0.5227285590301904;1.4137587750148093;0.29052669707078643;0
2.2643810035702643;2.2166140108620027;5.127421329329878;1.3808925814094835;1.0224892577531617;-1.7444951693836703;1.0454842822206116;1.2550546135780007;0.0384996654795158;3.4587825474783216;0.027658815132048473;0.0831039053737126;0.9624869558289929;0.9263811401409617;1.1740278745069983;-1.2841050427579255;0.4360446921175081;1
2.6957145220228917;1.5600742495253623;7.266876784245107;1.6781212428112346;1.009198228496644;-1.4637652687562355;1.0184810644007645;1.2152232380985013;0.03897163938000305;3.3503424486322793;0.028168655042316647;0.0851432650147853;1.3370144569366365;1.7876076580575688;1.383366059649232;1.053484763442329;0.5532509905747952;0
2.9685780661775234;0.14190977857133902;8.812455734990285;3.3567698856879953;0.7864859781202995;-0.3773836245214923;0.6185601937798443;0.8752860282499926;0.04206719964257419;3.4541536120497085;0.029060874885285977;0.0917711838482715;1.343510191542358;1.8050196347781835;1.7012563776479133;-1.8895866521977194;0.4561640783647525;1
1.5145347840190466;2.136307820056505;2.29381561200362;1.3718059144627692;0.5887475274444516;-0.5688339405739189;0.3466236510719553;0.6472472973248773;0.038447022788006956;-2.566577928530293;0.0520036708473539;0.0825940654634444;1.599837090167401;2.5594787150752967;1.309266793588396;2.3690670663437157;0.44928411183068084;1
0.5280759523871922;-2.909111522073431;0.2788642114896401;0.7316173162188271;0.550340323732542;-1.070540631350024;0.30287447192603917;0.6325868598341791;0.03455897347465428;-0.006099074721893416;0.04078719282145406;0.0744366268991536;0.4894334467041305;0.23954509875268495;0.3081761519844477;1.6291942320849309;0.11363624747242296;1
0.5762422724169586;-5.439462060835661;0.33205515652026024;0.9224439142958714;0.5748533404674376;-1.3817061011413116;0.3304563630465718;0.6793046264612244;0.014738401003211244;2.2354059610324253;0.013510757622106684;0.032629754257163204;0.6661288261414444;0.44372761301657865;0.8808040093941889;-2.6406150745523647;0.14658148096278242;1
1.0160949604161489;-0.22105059425719276;1.032448968583095;1.1977232542270189;0.4582459700590819;-1.4730519302589737;0.209989369075389;0.5860384555874472;0.012609307502497981;1.039318726835523;0.011981237891302128;0.029570714795554204;0.6716460988499879;0.4511084821004078;0.8842674320443829;-2.5645801014703746;0.14790828007726503;1
1.367608797737276;-1.7917804118908798;1.8703538236483974;1.677662959477721;0.23310640583644776;1.6180342339209002;0.05433859644198669;0.22226839444319824;0.03140106173408656;3.410808590286937;0.022432956051799777;0.06831854797593559;0.9343195437823036;0.872953009893572;0.9483065306438783;0.09233338768110855;0.23039803327277436;1
1.3274617852053305;-0.5903849519552793;1.7621547911805233;1.4518793695452974;0.09242682381324707;-2.6328602813675896;0.008542717760205015;0.1257184586000193;0.03718221138006584;-5.850219841842868;0.062200469052717436;0.06831854797593559;0.9324488180958411;0.869460798368331;0.9281601139279698;0.24818950253729;0.2303181290976828;1
0.9042328632925816;-0.14444851152283533;0.8176370710583004;1.0655637206163577;0.19974901953706975;1.7970371151464466;0.03989967080602067;0.13462744851739306;0.034592803850349865;-4.76833560356145;0.05378811053329251;0.06831854797593559;0.5256829799282415;0.27634259538623596;0.46057947016098355;1.6208494478954272;0.1410194958377818;1
1.0333423932971717;3.4078772864022255;1.0677965017851265;0.6690290030996273;0.3425543670910189;0.3273704573649798;0.11734349441312854;0.39734496755099835;0.06588057600600873;1.1258393778477078;0.07188742734781273;0.1407158152340165;0.5537148700188752;0.3066001572800199;0.40785926386091376;3.1216450407346414;0.14526344884327586;1
0.3941079309053506;1.2325915576256499;0.1553210612024966;0.33402741764314037;0.4024341843213365;-2.8596264441212966;0.16195327271037943;0.54238672770781;0.059791274862528505;-1.2457043742564924;0.06984806770674007;0.1386764555929437;0.46006075776714167;0.2116559008372766;0.35964837597854427;2.759018387467293;0.11918646180235094;0
0.6550342533350809;-1.0676345772626608;0.42906987304224703;0.7548942784467938;0.31040603278285206;1.4701876965053469;0.09635190518798903;0.28936100156835476;0.04318994082076695;-0.9690146639707393;0.054935250331395874;0.0912613439380034;0.6648745759382646;0.4420582017290871;0.9142520185061733;-2.8321872353918938;0.1918741490831089;0
0.6281775149723982;1.2571396090466465;0.39460699031689755;0.5100866892304365;0.15166903106280893;-1.564530273585106;0.0230034949835313;0.19005245066806697;0.021523759995729187;3.9532680719996804;0.011853777913735097;0.044356072193331195;0.5858729643404551;0.3432471303450722;0.3843890174796769;1.7941206634258666;0.1781560173954321;0
0.3193497037892481;1.808361945286773;0.10198423331028049;0.27319112714979576;0.17728858443917003;1.4817284316750516;0.03143124217244472;0.14314982511576924;0.02075733119090707;-1.7110876214941708;0.027148975221780277;0.044356072193331195;0.27638446506270764;0.07638837252799906;0.3912917417558206;-3.217503137060694;0.09254078785101749;0
0.3083934293013621;1.820916013950315;0.09510650723625423;0.19452002972311266;0.26124127789614177;-0.8304702913250512;0.06824700527680917;0.31985603176078237;0.015471912315989609;-4.840916827232839;0.02383501580503713;0.0311002345263586;0.25822783160579343;0.06668161301583002;0.2507916777501271;1.6345677074609188;0.09000146816064379;0
0.21112952226429782;1.630688540327128;0.04457567517155062;0.1364635859273542;0.2752524719562591;-2.3766863905110345;0.07576392331803121;0.3643163576322086;0.012167811284933033;0.6080588048628002;0.012108697868869076;0.0285510349750177;0.3095936181189474;0.09584820837998065;0.2905947706254093;0.758502485367373;0.10942223888428032;0
0.6039322074401184;3.3462172119170184;0.3647341111834943;0.4792559546834383;0.20720826885384308;1.5358864060932458;0.042935266681406514;0.1810453786131525;0.01637517641495775;1.9207427143477442;0.014402977465075873;0.0377281533598449;0.5983222103933988;0.3579894674500426;0.5037094761056142;2.6829488171389215;0.24874157198101415;0
0.9026624078245402;-3.245500955045891;0.8147994224995966;1.2625810491467608;0.13057596147366166;-2.313887404600912;0.01705008171477117;0.1666645014353394;0.023376312781670155;-2.8329781778384167;0.030972774548791677;0.0520036708473538;0.8042345842013289;0.6467932664254843;1.145236075103103;-3.668331299806212;0.4139597266966129;0
0.7413182434354159;1.582731506070111;0.5495527380501705;0.6864107868216529;0.16927030786560984;0.27534816984160493;0.02865243712491834;0.169505175217321;0.018739073252902475;-3.305962166827987;0.027148975221780378;0.0382379932701132;0.6798785181863636;0.4622347994912855;0.7029299056577403;1.4674686633419025;0.44285047093204905;0
0.29696409974045196;-0.17375076725789107;0.0881876765346571;0.33915542515673913;0.21894168285305413;-1.1802946501036669;0.04793546049052733;0.2632061810728996;0.03117814522970248;-0.511928685786625;0.0354338737636382;0.07137758743754449;0.31679027813591015;0.1003560803214273;0.2486385249642199;1.7185459701969865;0.2862985651632288;0
0.26262009733867364;1.0616958271708867;0.06896931552617441;0.22571062530072827;0.19770922140327313;-2.057695951749219;0.03908893622788847;0.26669399582398456;0.03276754496446756;-0.4161282336716301;0.0392576730906494;0.07137758743754449;0.26806190373651984;0.07185718423484723;0.32513965294859304;-0.9946142561341258;0.3166667084009612;0
1.6332703336018364;3.4702397269106235;2.6675719826238535;1.1810547576296617;0.12165247660855985;-5.70981149798273;0.014799325064996203;0.1999906419168319;0.04756927491499338;2.5959483615414705;0.0316100744366269;0.11114510043846221;0.997938900616563;0.9958820493637943;0.7924316724561438;2.8533848989107575;0.7831142671103953;0
1.5162301690110773;3.705670967279108;2.2989539254193603;0.8324856190614774;0.1903364824485893;-1.1598283975524541;0.036227976550902145;0.24369166564825384;0.03993709804744804;-3.6998252559541314;0.05812174977057204;0.0825940654634445;1.0169873724575518;1.034263315738115;0.6281046597034807;3.5554694309720247;0.8339070366292133;1
1.8244648866199895;2.1627532504790263;3.3286721225092912;1.1022916457755443;0.16600512056274977;1.3014512115577972;0.027557700053053084;0.12991537933615094;0.03471407062414444;2.269989674535701;0.02141327623126342;0.0825940654634445;1.0030065745614978;1.0060221886135896;1.285846457197381;-2.0561175055664354;0.6749098017708245;1
1.9160539053119594;2.0801999585667534;3.6712625680612114;1.695738328729293;0.1384596740078597;1.1709144623186134;0.019171081326362773;0.11303714848778657;0.06066523656096503;3.278962139900873;0.034924033853370055;0.136637095951871;0.8278328896785538;0.6853072932335448;0.9913409774025186;-0.8821156292548356;0.5025897080627861;1
0.9047989246671451;-1.0620519021990376;0.8186610940788221;1.0440551003555054;0.3091152414744558;0.6771232270307816;0.09555223251181112;0.3099652358409823;0.06799054992625528;-5.747463387814262;0.11318446007953492;0.1254206179259712;0.658885306296501;0.43412984685343387;0.8896596011401643;-2.9614758309734235;0.4263379201819872;0
0.569360125926588;0.26533980644822464;0.3241709529951402;0.6187293098100546;0.3545441425378093;-3.187583574481433;0.12570154900787042;0.48257241503537707;0.056517685754651305;3.1153448141495375;0.04225298256347512;0.1254206179259712;0.5130841254442482;0.263255319782889;0.49251711558074085;1.367556508702977;0.2766836765269932;0
0.7120600221964641;2.245698616847818;0.5070294752104291;0.5691581922257147;0.3453819202108628;-0.022128818419039575;0.11928867080854277;0.3673365633970962;0.012726226125273202;0.5188921849924597;0.012809727745487973;0.0298256347506884;0.6618299323995604;0.43801885942000673;0.5445393013099467;1.9516156395116262;0.3203199023456479;0
0.450263525145;-0.9122268866307692;0.20273724207600208;0.5274487761799915;0.23747496229823933;-1.3802749759951283;0.05639435771855019;0.2862186737422864;0.01271941587634896;2.221073519020541;0.009750688283878924;0.0298256347506884;0.46214438457044715;0.21357743218999736;0.5436092819557397;-0.9482951309555361;0.17972064957344824;0
0.7928538900731658;0.09332718822186514;0.6286172910041515;0.8130639009773031;0.1900611525407217;-0.10957788147143077;0.03612324170510748;0.20073525472282913;0.019078023917011407;3.0996547573315603;0.013064647700622049;0.0430814724176609;0.8076514553111465;0.6523008732662129;0.8301398921752061;0.06594973775474955;0.26946815913125144;0
0.5520902075484402;2.229239753348395;0.30480359727087974;0.38693685106006726;0.20230289382975852;0.046216036629370905;0.040926460851894546;0.21359906511371318;0.017943660941253367;-5.089266906207566;0.02804119506474967;0.0356887937187723;0.5547896283269257;0.3077915316991284;0.3406999217290463;2.108685903857717;0.17031186564102574;0
0.5196621628640361;2.694089713711435;0.270048763512528;0.36071528637012396;0.3497515139834512;0.5915383254855051;0.12232612153371629;0.369126698364761;0.01620831245377957;-4.890932950898993;0.024982155603140644;0.0326297542571632;0.456642469343514;0.2085223448081421;0.25535953228330754;3.710130179350898;0.1366034383908628;0
0.5849437912290983;-4.613342396975133;0.34215923889747096;0.8808023875538762;0.4783666893649009;-1.924417664997037;0.2288346894939356;0.6005475438126002;0.016533807749503415;-4.811518958412041;0.025237075558274744;0.0336494340776996;0.5803246854652492;0.3367767405603404;0.9338969485829969;-5.530102068406812;0.1615751319833999;0
0.4503300004600343;2.761305334217923;0.2027971093143345;0.26849298515601516;0.5178557995649443;-1.2489480453298079;0.26817462914304774;0.6066613645029848;0.016899225579899996;1.4999999999996678;0.013255837666972574;0.0407871928214541;0.5136955983171274;0.2638831677303915;0.6495737269956336;-1.4563037871135212;0.146900433662756;0
0.4682726711774199;-2.66387524811506;0.219279294571636;0.6129020535184391;0.48406429997132006;-0.8553310005406001;0.23431824650672414;0.5443509291736981;0.010072833358986474;1.6892172856541965;0.008922198429693075;0.023452635872336102;0.5565440141595017;0.30974123969677164;0.6878340255478967;-0.8607670240538088;0.1476554783463659;0
0.33795303504561086;1.3876310321629237;0.1142122538965399;0.3330290364564954;0.3406067369193739;-1.4409082444043921;0.11601294923486356;0.4417016088844212;0.02473292908089641;1.6440449726744806;0.021413276231263434;0.058121749770572106;0.3230114438851829;0.10433639288079066;0.24744246281161164;2.5882533855449203;0.07865250164093869;0
0.4441950921846683;0.639900954072786;0.19730927992094596;0.40963891191436863;0.17120986997040288;0.6543148285125504;0.02931281957528226;0.18863761969892678;0.02496827855410244;-0.8390271794221444;0.02829611501988375;0.058121749770572106;0.436310080984222;0.19036648676845838;0.3674762624839696;1.5498585653464314;0.10296795544703681;0
0.6291160715267388;1.7401143042149183;0.3957870314532366;0.5149129743244463;0.21142279314010756;1.7863520396415566;0.044699597459164714;0.21013016641649518;0.024550084333971323;-0.9428710028468927;0.028041195064749648;0.05710206995003571;0.622093665427511;0.387000528565036;0.46671444216204705;2.592227015814526;0.15033315255389723;0
0.9465479311102594;0.7078186792673495;0.8959529858891123;0.8778980582368154;0.20036824063041922;-3.4687997353829463;0.040147431853329585;0.27910598407272014;0.039697730077221924;-2.6336451544455954;0.05251351075762205;0.0876924645661262;0.8577360980880583;0.7357112139633272;0.733060860342178;1.386557964639346;0.19489144392461202;0
1.310694342179514;0.20709988756547304;1.7179196586213894;1.353884285696933;0.13469378438573187;-1.7721033879566992;0.018142415552150026;0.16537462025374028;0.030594642987004046;-0.5567273924418785;0.033904354032833595;0.07137758743754449;1.20060843062445;1.4414606036865047;1.1695232471230863;0.6286399970689782;0.24875270655874637;0
1.4412587895050373;2.5636635189646455;2.077226898325525;1.3275212553316535;0.12119236376146399;-2.490452539154555;0.014687589034091009;0.15662129282680182;0.0228462898974283;1.1063554546753647;0.022942795962067823;0.0520036708473538;1.3344621255260645;1.7807891644635419;1.2828988157696273;2.3028118688977486;0.2580883107677795;0
0.6946730321762056;-1.9253759126916759;0.4825706216328835;0.925736046133192;0.11379645353138565;-0.2839664821183998;0.012949632836320814;0.12261482153629011;0.02872161010577275;2.25244284587912;0.02281533598450083;0.0667890282451309;0.6250910033735294;0.39073876249852574;0.8943280169074646;-3.1302460473944898;0.11244393728085211;0
0.7690622587764855;-5.503350123787818;0.59145675787439;1.2466871625646156;0.06831051541278908;-0.856875972845307;0.004666326515960895;0.08402087690047644;0.020138676455592825;-0.2035342622270644;0.0225604160293668;0.04588559192413591;0.679834606772205;0.46217509256511863;1.1093142364724509;-5.53807871083536;0.12388847146481187;0
0.7385529251134593;2.5889235404548394;0.545460423193647;0.596176717257535;0.11127955462642634;2.721936889033639;0.012383139277855804;0.07340196423343359;0.02713311289109904;-1.5570930199664108;0.03275721423473038;0.062200469052717505;0.6333111839883283;0.4010830557646982;0.5033907539557241;2.9868099193475786;0.12343388388336082;0
0.6828486880377538;2.298376090319744;0.46628233075488157;0.5867167739230297;0.15781489556542197;-2.745974395405062;0.024905541262325043;0.2203505249303186;0.01622100364018846;0.8068708335190085;0.014402977465076051;0.0392576730906496;0.4875004371284646;0.23765667620044403;0.38454934480636815;2.5325797527435654;0.10623135323278654;0
0.7253367241999902;-3.436779855228023;0.5261133634731726;1.0203123946919952;0.1671245916614681;-0.1712423640385552;0.027930629138012447;0.19266012007659672;0.013667767419790425;0.7925210225767838;0.012745997756704479;0.0326297542571633;0.517449281723278;0.2677537591559363;0.7204842829647964;-3.393788187192003;0.11742072723854483;0
0.6495477194600613;1.345111599421955;0.4219122398557664;0.5418838236520171;0.07790715203643303;3.093032404992652;0.006069524338427892;0.05381873639447976;0.02048685383354681;0.43193653551494293;0.019883756500458843;0.048944631385744904;0.4732005212723365;0.223918733332411;0.41983674402331506;1.0683355326190433;0.1172204531243732;0
0.3027418441746167;2.174453222413147;0.0916526242142479;0.2199428987262828;0.09062996447178727;3.310191332102498;0.008213790460157423;0.060330016756111604;0.019631595225442416;-1.2948863930445995;0.023452635872336054;0.0448659121035994;0.23050987402934772;0.05313480202502576;0.2448419487322706;-0.3062707727462275;0.06053200248691673;0
0.36289548719331727;-3.6362146213657667;0.1316931346252751;0.5308342562922954;0.10529485495188563;-5.5424463799391095;0.011087006479338633;0.1705100213883024;0.014785357397776946;0.01765069328765989;0.01555011726317937;0.034669113898235904;0.2962242417513992;0.0877488014011914;0.33343573325653564;-0.3716847791247897;0.08040868730983868;0
0.23442055034833334;3.9420681735347465;0.05495299442561549;0.12323353290476247;0.08392189016758866;3.9166186438915673;0.007042883649300814;0.05071689287274417;0.012653893796258503;-0.8612750885495419;0.014275517487508944;0.0295707147955542;0.1628412382300048;0.026517268868281176;0.17788170017702853;0.9841777273215424;0.04629195320471961;0
0.398464619055883;-2.570124587814467;0.15877405263934996;0.5515019244408212;0.025835940125810402;3.2929419018501207;0.00066749580218446;0.01590711162463032;0.023123361824102205;-1.384547210528467;0.0282961150198838;0.05200367084735391;0.28825278399076826;0.0830896674784285;0.40320951834545404;-2.687183760321414;0.07932589362381433;0
0.426279578526989;-5.0827443907110545;0.1817142790691474;0.6739268477385894;0.04968006862072999;-1.4153536544882819;0.0024681092181604402;0.06290281738611414;0.01772747899532331;1.2962636854404739;0.014530437442643047;0.042826552462526805;0.2989216822310336;0.08935417210783102;0.4547197260770477;-4.313095125828783;0.08187505725560465;0
0.4841631887635493;1.1937713096159097;0.23441399335368826;0.4260575096506747;0.11535121707073043;1.820702728876629;0.013305903279698772;0.10394493314997844;0.012303244483693887;3.365663731650173;0.006882838788620373;0.027531355154481504;0.32528911362054613;0.10581300744004059;0.3226797882953578;0.7495934396203019;0.08462129736488597;0
0.5943303255514568;1.1941584014226176;0.3532285358701006;0.5998089872604746;0.13971075574763617;-3.8518789585838693;0.01951909527157565;0.19968644821713522;0.016988714502031616;1.418845248112552;0.014020597532374876;0.040787192821454106;0.44959139802312265;0.20213242517638588;0.38836716634538027;2.14240292448485;0.10697052573353381;0
0.559712627234342;1.8674518606159776;0.31327822508556946;0.4107403145532045;0.11878656934229581;1.4408515167038463;0.01411024905611205;0.12459423268766434;0.010998055597949202;-4.00494248815934;0.015805037218313472;0.0234526358723361;0.4432810405529219;0.19649808091368118;0.3560484422883552;2.2505575601186347;0.10519946782466053;0
0.40949920805751655;2.9647637112058156;0.16768960139973324;0.32327277771554064;0.04837706982864082;2.9004427349562967;0.0023403408852051897;0.033889786739665695;0.011964050104889561;-5.079082365496657;0.01886407667992253;0.0234526358723361;0.3594018711854827;0.1291697050116263;0.24501854822071234;3.1613187726026233;0.08327036289434739;0
0.596544557287909;0.8584371794035803;0.35586540882982737;0.5316699536460918;0.012578388132174387;2.3172489677317643;0.00015821584800362548;0.008715551865654092;0.014572118938817224;1.0278924060334127;0.012618537779137302;0.0351789538085041;0.5218851335293055;0.2723640925989011;0.456584438865669;0.9913139466776659;0.12513779908817615;0
0.3511578020064064;-3.368097216663278;0.1233118019099705;0.48643590226379274;0.05382634006127232;3.4498154163169588;0.0028972748843917296;0.03117728041037937;0.01496356975076333;2.1144406566742013;0.011662587947384503;0.0351789538085041;0.2851923043419786;0.08133465045588777;0.37020239497026264;-2.546508561253912;0.07315722495112975;0
0.3314588631410261;1.842097498792704;0.10986497795474148;0.297598061905866;0.0732674464685277;-4.8812778980731135;0.0053681187120185716;0.11217147583852283;0.015064561557415217;2.590725838470412;0.010133068216579975;0.0351789538085041;0.27109116468103456;0.0734904195681198;0.26095756777721313;0.794758573536896;0.07019572249747466;0
0.11710819824174686;0.9803160289599671;0.01371433009542828;0.10515259770248075;0.05752829264944436;-2.250996574416778;0.0033095044551601145;0.07354499050072816;0.008572729799707027;1.3128811663632067;0.006564188844702751;0.0209034363209952;0.128012630612371;0.016387233596299344;0.12833655057266924;0.19490607348993372;0.03434593992430449;0
0.08067469272600691;1.5605697953186581;0.0065084060464356336;0.0707917901358317;0.09658796149615627;1.3704874377487997;0.009329234305982965;0.0957193645546246;0.01726867113735705;1.9326880559306794;0.017015907005200354;0.0374732334047109;0.09815667318424737;0.009634732490599146;0.10511435696058813;1.206772893247745;0.02617248254779357;0
0.6604413521294997;3.7186632130471047;0.4361827796026418;0.4340482250889779;0.1120386864909226;-3.28125353552457;0.012552667270611245;0.1589672778927591;0.018436664628606776;1.3790652315547032;0.01809931681452023;0.0418068726419904;0.5551142690670079;0.3081518517217984;0.444653404144006;3.3154786262485736;0.138000207756225;0
0.7450720599509735;3.350309024254777;0.555132374519587;0.4737398801408914;0.15860583935146938;1.89680183252322;0.02515581227638411;0.1081783628680495;0.021411252961430108;-3.2305392585116426;0.03033547466095645;0.0448659121035994;0.6811406911294464;0.4639526411123;0.40184240331449983;2.756918471435352;0.1762330102504322;0
1.1125921857726508;1.1300455716396485;1.2378613718423648;0.9279661100402823;0.19387985308447436;-3.037467290918835;0.03758939743205736;0.274296167174934;0.025149805558867238;2.785594295364838;0.016824717038849746;0.05812174977057201;1.0418044245007692;1.085356458909379;0.9416686669433654;0.7841182991197133;0.29541037923819125;0
1.1751393899035945;1.6176830344012831;1.3809525857029923;1.0932145357469798;0.21216190681094632;-0.39550254153645525;0.04501267470165667;0.2379964543784321;0.025353965043655127;-1.09469271774487;0.029825634750688244;0.05812174977057201;1.1167121182640904;1.247045955077872;1.0851412034413523;1.5928702862550388;0.34153872420558073;0
0.6826069738739927;-1.4629395460066714;0.46595228078140977;0.8129011709689467;0.21560055482616652;0.7308579228080863;0.04648359924135084;0.20428395954685907;0.02126507163777951;-2.3899291140037917;0.027276435199347374;0.047924951565208505;0.5477154748657284;0.29999224140739034;0.7558593621091494;-3.4000582931169774;0.18627444921043035;0
0.6653677989806663;0.12202222391341166;0.44271430792037636;0.6802586028832267;0.35027366773807594;0.20662719335239643;0.12269164231068401;0.3891974753904708;0.02105212891002595;2.6321686260005563;0.016569797083715705;0.047924951565208505;0.5089311833474469;0.2590109493834326;0.3457215182036393;2.477089862240785;0.18152414236312475;0
0.4606233013596675;2.1906289659687292;0.21217382575547908;0.2931698905829818;0.47408160465648325;-1.882249430381739;0.2247533678736661;0.5892299789629998;0.02408824972262964;2.8341340800544614;0.019501376567757675;0.0535331905781583;0.43748641594077614;0.1913943641327058;0.2773079179525211;3.796396566689328;0.152324467545262;0
1.1660530796479052;2.7377687748426;1.3596797845563637;0.6970659989260279;0.5291713210222349;-0.9865941314478626;0.2800222869924171;0.6025357387275084;0.023623805115128047;-5.096825782837531;0.03670847353930852;0.047415111654940195;1.2398719690535582;1.5372824996447478;0.8096225179152139;2.473759441664063;0.5249599854637548;0
1.0473069938876798;-5.338592694600656;1.0968519394460488;1.691544577784577;0.49244896200047794;-1.627016201792399;0.24250598017534816;0.5954953605932365;0.02179230169589317;3.6606248964552925;0.012236157846436124;0.047415111654940195;1.070741777872247;1.1464879548810205;1.6865768724884496;-5.0932174357172215;0.6137032486274435;0
0.8810443683681229;3.350350514535524;0.7762391790331847;0.5157210342845358;0.41875138891360686;-0.860519214296863;0.17535272571707483;0.48274378338329244;0.004541106425983986;-4.43178447850805;0.00688283878862035;0.0091771183848271;0.8677290083892535;0.7529536320001972;0.5541452536421291;2.9086311697445097;0.6430375693159738;0
0.5112509267771028;1.4027408891993804;0.2613775101304466;0.5398500548325185;0.30603081109601005;-0.5490054143352747;0.09365485734008178;0.34514288516533737;0.006547358225449792;-4.128359395689234;0.009814418272662375;0.0132558376669725;0.24555261378266385;0.06029608613549808;0.34963130185949387;-3.69186452499042;0.2760468438906703;0
0.8636018665571655;-3.218182179463872;0.7458081839210203;1.2440068423123214;0.19657474367002692;-0.3475760222304629;0.038641629848936786;0.22843902937289706;0.010003781416512949;-1.7123966942151938;0.012491077801570227;0.0224329560517996;0.1729855109705068;0.02992398700572733;0.14297889992100754;3.172337715495747;0.16975169364102127;0
0.7159706211226343;1.458633882977189;0.5126139303107308;0.5425786774654029;0.16161595629230827;0.9476451839071682;0.02611971732827729;0.13933389644119465;0.01108828549552944;-4.979434941380145;0.0170796369939838;0.0224329560517996;0.1713711517059158;0.02936807163701201;0.19280806889136037;0.7878984020138926;0.17095392886106817;0
1.004918335671048;1.2749739493624546;1.009860861367869;1.0518870350564056;0.1999105905591108;-1.0594497812980546;0.03996424421769244;0.24434837251090413;0.039836086174401035;2.6269140706487306;0.0359437136739063;0.0856531049250534;0.7732726535517626;0.5979505967309843;0.5297607893623294;3.324147818537874;0.5773305469224081;0
0.9117148916302908;1.9176300095054604;0.8312240436204329;0.5730494178198124;0.23762709837311063;-1.868218178460861;0.056466637881224004;0.2928297864015259;0.039757707178305075;0.5414597934191878;0.045120832058733525;0.0856531049250534;0.6720322166158229;0.45162730016957625;0.7118107534158014;0.9964610580282347;0.43555729798084514;0
1.4208201294856575;-0.1377414815041309;2.0187298403516407;1.4764847745131044;0.17272833023399325;0.0030353661172615176;0.029835076065423433;0.20752722748575425;0.03454267295834843;0.15595578582315817;0.034414193943101815;0.0825940654634444;0.6152773192660321;0.3785661796031948;0.5492328009992931;0.7985684175758916;0.3586888443913687;1
1.6011477169380304;-2.6844023651236526;2.5636740114558667;2.2109835576042114;0.14837371899521432;-1.301499125708121;0.022014760488470824;0.19383450067061792;0.021087083877837146;1.6014905633893388;0.01580503721831343;0.0509839910268175;0.45565982419388806;0.207625875384405;0.4328217972321644;1.8169425109641146;0.2487549079218023;1
0.9208950153309339;-0.9857568805314791;0.8480476292613609;1.133639355838662;0.17767230821381325;-5.996986602300939;0.03156744910602425;0.3066126203767938;0.010641699605352316;-4.234490405093306;0.01555011726317937;0.0224329560517997;0.31407486361503195;0.09864301995480092;0.2800370765649609;1.0668760035396776;0.21246019545332115;0
0.5292924027700405;-5.269914695725541;0.28015044763008284;0.8411410097940027;0.14763901355164089;3.488601627457971;0.0217972783225016;0.11181916778805001;0.03894745350652288;3.226811131947496;0.030845314571224615;0.0836137452839807;0.34723193585382595;0.1205700172767955;0.43976226713637656;-1.2892860783975255;0.25464698094426064;0
0.912345806600528;1.9577204745211336;0.832374870821568;0.5953528191454724;0.07926856685996583;2.7887890051600586;0.006283505692032875;0.04924180165933345;0.04043730145125029;-4.613338272642304;0.06067094932191283;0.0836137452839807;0.2226503786404944;0.04957319110875552;0.3592744573775146;-5.547144310493658;0.1735261923949445;0
1.3330544369550452;-1.2572458255074075;1.7770341318855325;1.7218163936230289;0.1279086345837703;-2.941028612093545;0.016360618801084484;0.17334202216903283;0.03222763633738281;2.9491733310346753;0.027276435199347325;0.06933822779647181;0.7644453141160251;0.5843766382739484;0.6905942436767669;2.625769597302952;0.4790650018301888;0
1.2792704071999208;-0.6777331516526619;1.6365327747374512;1.5403060323342588;0.1570657867198208;0.2834772749029586;0.024669661357916234;0.16299817287184282;0.012554214688462169;1.2144739375240867;0.00994187825022945;0.0305903946160905;0.7486161908994018;0.5604262012767296;1.0852317641295428;-4.1153613579816675;0.3873573706114267;0
0.9864233070208559;1.1144847804606677;0.9730309406339618;0.810954400423761;0.12930694348657182;-0.5531405644191398;0.01672028563383948;0.14153851058242228;0.022345882533711618;-0.7799154580961201;0.02523707555827465;0.0520036708473538;0.8817329061447499;0.7774529177784663;0.755998926290093;0.951579818264964;0.3443138176492529;0
0.561524569811391;3.057809679334703;0.31530984250186767;0.3359604741214044;0.12407904177007395;-2.4823603078773306;0.015395608606579755;0.16055580517151302;0.03149886528223399;-3.956089606162559;0.04512083205873345;0.0672988681553991;0.5365402473906044;0.28787543706997093;0.3434397555735149;3.0749755970972963;0.188167633523058;0
0.5560773438109033;2.87683061583418;0.30922201229978963;0.347417371891523;0.11452413855341989;-0.05042695205593972;0.013115778311402917;0.11980051868149721;0.045862926774852646;0.9950585567017409;0.03925767309064953;0.11114510043846221;0.5394490188082578;0.2910052438931921;0.320939492354666;3.1989263428175825;0.189686692886449;1
0.6040425954081946;-5.6631241094212985;0.36486745706746787;0.993057340382177;0.12711954106762524;0.1928144390433424;0.01615937772124366;0.13336206718340543;0.025271813462615988;2.543240024721385;0.01707963699398385;0.05914142959110841;0.5935235590041686;0.3522702150929749;0.9906111127161834;-5.805797263027837;0.18675484373893333;1
0.5324566815070104;3.1788751396886887;0.28351011768145795;0.4331865738523826;0.13108239377600958;-3.4414871045774547;0.017182593958048834;0.1817114166935036;0.0379753736097401;1.525061480874255;0.02549199551340872;0.0927908636688079;0.5181836878921442;0.2685143343975031;0.40095104913282587;3.4067917465050215;0.17379756882674915;1
0.49872881087170023;3.488572750159598;0.24873042679350013;0.31208875857724383;0.0897635754662247;2.779433300843806;0.008057499480480616;0.0647287307886491;0.03811088853051581;1.1472554328280964;0.030845314571224594;0.0927908636688079;0.4920990665428439;0.24216149129233833;0.30219221345285785;3.61086596076132;0.16305892490749047;1
1.1132486018903143;2.115847420678133;1.2393224496107393;0.7034683534826982;0.05134346138704767;-0.48872512351575637;0.0026361510272032555;0.059522751467259105;0.02250381617003497;1.7209974456309531;0.020266136433159925;0.0520036708473538;1.1111304448894261;1.234610865560174;0.6992405804025976;2.1139787384112267;0.42395427291140153;1
1.0592411220061453;-5.8455695399431375;1.1219917545488376;1.7725362538554297;0.07917847279096774;0.4629417047206452;0.006269230553510019;0.07765049738640084;0.0430553188426794;1.7956885142053451;0.03301213418986433;0.10298766187417141;1.036718488846895;1.0747852251169896;1.7532199145623917;-5.928391864396035;0.5380095123948285;1
1.397299791632998;1.4418425605010885;1.952446707697619;0.988648459965086;0.1853067725799633;1.1440139820758137;0.034338599964002244;0.1758120314548402;0.03656509610611586;3.0234349307656387;0.02765881513204848;0.081574385642908;0.9125420299563213;0.8327329564368036;0.5646226241733794;3.8384873792978276;0.6347805359413776;1
1.2267299525506192;-3.6654390805254966;1.5048663764848447;1.7772599977496328;0.2982236729364145;-1.4089561537337865;0.08893735909968553;0.3550463466053289;0.04615365505107389;2.2752873772599678;0.035051493830936975;0.10808606097685311;0.37804511339156877;0.1429181077592441;0.2947471221921176;3.068354979243363;0.323753191283121;1
1.1329406870029597;0.9803588209061491;1.2835546002667384;1.2447579252037932;0.2302389473256054;-1.093498414406751;0.053009972865602904;0.2883973041021517;0.046096595923212684;2.1397020274009435;0.036198633629040355;0.10808606097685311;0.4690752562576371;0.2200315960331679;0.7794108015614001;-5.809390277073476;0.35119878241683716;0
0.4422931244862878;-3.908919154620044;0.1956232079678429;0.6490068429342203;0.11858867905842438;3.7039817107356683;0.01406327480082198;0.07497571243463219;0.0214597587882802;0.625986022625451;0.021668196186397353;0.0499643112062811;0.4138239077991122;0.17125022666612813;0.5650595155229321;-2.386405981703817;0.2940989459325619;0
0.5700869912852923;1.5887169718236773;0.32499917763271696;0.39565874472457296;0.018909491344417457;-0.6283670746988204;0.0003575688629045987;0.022090537363079532;0.022127678628148562;3.1979207235618716;0.0140205975323748;0.0499643112062811;0.4924662057762891;0.24252296383169428;0.32742207177214033;1.7355023151998967;0.27388563563840246;0
0.5693482187708337;1.5935518508873212;0.32415739421752116;0.3832872356807193;0.09588067499728156;3.8245980325580327;0.009193103837934334;0.055906876420794616;0.005427660318368329;-4.654671280282367;0.008157438564290848;0.011216478025899902;0.49899030526392135;0.24899132474738142;0.3936919950282105;1.674970692470188;0.2809657879523594;0
0.6707850704971232;-0.02155271669374592;0.44995261080183063;0.7936651194353436;0.13986282276842094;-4.169884157078673;0.019561609192750722;0.20779995812392926;0.005089894677907636;-5.027192089581474;0.007902518609156748;0.010196798205363502;0.6227905949913182;0.38786812520964004;0.6353850372522132;0.9551119797296987;0.39046768868147885;0
0.6977138900924874;-0.3810637226945097;0.4868046724279915;0.8478407087409477;0.13474764304730355;1.0915869499899653;0.018156927306803534;0.13867173801817623;0.00474635126058564;-5.545562130188056;0.007647598654022649;0.0091771183848271;0.6874258940828903;0.47255435985566124;0.8181488316946501;-0.13502048579560366;0.4512253015509908;0
0.8189605009327692;0.7779169401747801;0.6706963020880522;0.9143636968388055;0.06871677481432088;-4.053259359874906;0.004721995140882084;0.09944255287234482;0.004162825435544679;3.2279999999791613;0.0030590394616090734;0.0091771183848271;0.7820499411639052;0.6116021104744677;0.8699240190494608;0.7728545655704764;0.496463976348594;0
0.826869006432251;3.1831201733777412;0.683712353798258;0.6729964151817202;0.15363578269215214;0.6069834003969579;0.023603953723430198;0.16688722652738563;0.01744417582047693;2.900988994453165;0.014785357397777026;0.037728153359844904;0.7824035239449614;0.6121552742814937;0.7444073495374597;2.2581414139453866;0.5102405958545969;0
0.7612321912416861;0.5394156148773028;0.5794744489826189;0.7849043523831121;0.18104886093895123;-2.761781954585514;0.032778690047291704;0.24542829132324007;0.023450788553529504;2.100307242933601;0.015550117263179349;0.0560823901294993;0.7142107252209968;0.5100969600207023;0.7313904293496953;0.14640094305619478;0.40951845192862746;0
0.5986822331500784;-0.9657073980976438;0.3584204162895648;0.6805871215050412;0.1344056581455808;1.935433982300328;0.018064880941546735;0.11505260892182534;0.03407800877972289;-0.03401441821479878;0.03543387376363825;0.0805547058223717;0.5174051431068745;0.2677080821134452;0.6153881183561576;-1.4462106091636944;0.24921337333426227;0
0.98775670200882;1.5862969258765602;0.975663302363341;0.902775649368158;0.060924019716956185;-2.7283843469673634;0.003711736178472066;0.08248059254644069;0.03465286519141547;-1.1088506807511411;0.040022432956051825;0.0805547058223717;0.9264070172071535;0.8582299615306551;0.8514753221551667;1.5994556130961985;0.4006534159505237;0
0.8001333471745676;-1.5502764446050552;0.6402133732607772;0.9701818266448994;0.24873743140290172;3.631875309040442;0.061870309780913235;0.14772187640338208;0.023729930712994823;-1.34312178082914;0.030335474660956475;0.0509839910268176;0.781193418710058;0.610263157435908;1.0502541213176277;-3.030780812499378;0.28644216649326143;0
0.5867102934264019;0.46487121673824205;0.34422896841249456;0.5835342422217309;0.3143144956942793;-5.070860686088736;0.0987936022035491;0.4975636951787541;0.025614064825289058;3.81140794804109;0.0158050372183135;0.0540430304884267;0.5852220753045214;0.34248487742373096;0.5832380350747637;1.5122442235026234;0.18728022578452608;0
0.34384331335994317;-0.6738138978508417;0.11822822414234407;0.42244209235319996;0.293363955689748;2.500230277881549;0.08606241049793643;0.2627449823303263;0.011989370874176493;3.1649689839080217;0.008922198429693124;0.026511675333945196;0.2290592790287284;0.05246815330916086;0.3350542368798104;-4.071658466410453;0.06847666625328369;0
0.29372873738727173;1.4369687132473796;0.08627657116712084;0.20949766857320373;0.08108014542105668;3.002602737150152;0.0065739899814997;0.05855962316003116;0.011935046304394497;-2.7856572007036213;0.015805037218313448;0.026511675333945196;0.24890210727755985;0.06195225900720991;0.1936626476500778;1.260931566921494;0.07878040038775015;0
0.4731607280563024;-1.062141946785962;0.22388107457477013;0.5428400175951262;0.06328552199459186;2.1140421089406374;0.0040050572941279705;0.057735691494117614;0.012581791250385568;-3.767019610063869;0.018099316814520275;0.026511675333945196;0.4310956341312364;0.18584344576701284;0.46894432975914757;-0.4955204667637432;0.12879827307522954;0
0.5126323958443811;-3.2965246657405114;0.26279197326915027;0.7129999689926563;0.058207367000291194;-3.875885647814547;0.0033880975731065883;0.08295158721809259;0.009868618429664586;2.2308987981398367;0.006627918833486249;0.0234526358723361;0.471955906361869;0.22274237754985327;0.6600476894129033;-3.4211771327181406;0.1383725793479714;0
0.5435972360518571;3.3810694826886625;0.29549795504321835;0.4101964949026522;0.07456919042190263;1.3685626689409158;0.005560564160177975;0.06396998818006927;0.012911471338990975;1.4688473856869138;0.008667278474558948;0.0316100744366269;0.5045094145592657;0.25452974937893297;0.38817165262596287;3.2392612410597117;0.13996394621292965;0
0.142835863557445;0.6388095911388678;0.02040208391820104;0.1332116986894194;0.08365291902733518;0.8783195153561802;0.006997810861793898;0.08709090338181169;0.018994530447840538;-1.3219443729293143;0.02243295605179975;0.0438462322830631;0.16332865294836107;0.02667624887392618;0.15845811241966823;0.33176044680401695;0.04168729309253913;1
0.28074427089616955;-0.7297804619219264;0.07881734564102184;0.32592862795233657;0.12034251200243555;-2.0740606278608524;0.014482320195056344;0.15064719836475993;0.016259017761906882;-0.9199401714615671;0.018609156724788398;0.037728153359844994;0.22830231277732305;0.052121946019474646;0.3017727485455808;-2.751299209940697;0.059285067507235036;1
0.6496132460490235;0.08759275545976486;0.42199736944234917;0.7453640131797834;0.08032078516251498;0.826745044960667;0.006451428529122887;0.07105583116193714;0.01584063111074554;-1.0880620249697301;0.0183542367696543;0.036708473539308596;0.536981094429701;0.28834869577491945;0.5637633777677413;0.8329844817098202;0.14725162696839914;1
0.5846519325100634;1.39827595562374;0.3418178821877517;0.4239400723573077;0.23773581827694767;3.280967697891029;0.05651831929180989;0.15543128190570776;0.02329834511266949;-3.535188486358857;0.03250229427959618;0.0504741511165494;0.515042703071832;0.2652689859875393;0.5610133074185049;-0.454360691124716;0.1482894222754203;0
0.4401629201084337;2.5271078377923786;0.1937433962383834;0.3223687139832605;0.38765720787145164;-2.744796403133492;0.15027811081468986;0.5233634322513885;0.02164419042227737;-0.6094691248924384;0.024089935760171325;0.0504741511165494;0.2999783757791283;0.0899870259350839;0.3065525748554849;0.4089030709771819;0.09079665325178815;0
0.46105796888588624;-2.792730731996846;0.21257445067317884;0.6117603790714394;0.32097816461102047;0.8196943387628046;0.10302698215705934;0.3341809715347017;0.01837016235770016;-1.5645334828188702;0.022050576119098626;0.0423167125522586;0.3170009714949975;0.10048961592877222;0.4396975735353017;-3.4824205840528535;0.10262733721125888;0
0.6077669595136231;-0.9334202768217477;0.36938067707643407;0.7054519206532159;0.17730684626654675;0.2125149302866678;0.03143771773298884;0.1837832492837257;0.02889305250339466;-2.556239151148226;0.037855613337412074;0.06423982869379;0.5928448792914923;0.35146505090214414;0.7159694136235082;-0.9318077199261694;0.2050048030683882;0
0.8887947697804204;-0.5882362011473763;0.7899561427890305;0.9730761545874165;0.09961296085073032;-1.0789085416881807;0.009922741969449133;0.1266164172502675;0.029120444231151593;-2.900594599160609;0.03900275313551545;0.06423982869379;0.809901273071095;0.6559400721221804;0.941851246715018;-1.177438696765023;0.3284515673670838;1
0.5494160008011594;0.9254093568550985;0.3018579419363396;0.5228648629706498;0.12674395256729973;2.4482680510767736;0.016064029512381922;0.08026511226447641;0.030287237157701874;1.733711230133764;0.031355154481492675;0.06423982869379;0.49352235984482734;0.24356431966680722;0.4451420823930299;0.8109408390981052;0.2258395379689817;1
0.4378404440049816;-3.2405166321083314;0.19170425440647945;0.5977966341320311;0.12766447227688998;1.482547766006947;0.016298217481736814;0.13376709624931993;0.022930991075275492;0.07925408419876412;0.027403895176914328;0.0484347914754766;0.38475222842714557;0.1480342772796544;0.5989324030812766;-4.72543293534298;0.20342680387112358;1
1.2954654852644765;2.504579637182079;1.6782308235115257;0.9190545404173707;0.3011630446303845;1.1376569088638195;0.09069917945104296;0.3052639167016379;0.021563978202419783;0.7825851641160781;0.02281533598450075;0.0484347914754766;0.542923100961485;0.2947654935576348;0.3411839713751199;1.6270280535786839;0.33729498319583323;1
1.287167017268113;1.3192853893369048;1.6567989303428903;1.1728602222435545;0.39670041439555603;-2.6893276422745593;0.1573712187816059;0.5243667558571035;0.023246221387659787;-4.253350713164382;0.03428673396553472;0.0484347914754766;0.6775952919000497;0.45913537960511364;0.8111486648378154;-0.7171240654544242;0.476114006054262;1
1.234709680560733;-4.9076483084558955;1.524507995270387;1.912146154999164;0.3849056349477545;-0.63349184813619;0.14815234781453404;0.44023057860941783;0.021684185264761086;-4.337596104740355;0.0330121341898643;0.0433363923727949;0.3242679051244673;0.10514967429381052;0.27881995987132613;1.7506883473544708;0.28904915046111845;1
1.0327330804535564;2.922867351684186;1.0665376154630917;0.7289743661983614;0.19936854305685434;1.9684368147454627;0.03974781596061278;0.14567705567875672;0.02843395661240384;1.622142648511801;0.018099316814520247;0.06933822779647181;0.3119322645090397;0.09730173764173751;0.2721387267701998;1.6085432112283318;0.27971917548805425;0
1.1212345719752301;3.263127731662003;1.2571669653924773;0.9127666566396491;0.10753915740192486;1.5623663625107493;0.011564670374715971;0.09052876532306685;0.03659500039752486;-2.5399675938428103;0.048944631385744806;0.07953502600183529;0.35880545261516694;0.1287413528263748;0.5100286569882282;-2.8589635953692003;0.2861204438630433;0
0.21960474647257985;-4.195651961768851;0.048226244673286074;0.33296516737017257;0.22821586076040612;0.8869920803808355;0.05208247910261308;0.21586636479213253;0.024043695569596304;-4.824077428704548;0.0367084735393086;0.0489446313857448;0.20989751026793557;0.04405696481667812;0.2812542530410831;-1.7677723437695771;0.15211408217424666;0
0.1734192014166906;-5.994463500906067;0.030074219420002702;0.29876023697468157;0.24402023198537426;-3.7348050410069487;0.059545873618195876;0.34466127966264515;0.04222344625476905;0.0737539575618964;0.04792495156520846;0.0938105434893442;0.11993338064294838;0.014384015792446345;0.19130361716925237;-5.1050674818390664;0.08304678221152223;1
0.14747487334683965;3.9871444839022203;0.02174883826866639;0.08010700607418131;0.17622352539447442;2.3678031154522454;0.031054730902456973;0.1069097830041758;0.05610633204511248;-2.0179629119201543;0.07010298766187407;0.1274599775670438;0.10743307730696061;0.011541866099643376;0.08809407552335058;3.087822367255793;0.07731592832371488;0
1.9340846751245153;3.999926595083391;3.7406835305515016;0.968791807256866;0.10697714581824962;-2.9817684135795837;0.01144410972741904;0.15232286618340868;0.04293162861971462;-3.1118902487751257;0.06067094932191283;0.0897318242071988;0.684843773646336;0.46901099430215387;0.377767963236904;3.978843711408242;0.40783750312488587;1
1.8845730576843953;-2.5979545294421182;3.5516156097499114;2.642950096912859;0.1105536194065483;-0.13960824274228045;0.012222102763887932;0.12669678461552547;0.03706405237337038;1.7680282996054686;0.0251096155807076;0.0897318242071988;0.7057974300631342;0.4981500122837248;0.4048437794718822;3.8264119840093116;0.4272041135394368;1
1.7197550686044027;-1.4766875212005441;2.957557495990534;2.111240329255534;0.12884018062519448;-5.612617992644783;0.016599792143532736;0.2092002403111629;0.05252815217672322;-2.608315809115778;0.06870092790863658;0.1172631793616803;0.8560747043766543;0.7328638994735761;0.5892472466544325;2.5523619145395386;0.5757664417040265;1
2.1038426794354543;-0.8880413051979055;4.4261540198141525;2.3733912450237518;0.23848905670706647;0.09774730906200801;0.056877030169026364;0.27706788405097216;0.036810712210993364;1.5963091368573679;0.03760069338227795;0.0800448659121035;0.9313969896057948;0.8675003522467369;1.3221059757028306;-3.806666272409304;0.538028352733015;0
1.3461890070872378;1.346059961713154;1.8122248428025232;0.9998631597085101;0.3477883461969653;-1.5591677632477907;0.1209567337504202;0.418363436416585;0.037875706912424326;-2.308327359321529;0.051366370959518605;0.0800448659121035;0.7376151044807263;0.5440760423581128;0.7225213438513493;1.9988070186802407;0.5905912770003975;0
0.9917422022415586;2.305336465450859;0.9835525957069366;0.7568791306424925;0.3189362247267439;-1.5819419091749687;0.10172031544294807;0.391555725358642;0.05725058013569332;1.0691423652988128;0.062200469052717325;0.1233812582848984;0.8879335655160333;0.7884260167700158;0.5610378032044128;3.0078012422283287;0.8747476335594745;0
1.3075004158637897;0.28427681325611864;1.709557337483983;1.3548385074975693;0.29454569704019196;0.27514234256391923;0.08675716764489254;0.28825290793945924;0.05202261977736417;-1.6514942014311682;0.06309268889568673;0.119302539002753;0.8690221792821596;0.755199548084314;0.6202748089330237;2.466037218006864;0.8120063127977591;1
0.7505132948368314;-1.7449985010683164;0.5632702057268365;0.9894944004837634;0.26675003133970654;-2.874269754504496;0.07115557921973444;0.3546451709284072;0.03175331368830926;1.560273527006185;0.021285816253696348;0.0774956663607627;0.35436475872126477;0.1255743822235802;0.317537864481521;1.7112778901168504;0.46172561766230147;1
1.5494483034901911;0.8959700974653071;2.4007900451886317;1.538877536197163;0.26794272728180035;-0.18740396499136658;0.07179330510320923;0.28382164796208414;0.05205779234823681;2.6176823487958707;0.03237483430202914;0.1218517385540939;1.1584559258616494;1.342020132163971;0.7991575015237289;2.604840447731469;0.880477296566174;0
