acc_X_std;acc_X_kurt;acc_X_var;acc_X_iqr;acc_Y_std;acc_Y_kurt;acc_Y_var;acc_Y_iqr;acc_Z_std;acc_Z_kurt;acc_Z_iqr;acc_Z_range;acc_std;acc_var;acc_iqr;acc_kurt;acc_cv;hole
1.1561543432509382;3.6763248383621026;1.3366928654180086;0.8005633220646817;0.4778407689606537;-0.5448156379952493;0.22833180048090881;0.5440499357748898;0.03561922988722004;1.8644449065649287;0.029698174773121214;0.0836137452839808;0.4817184624930456;0.2320526771066638;0.28629147616388906;3.2604683617369297;0.08643728709287796;1
1.1561543432509382;3.6763248383621026;1.3366928654180086;0.8005633220646817;0.4778407689606537;-0.5448156379952493;0.22833180048090881;0.5440499357748898;0.03561922988722004;1.8644449065649287;0.029698174773121214;0.0836137452839808;0.4817184624930456;0.2320526771066638;0.28629147616388906;3.2604683617369297;0.08643728709287796;1
1.1561543432509382;3.6763248383621026;1.3366928654180086;0.8005633220646817;0.4778407689606537;-0.5448156379952493;0.22833180048090881;0.5440499357748898;0.03561922988722004;1.8644449065649287;0.029698174773121214;0.0836137452839808;0.4817184624930456;0.2320526771066638;0.28629147616388906;3.2604683617369297;0.08643728709287796;1
1.0980305713243255;3.779098475769871;1.2056711355628245;0.5886643024412671;0.29997140677743755;0.10825977879893323;0.08998284488403492;0.3343470286704324;0.03640836493100164;-1.393208431781229;0.04346385235036199;0.0836137452839808;0.15430181920699426;0.02380905141058794;0.23328339262042164;-4.4243055425006155;0.026304062993674243;1
0.6141798660667872;3.3576797564371503;0.3772169078818166;0.3440715542817899;0.1434996518535355;2.338067968126749;0.02059215008208589;0.13201802875317803;0.03654761594103624;2.9745798177314704;0.023962475782604242;0.0836137452839808;0.16768880172218023;0.028119534223020676;0.16146038229336224;1.2524480253067996;0.028145909503271324;1
0.6170363098347793;3.407485291225239;0.38073380765452175;0.3611866980030827;0.0673463076034431;-2.6838247990682635;0.004535525147817577;0.09024144818398927;0.026810664209802545;2.3257630636546196;0.0188640766799225;0.0632201488732538;0.09657922458427383;0.009327546621299601;0.1197645709371633;-1.9300927141467366;0.01609778509641467;1
1.3787429700371836;2.153991642799051;1.9009321774269539;0.8415801778967794;0.1664007462698876;0.670022663044934;0.027689208359175516;0.18451888533998595;0.05253083255793312;0.5323289581809814;0.05965126950137656;0.113184460079535;0.10002048142128317;0.010004096703745252;0.09782989647677898;1.8377857267270645;0.01657231376403734;1
1.9596056404100943;0.13962137233188088;3.8400542659270562;2.013046016955845;0.2782622274030287;-0.672597119144621;0.07742986719929484;0.32072658757580896;0.047379464282610126;0.1325545488470521;0.04741511165494036;0.113184460079535;0.12112876500158248;0.014672177710808592;0.20415122864030533;-5.897398129539363;0.020188275982098276;1
3.024268483844553;-0.8230437744077861;9.146199862375433;3.387833290761141;0.37766995956324134;-1.0130071143937993;0.14263459835650036;0.4385604885944723;0.03779125643235294;-0.1564538821440511;0.041042112776588174;0.0876924645661262;0.46063487347302223;0.2121844866595072;0.39182894297804083;3.0642198137862557;0.07444443293701919;1
2.944293131952161;1.8923347334344545;8.668862046860665;2.02655608304666;0.46225634416880224;-1.134485902480499;0.21368092772430614;0.5380205883959768;0.03676861370878511;1.014757747955045;0.03339451412256553;0.0876924645661262;0.7760526892978045;0.6022577765663547;0.6209926170311268;1.2249824687483706;0.13024361973275594;1
2.944033250685701;1.892025234414458;8.667331781143018;2.0237984807620175;0.5314572517158987;-1.1876172660215758;0.28244681040141617;0.6191068869803216;0.04836766075509912;-1.7000000000001307;0.06118078923218109;0.107066381156317;0.9796063863663285;0.9596286722096964;1.230966889567049;-1.497948455783721;0.17461391205718793;0
1.2791040429119054;3.5240506877213917;1.6361071525935813;0.8202147278256482;0.5850731840477089;-1.2136533227435073;0.3423106306917243;0.6818193843475084;0.05590598618078027;-0.6456488221162378;0.06576934842459475;0.1254206179259713;1.1195621992378773;1.2534195179623524;0.8299293210889838;3.0726425248537907;0.21419083969296215;0
0.30289673963733205;-3.38659599811446;0.09174643488292572;0.41727254552655824;0.6230178184484542;-1.2269628188711668;0.38815120210427095;0.7261580804975152;0.0602754986088652;3.5539281924895825;0.045120832058733545;0.1254206179259713;0.5987147576915303;0.3584593610776278;0.5994247671417616;0.8698592651359363;0.13578278402091754;0
0.3708681899715858;-4.799091951683858;0.13754321433280026;0.5653538603561499;0.5894388980879508;-1.634084671802185;0.34743821457913765;0.7151658378412522;0.010310874077779298;-5.951160024103503;0.017589476904252076;0.018354236769654295;0.6776986195649995;0.45927541896030594;0.945856906955933;-3.5751287679699733;0.17055487087810958;0
0.41254602483925873;-5.739918635076211;0.17019422261067427;0.6864957898386086;0.542078276485626;-0.5097115871313083;0.29384885783762676;0.5895802722603913;0.02644623046657406;1.8532528354831133;0.027021515244213354;0.05608239012949939;0.5050918431027472;0.25511776996893026;0.4498370332481705;2.2663791622368876;0.13874244349756176;0
0.37285152477149236;-4.753964397071119;0.13901825952442678;0.5668553553514246;0.4541763599435632;-1.9707287943805465;0.20627616593158507;0.5667814774864892;0.024507695667530447;2.53851893707364;0.019373916590190735;0.05608239012949939;0.22114573147944172;0.048905434551577344;0.23398437654990323;-0.21311350041135846;0.06666646306422688;0
0.5298724015862384;1.046227969068818;0.28076476196276784;0.44535060557892603;0.4709468117790291;0.08520808819503856;0.22179089952483225;0.4744956930650579;0.034674111968455525;1.2896197685870323;0.026511675333945182;0.0846334251045172;0.13788454925183644;0.019012148922382104;0.16422453267984904;-0.2753528533961731;0.04233677911618004;0
0.5017758288293194;0.9691290549862348;0.2517789823973504;0.42824193074290795;0.48293717010351167;-2.1678056895589393;0.23322831026758817;0.6126826508800198;0.04337736013853579;-1.0119863102584414;0.05302335066789025;0.0958499031304171;0.5850428728729716;0.34227516309946004;0.521420208824348;2.782551181670069;0.19629536697712072;0
0.7767986538305615;-0.6154457042360715;0.6034161485929724;0.8526844494276051;0.5861837459706585;-0.38826069943070785;0.3436113840401935;0.6288826625319253;0.021700661663075098;2.888377064734435;0.014020597532374822;0.0499643112062812;0.9317608667275213;0.8681783127648218;1.218849108444571;-2.2148283856390645;0.377995945918505;0
0.8389925669323306;1.769869215656298;0.7039085273677012;0.8389275852963087;0.5874519978876818;-2.2683350425222812;0.34509984982222885;0.7465070981145153;0.006582004939001281;3.223680000066068;0.00509839910268175;0.014275517487508901;0.9866071243875231;0.9733936178922175;1.144968160460282;0.23428213476442394;0.49239288417514754;0
0.5484394201073828;1.5218825150903648;0.3007857975277223;0.4075888254901503;0.47719993928579213;-0.32551283219195604;0.2277197820543637;0.5618785860918618;0.020436038904941778;2.578447340784006;0.012745997756704349;0.0479249515652085;0.6919435204687946;0.47878583551874915;0.4854675929942527;1.4299814560478517;0.5430016965421148;0
0.369569122842812;2.9953309366566465;0.13658133655880547;0.28561568076882904;0.25109501305498955;2.6199866867150483;0.06304870558108537;0.21415940394500532;0.017001460182046395;3.9843434604866843;0.008667278474558972;0.034669113898235904;0.3942630459140211;0.15544334937340154;0.3975379154888574;1.4613350466596184;0.3984784946529504;0
0.35605941293291016;2.899758625278899;0.12677830553812863;0.20903950432585017;0.1267675377840328;0.6382070840333771;0.016070008635826184;0.11973003137020943;0.016154766511425212;-1.550546816712492;0.021413276231263396;0.0336494340776996;0.33488640143221815;0.11214890186422077;0.2068170604963261;2.4126533965124874;0.36959606870437406;0
1.2507845751877966;3.141355464355815;1.564462053527717;0.7147452855322285;0.09086349868323722;-2.615119109356634;0.008256175392958651;0.1185144656322818;0.015807778055448;-0.8808962740464743;0.019883756500458875;0.0336494340776996;1.228180666672019;1.508427749986925;0.7004887923543636;3.2791261708892456;0.8774227616140121;0
1.0508394298996555;0.8555101075923464;1.1042635074318332;1.1811645761257958;0.1491968431833792;1.5832674589016538;0.022259698015885843;0.12897601674097628;0.02003352983010948;-1.7602217509176814;0.024472315692872445;0.0458855919241358;1.0471018492312687;1.0964222826635426;1.1756234947575293;0.8512059793781717;0.600217045893282;0
0.963252682746678;-1.2952484462015104;0.9278557308186722;1.135132126166489;0.28176492071606907;0.5655670662640091;0.07939147054613267;0.3106547974243313;0.02019506711567066;-2.024955306382614;0.02523707555827467;0.0458855919241358;0.9707797354093056;0.9424132946813614;1.1692633689386756;-1.5090580014062631;0.45040755899989116;0
0.6585190289019967;-2.021442652752766;0.43364731142602864;0.8812604382725118;0.46551385958709707;-0.9518163023178037;0.21670315346767555;0.5386407228291339;0.019726258919295355;2.75598893177283;0.011471397981033946;0.0458855919241358;0.6106434996850995;0.3728854837076661;0.7397436714245971;-1.4161656335844235;0.2504564586706583;0
0.3690405852644176;3.904672389653488;0.13619095357230385;0.2044905027227213;0.5083581113935175;-1.9247628626120292;0.25842796941958396;0.6287405145278049;0.007698413822035632;2.227146814446824;0.004588559192413574;0.0183542367696543;0.34126639108464973;0.1164627496839411;0.3317901305751598;0.3538009538811071;0.1546189093697095;0
0.8847633815113979;0.7129520882977012;0.7828062412634834;1.0035013232121512;0.3937881332525252;-0.46422548832885724;0.15506909389050855;0.47503917186784483;0.005419672587301708;1.5440520011300887;0.0033139594167431487;0.013255837666972602;0.8495238956105945;0.7216908492134003;0.7337909558823088;2.625537956609744;0.30904832443330216;0
0.9152044419985118;-2.75755311968274;0.8375991706538074;1.2913365321756718;0.21140289459723577;2.8831361655973247;0.04469118384408998;0.16000221048594665;0.013226391119682457;1.0199302760506441;0.013000917711838499;0.0305903946160905;0.8836121799147796;0.7807704844937488;1.2348668402672969;-3.1099981216333212;0.3030361766984396;0
0.7810235858935402;1.7969763335749285;0.6099978417220041;0.5598358317841456;0.1871122145960978;2.4480938432458537;0.03501098085105616;0.1605594624204454;0.030556386384769284;0.9305583801666586;0.030590394616090477;0.07035790761700819;0.7222377880035287;0.5216274224202301;0.6072994248242134;1.727240108940741;0.2205746309867816;0
0.35050642420789974;-2.287992512422411;0.12285475341100817;0.4579976596774449;0.3785216387200224;0.27036685795250825;0.1432786309792912;0.4273829803838767;0.02400582719892618;2.171312869410336;0.016569797083715646;0.0571020699500356;0.3700150370182179;0.13691112761959318;0.5262395296457214;-3.6464453084000716;0.09929106742460757;0
0.6629440628116879;2.0377920185073144;0.4394948304172673;0.6302230029982656;0.515193646179965;-1.9897003543361258;0.26542449306420696;0.6438967525879273;0.018075964006562244;1.8779392284643937;0.017589476904252048;0.0397675130009177;0.8187685456765194;0.6703819313892426;0.8692681125605057;0.7131565532187292;0.2038341149846907;0
1.2768887840784355;-0.07048277881625964;1.6304449669053056;1.4544241521074457;0.5178229633150974;-1.1589769274820778;0.26814062133642863;0.6051442989225233;0.015708806645989108;2.6665193788611674;0.009177118384827175;0.0367084735393087;1.356853266969781;1.8410507880865679;1.5619791590078291;-0.5414218033119322;0.2798999056472931;0
1.344793008645559;-3.1460675955017496;1.8084682361019748;1.8572953800522773;0.46540463396034143;-0.6563445203669236;0.2166014733117594;0.5129134539844045;0.017661372566216506;2.8888888888855355;0.010196798205363525;0.0407871928214541;1.3955868578034625;1.947662677673742;1.8750748738309921;-2.824615682458157;0.24278131755514418;0
0.8605315181681676;3.3364761021778904;0.7405144937608115;0.5799625735814216;0.41861544518729765;-1.8252116622130963;0.1752388909493594;0.5142651031034426;0.02177440247176752;-4.483379501387015;0.03364943407769965;0.042826552462526805;0.9262336521504801;0.8579087783760168;0.8191299829547125;2.6931290983380833;0.14274777659345594;0
0.59354142195465;2.704506429164212;0.3522914195759479;0.44274202572472454;0.2769206388455779;1.075824586429528;0.07668504021864297;0.2729020163214382;0.018126224976680833;2.351225765096169;0.012236157846436231;0.042826552462526805;0.4953151081114515;0.24533705632345892;0.5903200143119047;-0.4571878705448871;0.07373599182610163;0
0.6345532636631439;-3.823185389584447;0.4026578444255475;0.9024604930002509;0.2529010017966001;0.5866928993774074;0.06395891670972391;0.2596737782092271;0.008725812380371376;1.7284687246717763;0.006755378811053328;0.020903436320995207;0.5873907831624889;0.34502793214424204;0.9782267103379896;-5.83126110309363;0.08915921516880766;0
0.5983292219323268;-4.09581842408495;0.3579978578181436;0.8753385447144248;0.4631560766384498;-1.9899980715022547;0.2145135513271216;0.6017341635055313;0.012477196894043743;0.42538728022729444;0.012363617824003276;0.029570714795554204;0.4846380916320186;0.23487407986072487;0.7177359387851947;-3.9575333637206835;0.07473042146846598;0
0.6172569534769523;-4.400846768338033;0.3810061466156485;0.9325365492715161;0.519374558557541;-1.3460857396884904;0.26974993207684056;0.6183747687417669;0.02125233485754393;2.316194759556943;0.01848169674722137;0.0479249515652085;0.332575801196614;0.11060666354156971;0.5033035576749443;-4.483133317553122;0.052282228844963495;0
1.3664798173675947;1.9991277246687371;1.867267091272975;1.3532237496617583;0.4226549017420765;-0.5830217664972892;0.1786371659666043;0.4714206082936081;0.021632177550297275;-5.213440533235822;0.034796573875802955;0.0412970327317222;1.3302848445019644;1.7696577675116154;1.0537769819371992;3.1717139204573392;0.2289375009576577;0
2.048247815618417;-4.548368281510408;4.195319114185618;3.1575035988670783;0.368230367906139;-0.7122591268944127;0.13559360384829047;0.4078308703429723;0.018838797403964252;-6.000000000001896;0.032629754257163204;0.032629754257163204;1.9793608663716409;3.9178694393234927;3.0163971302223214;-4.479794553610862;0.3980057265030499;0
1.7835407125299476;2.6886467786665804;3.1810174732518335;1.4777732942826818;0.4162546742397533;-0.8178615362076425;0.17326795382644314;0.4731239633518316;0.028189121947137734;-2.3290170224468696;0.039002753135515406;0.058121749770572;1.7495040383184002;3.0607643800923903;1.6290279646314634;2.3504284922715026;0.4344182383332308;0
0.8109221909450729;-1.15549627382903;0.6575947997671573;0.9501017696720826;0.4959568596320252;-1.3312986780320877;0.24597320661606034;0.5872645577804578;0.023788280100516136;1.5205266399514166;0.016059957173447534;0.058121749770572;0.6722019607861462;0.45185547608473975;1.02334437116422;-4.809836260476493;0.19646119980722118;0
1.564910730086426;-1.1444538277353846;2.448945593139631;1.9132564015871951;0.4423739207492209;-1.9651454073775803;0.19569468575903795;0.5683511788135538;0.03266259850255631;2.1592518335579634;0.021030896298562234;0.0780055062710308;1.3522825367937403;1.8286680593173135;1.6198894969430597;-0.37602453455775553;0.34840607163139964;0
1.4826697200003411;-2.061817819316719;2.19830949860589;1.9910926521026635;0.3434514375216514;1.0509604914881727;0.11795888993568882;0.3112418675043346;0.042608251960784625;-3.6567996932139106;0.060543489344345766;0.0907515040277352;1.362554949273626;1.8565559897900534;1.8860096272241464;-2.5814777878421484;0.29356773057515995;0
0.8647929903679701;-4.758225359838367;0.7478669161895759;1.328516686918383;0.24738996254783346;-2.5546073407029155;0.06120179356941844;0.3215400652343125;0.029111144555940896;3.3434143433755708;0.021540736208830374;0.0632201488732537;0.8477621625763455;0.7187006842961221;1.3369797461079047;-5.151731453196067;0.16884062208937678;0
0.7905497543944885;2.1098688278344238;0.624968914173186;0.5656572294308955;0.24433936340655402;-0.5122375577069782;0.05970172450992007;0.26903487652252933;0.0455926792503059;3.7462610444693603;0.028168655042316745;0.0973794228612216;0.7903295964573265;0.6246208710364005;0.5438899452709203;2.2705131846601;0.1417959502221462;0
0.841900223786361;-2.6751994465559576;0.7087959868115247;1.1039300984142342;0.1530576904963147;-0.8502279442309408;0.023426656620065666;0.19142537454855896;0.04979668460608135;-5.939308293383896;0.08437850514938314;0.089731824207199;0.841492757372696;0.708110060710703;1.1139033221509544;-2.8090822224087173;0.1563036185632607;1
0.7993528672808762;1.9852050559531769;0.6389650064301581;0.6431287587091994;0.07246998100073372;2.711423280334113;0.005251898146246707;0.06220177277480013;0.04547493827307035;-4.705405343397471;0.0706128275721424;0.089731824207199;0.7965835615127778;0.6345453704723815;0.6410059671796695;2.0021216430479107;0.1524248609504323;0
1.551273847181614;2.010618626029853;2.4064505489496457;1.1001593546844948;0.03564008128711936;-0.9178856055290296;0.0012702153941524755;0.04249483939646656;0.0656163502344638;-0.83703746094778;0.08284898541857857;0.1386764555929437;1.5478964397095805;2.395983388065595;1.0981627507404657;2.0072585270216248;0.32458028883823226;0
1.3861939573601494;-5.856730111191086;1.9215336874217919;2.3263412089805975;0.03614095329952059;-2.480925976609166;0.0013061685053981284;0.04783404175202963;0.07675193521587259;-2.0677407091441573;0.09737942286122142;0.1723258896706433;1.3820227392850777;1.9099868519010297;2.318751046425687;-5.85565582016154;0.35847308934944727;0
1.20014619861773;-1.1356415953755903;1.4403508980565878;1.5415916067889803;0.03386792940009944;0.9169876505882968;0.0011470366418501199;0.029453176076641857;0.04497778291489981;1.668097354053538;0.034669113898235904;0.10808606097685311;1.196858075243224;1.4324692522749152;1.5384655344621319;-1.1517011312426462;0.3329036304476176;0
1.4357316471741781;0.331863923018366;2.061325362697479;1.673024675343279;0.056117754658503265;1.600025165972065;0.003149202387911965;0.05569278351596263;0.029203637180829186;1.0913039071851554;0.025237075558274646;0.07035790761700811;1.4357101822165268;2.061263727320213;1.6717353198602636;0.33891435294689387;0.38506595484200096;0
1.4541512768662743;-2.8211558485044694;2.1145559360118162;2.0448244741996326;0.09545365698805858;-0.8324709068165035;0.009111400632393943;0.11348484667609093;0.035012306950931604;0.8020439684871814;0.037728153359844877;0.0774956663607626;1.4560294618676286;2.120021793826536;2.051303457148977;-2.839860453169683;0.32537366349827507;0
0.8411968842143634;3.223330165982162;0.7076121980119532;0.6691107468185669;0.18706212959210863;1.1138114801777128;0.03499224032753484;0.183856940994641;0.01589250955542752;-4.9416109376885995;0.0247272356480064;0.0316100744366268;0.8461657105262546;0.7159964096704012;0.6482430451950965;3.3760268532556488;0.16449049606917482;0
0.22201721378655911;-4.633633116786427;0.0492916432175467;0.33321082096980525;0.30338594625996146;-0.6680867349168533;0.09204303238805223;0.3570293117496438;0.027072771276512024;-0.4754226491486957;0.031864994391760874;0.060161109411644695;0.18503239722996376;0.034236988024667105;0.2891935631334466;-5.090880738107215;0.0336226234064337;0
0.6039248652772619;2.8619913205201932;0.36472524290015884;0.4119399603349274;0.3626944362634995;-2.079018707848297;0.1315472540964977;0.4541095906890129;0.0249266010535418;1.1466784833725754;0.021158356276129275;0.060161109411644695;0.5309681772005981;0.2819272051997257;0.32721427989350715;3.0323156466528047;0.10247920858802419;0
1.1741342945267144;0.024621915235371716;1.3785913415837452;1.3868959508935745;0.2897303730731831;-0.4425249950073571;0.08394368908112586;0.3434191675654843;0.018011136670394112;3.209401709399792;0.014275517487508927;0.0387478331803814;1.0623280813565426;1.128540952438673;1.2550508982506434;0.15148153288978783;0.2334574732143647;0
1.1433483760586047;0.26568150247144473;1.3072455090358488;1.3392168653481153;0.1521299777829589;2.753786973270344;0.023143530140243562;0.13035916818019522;0.021555940564083335;2.9487343805913646;0.013893137554807776;0.049454471296013;1.0647872223609296;1.1337718289031036;1.257459430050071;0.13086932016455322;0.23387410517698892;0
1.1109636289618752;-2.355332767533868;1.234240184876139;1.4821069110239407;0.04314698057114917;1.828647209418552;0.0018616619324071243;0.04218687147333822;0.007978899577043043;-4.727931823681766;0.012108697868869076;0.0163148771285815;1.0453101288500621;1.0926732654765334;1.3693693383990055;-2.0513301502217036;0.25774875264129016;0
1.4649384924133262;-5.356418017434899;2.146044786554229;2.3298529089833986;0.18636580523350804;3.888192593983721;0.03473221336033385;0.11465946795907267;0.015217817474611726;1.539030978296278;0.011853777913735025;0.0367084735393085;1.3625096236253398;1.8564324744716652;2.1844712389339307;-5.471345549229648;0.31035968600714825;0
1.1904891642599995;-2.743447520506159;1.417264450220472;1.5883052207059407;0.43190962603914373;0.13697065354078752;0.186545925065273;0.5121422413231954;0.010802311429383982;3.4233117431202373;0.006755378811053349;0.0239624757826042;1.1385204761725347;1.2962288746641353;1.6488164872375788;-4.038038263951234;0.24704257176366032;0
1.2755913883935541;-3.611908946010457;1.627133390143795;1.8604176506580474;0.577788546866184;-2.1324418740143187;0.33383960488973646;0.7264708074870012;0.00986861842966415;3.954281227459415;0.0050983991026817485;0.020393596410727;1.1826854555051987;1.398744886663539;1.7875005751033615;-4.4976427247788315;0.2540771357920711;0
0.7874826394135516;2.6688036019893815;0.6201289073777336;0.6920804898454369;0.4618537687746973;-0.4010600076459756;0.21330890373139155;0.5495426203855682;0.01623768745720028;1.5049269161964993;0.0099418782502294;0.039767513000917604;0.7963549355657644;0.6341811833999529;0.7073024709186271;2.3620629629007137;0.15551948196210355;0
1.2267703381466815;-2.2589753799911776;1.5049654625565232;1.6123784093338864;0.2154891000769357;3.4097696732672347;0.04643555225196761;0.12113515960226542;0.013952453277043362;-4.903529892572227;0.022050576119098577;0.027021515244213302;1.2233122060157053;1.4964927533870114;1.5919267198922222;-2.093534899246764;0.277883618393813;0
1.1922589224695177;0.6277507211141025;1.4214813382081755;1.2758803662608678;0.059167791951923066;1.766934231881157;0.0035008276044660516;0.036910336230713825;0.017741525402380765;-3.5319330037668024;0.024854695625573527;0.038237993270113096;1.1919261992648809;1.4206880644940243;1.274382259444189;0.636525641778757;0.2643968843373627;0
1.0697919893537;-2.9194929194214296;1.144454900485347;1.4506742446368293;0.07802447442192022;-0.3383358076741825;0.006087818608816883;0.08756827228909742;0.024367201006128776;-4.451296786842391;0.03632609360660745;0.050474151116549404;1.068882567028107;1.1425099420965958;1.4487051363346102;-2.9175243001423787;0.27198555382487966;0
0.6655374288652605;3.03485869911394;0.44294006922058166;0.40303214013513156;0.03920446601545955;1.9320202204895374;0.0015369901555573231;0.031740484468369023;0.02843357570270669;1.336369776106384;0.025874375446109977;0.066789028245131;0.6654262694325416;0.44279212005090945;0.40391786443396915;3.0208917705174834;0.19388301542373285;0
0.756592185229976;2.0687178998778872;0.5724317347510702;0.47601791386736014;0.017375754490638294;1.13755083174261;0.00030191684411893686;0.01824220206269017;0.01204704707416264;-0.06315170414484506;0.012491077801570279;0.0285510349750179;0.7558969518657696;0.5713802018399615;0.47630696229808533;2.064324665502385;0.22498856061550812;0
0.3360310859099731;-5.14229244426709;0.11291689069783573;0.531586586333801;0.04046993851369378;1.0606067537910597;0.001637815923302155;0.040758196197479446;0.009289725276989898;-0.8787922774871486;0.010706638115631655;0.0214132762312634;0.33517401735398855;0.11234162190921183;0.5278236248926045;-5.071363131457462;0.11392146887616916;0
0.5501675303817666;-0.9531093915978719;0.30268431148637204;0.6709435825833427;0.041152333911743125;-1.2196931344039417;0.0016935145863836033;0.050116243560618445;0.0150553921283096;-1.3280447773678201;0.017844396859386154;0.034669113898236;0.5493366723074741;0.30177077954184917;0.6671343537959378;-0.919055819192133;0.17827153132278137;0
0.5493578737110557;-0.8018037390423078;0.30179407340833225;0.6631542026822124;0.04000752575090106;-0.6496595212088749;0.0016006021167090112;0.045444144483518356;0.01130879627450715;-0.6804150968155067;0.013255837666972598;0.0254919955134088;0.5485317349618364;0.3008870642602423;0.6593111510696184;-0.7673478076010323;0.17816108350311627;0
0.5160579968797554;-0.41601335804623396;0.26631585614354564;0.6334387624566014;0.08026540390600559;1.8328289843189811;0.006442535064194218;0.06915790060794857;0.006502541201763224;1.5000000001282086;0.006627918833486273;0.0142755174875089;0.5158693306238646;0.2661211662783141;0.6303677521888327;-0.39891035552734344;0.1659920124623921;0
0.4674277918709164;0.9484245705769414;0.21848874061332071;0.44940159612038455;0.07230552371216997;-4.951404881590394;0.005228088759291174;0.11159298909518828;0.007469923175906511;2.684850121571351;0.0050983991026817;0.0173345569491179;0.46921418638654017;0.22016195270638284;0.4526064553803586;0.9262361347378327;0.14815497223430718;0
0.31016548051212245;-1.0504783049552593;0.0962026253013158;0.3560399852882856;0.12648960695454559;1.9859545769614169;0.015999620667515424;0.08749666384817803;0.015870686668984533;-0.20890750520962342;0.0180993168145202;0.0356887937187722;0.3119074766748277;0.09728627400565819;0.35916468781966904;-1.0839386156989104;0.10147926011041894;0
0.45018886694717575;-2.781801925284878;0.2026700159231819;0.5943392670169656;0.14984114235071633;-3.610741695385384;0.022452367940967638;0.21782367172843278;0.015870686668984522;-3.1098160626488074;0.022178036096665597;0.0336494340776995;0.4542386052548886;0.20633271050390653;0.5992029617226518;-2.769230409484898;0.1418887003417887;0
0.3074319720976858;0.4649618724383391;0.09451441746787226;0.29241138187138827;0.15666250934357187;0.7367409570168189;0.02454314183382474;0.167197327169027;0.011847608890202819;-5.633470507548931;0.019373916590190624;0.0224329560517996;0.31040289010574923;0.09634995418600184;0.2867755784481618;0.633932380592773;0.09266963277987993;0
0.20751825001792862;-3.7258011954554746;0.04306382409050353;0.30475036043239045;0.06372076461339454;2.7572939836484096;0.004060335842915635;0.04172041873724314;0.011988467481877457;-5.668307580832157;0.0197562965228917;0.0224329560517996;0.20673855285429393;0.04274082923628769;0.30823085602900147;-4.013995220800936;0.058521044013339026;0
0.4726253447148817;1.9866910646348312;0.22337471646686077;0.29622112445623294;0.11446224108244506;3.5504034141022593;0.013101604633615772;0.06769977822493722;0.018318205761796155;1.4970957437995551;0.011598857958600977;0.044865912103599304;0.46680422024794194;0.21790618004128906;0.2924131287206442;1.9837781074334284;0.12348207989301932;0
1.0315713836666374;1.152628603731383;1.0641395195999008;0.9209193663182158;0.1422681056844386;-5.584464714741021;0.02024021389503859;0.23050280427892073;0.02250381617003493;-0.9597883935385667;0.028678494952584878;0.047415111654940396;1.0322011573487875;1.0654392292321762;0.9175423421539501;1.1995511858305647;0.30886598761803585;0
1.0796100817503027;-2.0215758275737965;1.1655579286168953;1.3456560126548345;0.10865411109293163;3.1841401604787514;0.01180571585739513;0.08323729754401904;0.0251545422337284;-1.936465491010786;0.032247374324462175;0.0555725502192312;1.0806433494474768;1.1677900487050614;1.3514915698778358;-2.063414110998675;0.3379908260826446;0
1.0714899157323996;2.572424013803719;1.1480906395162247;0.8295273785313366;0.07200524802967438;2.433277628209833;0.005184755743814926;0.0574287225582123;0.013990438191100322;-0.13566627688880928;0.015040277352911219;0.0326297542571633;1.0710916334999983;1.1472372873536947;0.8296790306702428;2.5679719319189616;0.3719306187797607;0
0.3309055809345101;1.598306899907307;0.10949850349360564;0.31296558597204704;0.0990301064626986;-3.5549148679713767;0.009806961986013418;0.13802838980212728;0.009583543849543737;-2.093698825140674;0.012236157846436245;0.0214132762312634;0.3316555860448506;0.10999542775475331;0.31459379582738567;1.589085497032956;0.13679695218056365;0
0.3139387210131665;1.3579863459200325;0.0985575205513828;0.30385516338338636;0.10234273854117983;2.8024991936542527;0.010474036132108294;0.0912723466074219;0.013173879185808228;1.393585109122922;0.010961558070765778;0.0316100744366269;0.313062401519471;0.09800806724513848;0.30460678386431184;1.322850546814637;0.12859814309744716;0
0.25438039153808145;2.547993216495634;0.06470938359906761;0.16074543222972348;0.050852258372524856;1.7381058223727965;0.0025859521815860243;0.03227341222156074;0.008942810996854202;-3.568705842799771;0.012491077801570303;0.019373916590190703;0.2541340240335718;0.06458410217149607;0.15528109834215176;2.5786568988541205;0.10765662414729894;0
0.3440476747456949;-3.9986916938454833;0.11836880249791949;0.49515796556947;0.04620715041828775;-5.615740676849032;0.0021351007497782694;0.07586313643951018;0.016878704351225245;1.8921359688877768;0.013765677577240752;0.039767513000917604;0.34175111018567433;0.11679382131314092;0.4960322808898554;-4.118293547168605;0.15382265053175662;0
0.44150489083140493;-1.6112004329698806;0.1949265686280508;0.556327481476329;0.04964155206507287;-5.348905017208013;0.0024642836914293407;0.0786173322718596;0.017211659748511646;1.7758480408316384;0.014020597532374848;0.040787192821454;0.4386948438520001;0.19245316602233076;0.5570117985841221;-1.6911408832563168;0.19218233797321366;0
0.4011457974524931;1.6514332752365846;0.16091795081379665;0.26116024043860353;0.045398675696088235;-3.023669094170897;0.0020610397549585924;0.062390880517064595;0.02280643341118063;-2.984373880025986;0.030845314571224525;0.0499643112062812;0.39710743269730764;0.1576943131034467;0.2558637168360449;1.6554974492139163;0.165980806989568;0
0.474608959578703;-2.7175418694408062;0.22525366451237896;0.6681673644204844;0.04345177241630774;-2.1668585205682778;0.001888056526118602;0.055222821905493935;0.023642136618712933;3.3427663955468034;0.018609156724788398;0.0499643112062812;0.4702623903593749;0.2211467157865131;0.661831097497386;-2.694331601545267;0.20834181215245343;0
0.4024578629846514;1.7470020554948178;0.16197233147817247;0.2989130927267065;0.05355839004360223;-1.0425381034296421;0.0028685011440626306;0.061817427825428345;0.023563209968983884;3.1692617374350753;0.019373916590190624;0.0499643112062812;0.3999459931897947;0.1599567974685713;0.3022191814913988;1.7304500327601886;0.165313310513342;0
0.2874405314760171;2.6650555041982997;0.0826220591352152;0.23983360517262842;0.09969510417939638;1.7116287215913317;0.009939113797340698;0.08865024934200988;0.005165930510032973;3.492325855810769;0.00356887937187725;0.0112164780258998;0.28652262367006326;0.08209521387477671;0.24377516433354396;2.5012689186720998;0.12504414837105632;0
0.2817770445433998;-2.0337615126364437;0.07939830283161312;0.3517577636322011;0.23124100497914632;0.04566534885919893;0.05347240238376557;0.2648290443682877;0.015892509555427467;1.9319742621854434;0.015550117263179274;0.0346691138982358;0.27982305304569316;0.07830094101581282;0.3390826303334218;-1.6717256787763262;0.12694984431430675;0
0.575808794999023;2.1089265343805295;0.331555768398227;0.5166662985940751;0.21432366315205387;0.30817541622487;0.045934632586915054;0.21210133819372545;0.01589250955542747;1.9319742621854434;0.015550117263179274;0.0346691138982358;0.5774426746252528;0.3334400424783655;0.5053875352584143;2.218250105082289;0.2833522764561932;0
0.7776366911631306;-3.1228844933446567;0.6047188234431421;1.0685599022740602;0.12747055276879019;0.7503660007899686;0.016248741823180923;0.13975628683909955;0.022051190079614404;1.9552217044319562;0.01478535739777705;0.0530233506678901;0.7805157549550281;0.6092048437330174;1.0782035226213231;-3.1679664265894676;0.4975159086847075;0
0.5908583484797804;1.857891477004861;0.3491135879682536;0.3787854429389905;0.13259662510461157;0.4691975720167161;0.017581864989132907;0.14431776680317485;0.04184001982074917;-0.8134582593126591;0.04843479147547655;0.09584990313041689;0.598144766710078;0.3577771619426536;0.3846759016420118;1.8732274999287242;0.46643042263926743;0
0.5123523817893813;1.5894630595612362;0.2625049631252519;0.3342507251207727;0.05681038181308343;2.756723254192252;0.0032274194817483205;0.04012593885557045;0.045337545673565474;-4.198688693905099;0.06602426837972862;0.09584990313041689;0.5121271177588319;0.26227418474396846;0.335897728541932;1.5799175479028449;0.415145142002331;0
0.6127227194663748;-2.538101841908187;0.3754291309502698;0.85277296035652;0.018545084781725393;2.0299095042723803;0.00034392016956138273;0.017642610019545674;0.04148125521460175;2.2471787398303906;0.03390435403283368;0.09584990313041689;0.6123389971642751;0.3749590474481501;0.8514711999924063;-2.5198852967233574;0.4347705271317569;0
0.6469620673684892;1.550439982013014;0.4185599166137095;0.4088872986766616;0.06610775439857007;2.8821226450515347;0.0043702351916216605;0.04758375475844026;0.01363921024250234;0.20077104155242687;0.013510757622106698;0.032629754257163295;0.6474901907316446;0.41924354709370154;0.4089918683668867;1.5540587060910358;0.3340307570081628;0
0.8479587031794351;1.7011744332423415;0.7190339622977494;0.5290918031488734;0.06258877995988767;-5.366272539804319;0.003917355376867235;0.09936582162240831;0.010357773489127694;0.625750411747477;0.011152748037116376;0.023197715917202003;0.8448633089863781;0.7137940108714121;0.5272630656760655;1.6887732740961212;0.4641739636677121;0
1.0066575936276698;-2.756349817270907;1.013359510808251;1.4239885219049842;0.04972172271061252;3.5237833077683725;0.0024722497093110415;0.028531380726857347;0.014975146142795851;-4.738376548623851;0.022879065973284426;0.030335474660956402;1.0030989497045744;1.0062075028984203;1.4163202657406193;-2.715525468320253;0.658291564732561;0
0.9720450823694324;1.7821428317915018;0.9448716421585966;1.0005584625676116;0.06795705627232224;3.6837245253987305;0.004618161497199571;0.04792218567941359;0.015826095202336073;3.2797182816296555;0.010897828081982204;0.0351789538085041;0.9691425117639861;0.939237208108208;1.0102726951379846;1.6677988646363016;0.6980071513212269;0
3.195330105400534;3.8312116973483725;10.210134482478987;1.6997333780530441;0.0670489649463953;3.1744459158077625;0.004495563700382946;0.05545503585189415;0.015665137185432196;-0.11502499166092761;0.017780666870602604;0.0351789538085041;2.280315742583762;5.199839885875333;1.6809383250713978;3.5957308071447613;1.1074290648136353;0
3.260759031187604;-3.9283463000682666;10.63254945947152;4.757638398724031;0.06812684694691556;3.0347188190249454;0.0046412672749284595;0.056679171561991815;0.015005672124769285;0.1010625737992914;0.01567757724074635;0.0351789538085041;2.139856179569525;4.578984469241884;2.6911923093691006;-1.5904132596308465;0.7847315158453868;1
2.8728743931665948;-0.01665038406021324;8.25340727891233;2.9808589699977266;0.06848737859863632;2.9928509435022086;0.004690521027312948;0.05803785234703446;0.05086212109192086;3.2022593659297094;0.0353064137860711;0.1136942999898031;1.8749812378975497;3.5155546424678277;2.2998354517666426;-0.7809831635337492;0.6318167272780845;0
1.7576697341323264;-0.2631691080985572;3.089402894284803;2.1136533068765484;0.08410595701194572;3.4761589991695487;0.007073812004895261;0.04997080509558541;0.07488690401317337;-2.9786394648900387;0.10502702151524415;0.157030692362598;1.756419889297075;3.085010827518349;2.1110058709557338;-0.2560111224578492;0.5701269618672125;0
2.102747810792465;2.2514847824797712;4.421548355792505;1.363487831802088;0.08963142847140086;-5.9870441973143045;0.00803379296982385;0.1540093684202278;0.06798035414754809;-2.2510588847338937;0.08973182420719887;0.1478535739777709;0.8410366034121993;0.7073425682791291;0.5526098770325383;3.7855207062200122;0.39582458516172814;1
2.264877482856185;-5.05495538739283;5.129670012348968;3.5748067272480624;0.13190505831096075;1.5046556119852283;0.017398944408017952;0.08095521913145245;0.06696567374400905;-2.2273628462737385;0.08890333435301306;0.1445396145610277;0.46347129969560147;0.21480564564153004;0.3620417126672224;3.278612660689717;0.23961876638400892;1
2.173718476024049;2.601715654185849;4.725052013008314;1.924868170471779;0.20849551562576127;0.8533592606306186;0.04347038003605206;0.23457015966094422;0.0721513169852143;3.637833484430786;0.04900836137452835;0.15397165290098902;0.6379305926217304;0.406955441002712;0.9309481523368683;-4.14482392442285;0.2825865710906166;0
0.5796984296398924;-2.4372517994997445;0.3360502693269573;0.7485799654992857;0.20157906651098012;-2.513012188483124;0.04063412005543814;0.2671444765112996;0.01051345237437983;-1.8945656614719546;0.013319567655756072;0.023452635872336102;0.5898479161789926;0.3479205642206999;0.7325117693923751;-1.9250686876085101;0.25384923990525;0
1.507572580204354;2.80393174146225;2.272775084584014;1.2544467464060167;0.1183364543433086;0.1652472616241738;0.01400351642654596;0.12390673817553266;0.008297961062451247;0.4454993151226514;0.008476088508208371;0.0193739165901907;1.0725646771963653;1.1503949867693433;1.0041919516782576;1.7855652660799937;0.5227089271456451;0
1.8215455957932158;-4.659913927823986;3.3180283575536613;2.762621243857023;0.07459701075840487;-1.9940755199673905;0.0055647140140895725;0.09598920131119582;0.017460931467348388;-0.6265000299683159;0.020775976343428093;0.0387478331803814;1.1225326446697181;1.2600795383491918;1.5285058436381986;-2.8760554316253035;0.6961641488057639;0
1.4963454670076193;2.8047313487240935;2.2390497566342504;1.141746911819306;0.08357220479655426;1.2725743121462614;0.006984313414557207;0.06857439335303267;0.018089739822347684;-0.7480311984144716;0.02128581625369627;0.0407871928214541;0.6761034755138421;0.45711590960189646;0.767361387117715;-0.5401773320509378;0.5575873095645051;0
0.7448066537559974;0.35732688690392855;0.5547369514792062;0.7370920068366252;0.14877294696056922;0.9172846878466636;0.02213338974733234;0.16031126444671273;0.018655659344242237;-2.8193781293037823;0.025109615580707623;0.0407871928214541;0.42129431194362627;0.17748889727605346;0.4770093981554284;0.046738462309798834;0.528545555619354;0
0.7399141284209085;1.4718764013274317;0.5474729174368728;0.6128650904899968;0.2624925419184062;-0.3371183751606939;0.06890233456278624;0.29755323495413005;0.017173862338682764;2.2228138320738573;0.011726317936168053;0.0407871928214541;0.404954479938664;0.16398813082239386;0.41005469627247315;0.6714838667432161;0.49420821521582275;0
0.8898636268095929;-2.4775727715467077;0.7918572743187223;1.214409447847062;0.3996043827965559;-0.4978600823065573;0.1596836627502164;0.45058930575363426;0.017173862338682795;-5.651243232192764;0.028041195064749724;0.0326297542571633;0.4056551842103481;0.16455612847673143;0.4236407008636889;0.3700918087329583;0.49234227729995866;0
0.6551168732649704;-5.570254753202324;0.4291781176364713;1.0590288876816698;0.49089721901300115;-1.7366943043481697;0.24098007963469845;0.6007869871114689;0.015170057852840558;3.416098127454788;0.011216478025899874;0.0326297542571633;0.38179011551499775;0.14576369230495534;0.4101264151760423;-0.0001573736187516772;0.47110449655269954;0
0.573925166624527;-1.754086346124799;0.32939009688499105;0.7331780034857356;0.50260444303243;-1.2816715082499783;0.2526112261559392;0.5905998605700646;0.017352042636774673;2.2713209461235433;0.014530437442643;0.0397675130009177;0.3744478908206183;0.14021122294000968;0.5260029312105187;-3.478438419469251;0.35292875867527107;0
0.8540644833591918;-1.5454364464671322;0.7294261417356033;1.027125474735052;0.33587840605526026;-0.10823441641678144;0.11281430365422229;0.39251339031572297;0.017941246400309748;-2.6849486186883382;0.023707555827470226;0.0397675130009177;0.45334682284532807;0.2055233417839533;0.3629759498729168;1.2551166118276509;0.32400254294423037;0
0.5798002028109918;1.4463863610103793;0.33616827517966724;0.4101820340338822;0.3598904035975741;0.393516253661673;0.12952110260162478;0.4057523667702019;0.012988415624407808;1.688894375852854;0.007902518609156726;0.0316100744366269;0.3999682975258502;0.15997463902572703;0.3263638899671184;1.6059051510198117;0.2785644372229858;0
0.5865881368659975;0.7485009457189999;0.34408564231192224;0.5292504450513206;0.5783901325402776;-3.7055222480082204;0.3345351454199599;0.8456042759681335;0.014878825621569947;-2.36242661447562;0.020138676455593005;0.0316100744366269;0.5820288477246944;0.3387575795837355;0.6440886388433696;-0.6330104185877481;0.4612705867893201;0
0.6109084809265467;-2.5576957962704654;0.3732091720679809;0.8070118687026769;0.6148739890840392;0.23388838971572845;0.3780700224521192;0.6548125332642443;0.009579022243323822;3.1320049114094033;0.00688283878862038;0.021413276231263403;0.6719684863302232;0.4515416466209314;1.008000815154991;-4.1960877120237114;0.48584268657799734;0
0.5886957810976436;2.1769803901718205;0.3465627226821648;0.5049755565724546;0.36907587118811636;-0.5523074995248667;0.13621699869326706;0.4240143971932179;0.009142828960905897;0.9623823881464624;0.008794738452126052;0.021413276231263403;0.5465478609714474;0.2987145643324645;0.33891425635865147;2.3065638213853816;0.4755922249352087;0
0.6051359575505074;1.9061980062838835;0.36618952712056957;0.5758472452074543;0.27685892759532404;0.11366885952714512;0.07665086578923289;0.280060235855924;0.007792104260556338;0.15200522257624982;0.008029978586723777;0.0183542367696543;0.5710373034815165;0.3260836019674415;0.49177806226391474;2.252817742023403;0.519956908105415;0
0.5217858352378049;-0.9897133033884824;0.2722604578548137;0.6018071215530453;0.17870746545955016;-2.6189334082250753;0.03193635821097631;0.24771797711031263;0.0075778860404525;0.9974334789476309;0.006500458855919249;0.0183542367696543;0.4845062095288968;0.23474626707205923;0.6010862190840134;-1.7220556598776042;0.3685991628631037;0
0.29643410099186734;0.9151799275586949;0.0878731762308566;0.2569356342816663;0.24379709100515057;1.9976974821601807;0.05943702158257367;0.1569234015707136;0.009246487123504203;1.2212920770002;0.007520138676455606;0.0224329560517997;0.30330306906216153;0.09199275170252631;0.4132361285834616;-3.0164764106295383;0.25712156671088476;0
0.595009500902585;0.5869409900637788;0.3540363061643433;0.5759745516565249;0.3077037965008071;-2.837210448245866;0.09468162638101012;0.43384663429229786;0.009172396430109865;1.453823073085303;0.006372998878352146;0.0224329560517997;0.6374497673223184;0.4063422058592779;0.4646609761914635;1.6828742744159424;0.4224267239277556;0
0.42297713357917277;-0.5583019438215704;0.17890965553085336;0.4648190891279371;0.4789166493833513;0.23470228136429405;0.22936115705657587;0.477169373682499;0.03201318317486051;3.5640581167403553;0.018354236769654246;0.07035790761700811;0.5259344480874535;0.2766070436850543;0.8672948460796517;-5.747798257529483;0.2796200922719839;0
0.4082413108055798;1.7354217249797337;0.16666096784825798;0.2482677107853064;0.4488540452944903;-3.4851415246731747;0.20146995397722836;0.6230581643986217;0.04418383775416078;-4.818569207526885;0.06755378811053314;0.0897318242071988;0.5042727894795765;0.25429104620951337;0.31051605670132787;3.7163660777580034;0.23729789057244294;0
0.19692329135538025;-2.2861918249008237;0.03877878267823598;0.2717456890009786;0.3187542650277289;2.5852518284078307;0.10160428147336763;0.26078610395510204;0.041880382473707324;1.7482827337030677;0.03849291322524725;0.0958499031304169;0.10694844343911603;0.011437969554049798;0.132568398817845;-1.774811714510978;0.04421245268705353;0
0.3515128434559078;1.916230621846557;0.12356127911445754;0.35650668972809685;0.09650693628329195;-0.5974988439446189;0.009313588750787373;0.11422933476812602;0.021136333654249096;-1.0587925160171778;0.024472315692872428;0.048944631385744904;0.2603687901405162;0.06779190687923617;0.22254776805113208;1.7287781495780177;0.10176417378936946;1
1.302862166459978;2.7942843052424564;1.6974498247927876;1.1022609127739027;0.13782816174361043;-0.04163422606649192;0.018996602169622834;0.14228399238006517;0.015494995861001207;-0.9410863481419387;0.018609156724788446;0.034669113898236;1.0908663476497016;1.1899893884345996;0.8595085543927099;3.2780696098901494;0.3432198506212213;1
1.1613646630900698;-1.4393588998595135;1.3487678806743115;1.4159645523564635;0.22657647836522024;0.8710665217457283;0.05133690054838511;0.23320426431837693;0.047706597009442554;3.4455060985841968;0.03543387376363822;0.10196798205363511;0.9860995062335286;0.9723922361940089;1.1089178518621865;-0.17248456098222498;0.283596611205203;1
1.0039612594241367;-0.9262312994094017;1.0079382104244987;1.2804904274110314;0.24145842508932383;-3.99066114320377;0.058302171046616606;0.3492176031674963;0.06249994075605781;-5.629897444801911;0.10222290200876916;0.1182828591822167;0.9451414176339494;0.8932922993271116;1.075071662173488;0.029031212991185384;0.2691969423825752;1
1.0675688190343202;-1.2869860996244054;1.139703183374333;1.33744088963521;0.28711604622788556;1.1722502220273743;0.08243562400153333;0.2314976455525235;0.05482300439456419;3.705852316825748;0.032629754257163225;0.1182828591822167;1.0954802094486513;1.2000768892936609;1.3348319165425715;-1.0982363045293546;0.3252424372381087;1
0.5601935896557361;3.4374530487635155;0.3138168578913792;0.3534378956290203;0.2839316717206956;-3.320708636288977;0.08061719420610887;0.39741048044324423;0.014360239403335862;1.329906080085836;0.011726317936168025;0.034669113898235904;0.5929070522656048;0.3515387726262886;0.49068269746608717;2.854258405083815;0.21267254955367462;1
0.7632716032586397;3.6359801671247567;0.5825835403410143;0.5361316117043216;0.3069833289290511;-0.2372493964784521;0.094238764240362;0.3318363685999539;0.015741866254592608;-2.6563254926850064;0.020903436320995172;0.034669113898235904;0.8011719917063176;0.6418765602946679;0.5289746694498203;3.444649759404726;0.38054411045709324;1
1.2741230559620864;-2.217914569207828;1.6233895617341663;1.71009947742764;0.19142311314901317;-1.1152789702384815;0.0366428082476599;0.24208120233636143;0.034138975821434596;2.766896707959578;0.024217395737738324;0.07851534618129899;1.0133753983805756;1.0269296980429903;1.573702661526766;-4.882452502848704;0.6553025994474178;1
1.1203291943732752;1.697686521213921;1.2551375037650716;0.7871488426686095;0.10485916591537806;3.480209317069427;0.010995444676468784;0.07302214189730055;0.035977747153639536;2.340532933982855;0.02574691546854285;0.0846334251045171;0.8973762396474515;0.8052841154838003;0.6158902198848851;3.161707702683202;0.7785890818627108;0
0.7023514846034181;1.8882932897001439;0.4932976079246254;0.5280739152684608;0.3782732476483088;3.9594885954340526;0.14309064988639875;0.20942047924224483;0.04579107979099094;1.3207204425927603;0.043336392372794894;0.1060467013357805;0.4119158335867539;0.16967465395947032;0.35900536715868225;1.1378258726562738;0.4598905336104285;0
1.8707551036058547;1.8379022079810472;3.499724657667352;1.5902915769472366;0.6512144918392762;-2.206018135958722;0.42408031438148663;0.8900929747861133;0.0842290919423393;1.2168759839903114;0.0672988681553992;0.20495564392780657;1.7070548380972033;2.914036220271069;1.4367033991451454;2.7893844390268328;0.9952128822158242;1
1.4599574349544633;0.2243945368904896;2.131475711878816;1.5599978708457147;0.8591177542826207;-0.732968699505987;0.7380833157236134;0.9539792281151886;0.05280392694806819;-0.2021325816055679;0.05914142959110843;0.1203222188232895;1.5314612210748382;2.345373471656034;1.9486308968851898;-2.0569798694450583;0.6583217412300465;1
1.5428491638445072;0.08215486312686338;2.380383542375695;1.6220595349125537;0.7028029254383742;-2.1422348260489326;0.4939319520047369;0.9026666701191287;0.04856788256039156;0.23911189147127843;0.0555725502192312;0.10604670133578059;1.196320600515513;1.4311829792177975;1.3248427239433775;-0.314467167372662;0.4522710917524613;1
1.5700895313591436;-0.29873783087326444;2.4651811364835754;1.7491675226148267;0.4740598242277777;1.6884726627467153;0.22473271694687147;0.4726899908512774;0.05132529112406817;-0.2966339327616492;0.06194554909758342;0.11012542061792599;0.9434349696523274;0.8900695419628879;0.9119177706517929;1.4143690330493612;0.32707789503110385;1
1.4086572426777961;-1.0822264202245844;1.9843152273486113;1.654847981838093;0.18099811870890598;2.4820075838281497;0.032760318976163216;0.15804559137057117;0.03359789562797176;1.6481773415643985;0.02345263587233609;0.0815743856429082;0.968638760226131;0.9382610478124161;0.9254428076027574;1.5357215565732982;0.3342484732250511;1
1.7317979260472267;-5.056251847555563;2.999124056661476;2.720426814524404;0.0637332492136035;0.259402459879972;0.004061927055323291;0.06838188117733512;0.026700558347428967;-3.207859901413956;0.037728153359844974;0.0560823901294992;1.2329433117549307;1.5201492100012164;1.988476972442764;-5.515027870588706;0.3758139877103647;1
1.4451514288804728;-5.8560785244513704;2.088462652395272;2.4102091681585867;0.13818872958275744;3.2239303680194347;0.01909612498369646;0.09707894211096102;0.026700558347428967;-3.207859901413956;0.037728153359844974;0.0560823901294992;1.033826564053001;1.068797364541634;1.6392638271412263;-5.3064713030542165;0.299225455179813;1
1.2091413464619893;-3.819908826277109;1.4620227957239125;1.7653789792999688;0.12477591866709327;-3.1873378870996145;0.015569029879217074;0.17454002046597017;0.026957308155152973;0.8512591714890814;0.029825634750688147;0.0581217497705719;0.8227938365103398;0.6769896973994037;1.2457176896896938;-4.616119033415458;0.22576307028220474;0
1.0844253122284058;2.4532557524207093;1.1759782578016755;0.8431693522055426;0.1250880182433751;-0.17827173849613054;0.01564701230805494;0.14125304295712127;0.031055626367816388;-5.716541664071279;0.051238910981951574;0.0581217497705719;0.7390117049982632;0.54613830012444;0.48259997054706094;3.0763785944792943;0.22070950980494847;0
2.3422893405686955;3.622445258303273;5.486319354941734;1.4863635670018014;0.0709979835845919;0.9623984060976714;0.005040713673077982;0.07349637012937604;0.02989128971268212;3.173912036020514;0.021923116141531473;0.0662791883348627;1.9600808407738557;3.841916902368745;1.09980938299557;3.848344961674435;0.49427655380754226;0
2.327333953078553;3.6763037648077628;5.416483329152244;1.469724573347731;0.07632790964058729;-4.1231245950824675;0.005825949790101658;0.11156869110108847;0.059073265148651216;1.4011076086542733;0.047160191699806175;0.14275517487508912;1.9614943922359414;3.8474602507730453;1.101509315399258;3.843353877916069;0.4948451387268198;1
2.3906024358373954;3.8837372639227894;5.714980006231688;1.3772302493500346;0.3852348747813398;3.6299877573625317;0.14840590874779455;0.2740100852881189;0.07360259149938424;-2.117095964968069;0.09712450290608751;0.1590700520036708;2.1012466011515136;4.415237278850788;1.3770575084079377;3.648150270113664;0.5572992092107459;1
3.052549140966792;2.2136581369766795;9.3180562580171;2.027388580770694;0.6261024265150975;-2.64742229607614;0.392004248488093;0.8540082682530494;0.08050951745957735;-2.1015973751320374;0.10247782196390337;0.18048332823493418;2.4332549013985587;5.9207294151801095;1.6480562766198688;3.065923525416803;0.7268854875793807;1
1.3530692742229362;-5.743908896396111;1.830796460846183;2.2323382933001454;0.7643329792278911;-0.6552090034765783;0.5842049031353839;0.8440154267803074;0.07939764275750284;-1.7639931633238337;0.0978892627714898;0.18048332823493418;0.8629678514232124;0.7447135125899956;1.21578589568194;-3.6743245251981698;0.46800343441672465;0
1.3034206054299244;-5.262496178671963;1.698905274659311;2.075746195373756;0.5808901786714736;-2.0079172100513656;0.33743339967697655;0.7502323254034298;0.10142899509747112;1.3992355330153323;0.09164372387070453;0.238095238095238;0.6379706275584556;0.4070065216273296;0.4501730990683508;2.3781036662832626;0.43140615484927014;0
1.0285177273425108;-4.909344259694883;1.0578487154578033;1.599006818160606;0.39179205416443513;1.9156326408643114;0.15350101370638766;0.35544980655986924;0.042766573925520704;1.347649656195916;0.038875293157948354;0.1004384623228305;0.29160592770221017;0.08503401707106663;0.4470585467636584;-4.930025644880068;0.26993784050873354;1
0.82953304191056;2.803298588118224;0.6881250676213869;0.5182177431904533;0.2209836534726577;-0.38714780134535864;0.04883377510212366;0.236635402078138;0.04670418359862021;2.8496071168181842;0.04040481288875287;0.1004384623228305;0.2538234177786755;0.06442632741284804;0.21346057187339185;2.507796456648965;0.2782126683816086;1
1.9663139154917044;3.6940184848635127;3.8663904142563177;1.377886609273428;0.15379480518492533;-1.666821217182454;0.02365284210186913;0.19114719579003714;0.04151648856102329;2.053071579353073;0.034796573875802955;0.09635974304068509;1.9547286129659514;3.8209639503477923;1.3927967593885644;3.642026677379768;1.0329193098389828;1
2.5061156406775305;-5.79137631806793;6.280615604448548;4.185274770189383;0.13773795487071339;0.4557701482901031;0.018971744211966676;0.13112110851263095;0.03889402456544089;1.8305040333405174;0.03339451412256548;0.0907515040277352;2.4971703012536928;6.23585951346346;4.162098716512067;-5.786399810255269;0.8608605360219096;1
2.1961621475751585;-3.8843578033647095;4.823128178441933;3.1835229389389412;0.30891907125963214;2.628531122008077;0.09543099258791367;0.2657595617720488;0.05047393653700636;-3.2312372324649203;0.06946568777403891;0.1096155807076577;2.18124079999599;4.757811427567146;3.1187392998309535;-3.636730055294258;0.6714463945227209;1
1.8827898636191975;-5.280428697391121;3.5448976705471966;2.965051675979094;0.40577803352394626;-4.032162923813942;0.16465581249056085;0.5842502996322214;0.04737832129502456;-3.822135915953888;0.0674263281329662;0.1014581421433669;1.8013222881650228;3.2447619858400736;2.854271675403006;-5.3495418239942545;0.5127534454774265;1
3.141996689609889;1.4319217297303144;9.8721431975195;2.299652896409788;0.42813379677623786;0.7554816558020878;0.18329854794203693;0.3935232960334945;0.04789488508241708;3.3384964394586056;0.03760069338227792;0.1014581421433669;1.6010865589002996;2.5634781690912027;1.2165877472771593;3.086883347724587;0.5396054113916545;0
2.4096591148071136;-5.772765921539793;5.806457049573002;4.015279970621404;0.3120028985369901;-3.5525342672475926;0.09734580869548333;0.4356007571575524;0.05480462846473015;3.382089363841267;0.0325022942795962;0.1223615784643621;0.41264442236363125;0.1702754193078149;0.5461355490663502;-1.629572496939664;0.1796691028317714;1
2.02805639891749;3.830698888863978;4.113012757190178;1.1206947749883265;0.35517923385200745;0.7612065857118129;0.126152288159699;0.31850906436181137;0.05770883326942385;3.291359597021426;0.04588559192413577;0.1223615784643621;0.5881539827593195;0.34592510743564997;0.366411289609224;1.7950288853401801;0.23064100987489164;0
0.9911167395677065;3.166232494683616;0.982312391451321;0.8111698603487625;0.2612456151642961;-4.631962584035541;0.06824927144257151;0.4033297331209136;0.035385240541369545;2.0781924649337284;0.03441419394310183;0.0764759865402263;0.9844149612838562;0.9690728159994961;0.9430211322154158;2.3470113397288888;0.2996056139824196;0
0.9902701466238402;-4.032042186389999;0.9806349632944019;1.425942360976939;0.17577269787017452;1.055178799453003;0.030896041316559656;0.19058598005026783;0.04708503377038373;-5.644679609370935;0.07724074640562853;0.0887121443866625;0.9454816893055472;0.8939356248120712;1.2865732287152007;-3.202886442839592;0.2565818017578489;0
1.0090024112672697;-3.894025480904901;1.0180858659431646;1.439131852973495;0.08462293740341627;2.1148935326257945;0.007161041534782507;0.06143149242704449;0.053423827459690876;1.6402042461702973;0.04129703273172221;0.12847965738758022;0.8746722289008478;0.7650515080103771;1.2373285824971276;-3.740284242631402;0.2342354677102241;0
2.2667128227010087;0.42676577507323366;5.137987020597175;2.519377189138461;0.08807155444491442;2.708410872960137;0.0077565987023435244;0.06713986931065352;0.030218500076960145;-5.064891664638758;0.04716019169980627;0.060161109411644695;1.3266542022157242;1.7600113722566395;1.768444009611441;-2.689121410869383;0.3919424259333269;0
2.4361461788507994;-3.4646009778842153;5.93480820472935;3.4373046898336885;0.09498586322322025;-4.140258130564996;0.009022314212260305;0.13800399258221363;0.021684684733493068;-0.5178688585191065;0.025746915468542853;0.0479249515652085;1.0959159342933535;1.201031735038074;1.2168423558630352;0.46737990547981667;0.40427074604889635;0
2.6366250229340005;1.2017101371233814;6.951791511561718;2.0925852540070657;0.23482318941032873;2.3300948976062887;0.05514193028483912;0.216299919417426;0.012854303454913446;-5.111684960505743;0.020138676455592905;0.025491995513408694;1.1606084690336125;1.3470120183925458;1.2520442243301457;0.8332734965699888;0.42264676950655694;0
1.55399324217991;1.3399903457670916;2.414894996740829;1.4918008248755283;0.5055073943858229;0.5784745441022228;0.25553772577874395;0.5517949253357202;0.05227951906346531;3.208855373706271;0.03110023452635867;0.1182828591822166;1.1957919568766908;1.4299184041309856;0.7321821149373471;3.7363983558695963;0.4647893685355213;0
2.416985352768239;-1.1496936393206454;5.841818195496209;2.9435264363856346;0.6914622977583064;-2.1032079110007533;0.4781201092211968;0.8742724365372903;0.047027031946977375;-3.9885012120566596;0.0703579076170082;0.0948302233098806;2.194354793345042;4.81519295907636;2.8268582186349827;-1.243292897759666;0.5791764118132892;1
2.120626514236288;-1.5085504577648745;4.497056812881949;2.7104385341192643;0.6738826594446732;-1.1844636331298908;0.45411783870022543;0.7998880737710943;0.0456195148900197;-3.859884700927916;0.0675537881105332;0.0927908636688079;2.074935178221369;4.3053559938205455;2.5703965148494055;-1.0049370272867613;0.4274365661777147;1
2.16110222426763;3.813904358527811;4.6703628237344965;1.2323380694573958;0.40299696537868207;1.2483207589123406;0.16240655410442667;0.4151202614673806;0.03742464572346009;0.6529892466411447;0.03505149383093705;0.0897318242071988;2.125523336820543;4.517849455368736;1.2164467829152699;3.8124553932872907;0.4006123179857482;1
0.5895110168409146;2.157693667071051;0.3475232389768091;0.43150788478090796;0.27368220542567206;1.0876985823350722;0.07490194956665976;0.23043218035957885;0.027689439478420636;2.2687557078105627;0.026639135311512126;0.0591414295911083;0.5716827379767416;0.3268211529005838;0.4243278354836848;2.0988129568280858;0.09375221135393058;1
0.4496084401613185;0.9276380288338046;0.20214774946429395;0.47396650351983904;0.23363992435161254;-4.967019847845632;0.05458761425102723;0.35952943502894114;0.0408940660761607;0.7735666650373769;0.03658101356174155;0.09890894259202598;0.4335992175341316;0.18800828144621118;0.4363347927975907;1.3397986058086886;0.0733801645897846;1
0.8274123321077941;0.06456967332170116;0.6846111673240585;0.9156109758822248;0.23252016451188598;3.4535352144234217;0.05406562690463452;0.1729490357730028;0.034966184954102225;0.7164007975403912;0.03275721423473023;0.08361374528398069;0.8066962599769015;0.6507588558607207;0.9036463696494588;0.022639065503003764;0.14866438871521268;1
1.062449413749677;0.012017008186978373;1.1287987567770321;1.080012633331072;0.08136032084999875;-0.31992771471570336;0.006619501808814742;0.09433826007302559;0.038840522127688765;-1.1999002807000512;0.04919955134087885;0.08361374528398069;1.046494208069504;1.0951501275230184;1.0725978275822516;-0.04972176619504687;0.18703285584005466;1
1.044816232806368;1.612624977288462;1.0916409603356902;0.7569756534597554;0.09226014093697879;-5.363183399644827;0.00851193360571119;0.14629078906787174;0.07194872061581097;1.5205385777504894;0.04779749158764142;0.1758947690425206;1.0281681043641233;1.0571296508317147;0.7567160940320248;1.5831269706107207;0.1803633915980817;1
1.61220385180642;-1.8496082375539729;2.5992012597794565;1.9818462423589258;0.11281464205647415;-5.006636362260071;0.012727143462330386;0.17473657701649503;0.056454075454596894;-5.910146364703887;0.0949576832874478;0.10298766187417151;1.577978744197406;2.490016917138823;1.9378159433687117;-1.8378068156221463;0.31362746028392946;1
1.9479115035897803;-4.319152032865043;3.7943592258173986;2.920283590970083;0.2476858034345703;0.27630909220209254;0.061348257223028606;0.2856939559134283;0.05673424818391262;3.027549369833036;0.03658101356174158;0.1294993372081166;1.873639440419013;3.510524752693673;2.8221561363047103;-4.2758407257883775;0.39812955211643275;1
1.559200381994088;2.7967516401084005;2.4311058312105103;1.1126587390807;0.25476985810833036;-3.079166635474955;0.0649076806005388;0.3630019462365208;0.04304525554418796;2.484310030679424;0.02944325481798714;0.10094830223309881;1.4631995301254874;2.140952864959447;0.9703704907724626;3.027757221650756;0.4070130586863025;1
0.4701553752676973;2.2562451885254173;0.22104607689310926;0.45047377492701246;0.1556291591609386;3.924459013139881;0.024220435181140764;0.08746002316690493;0.05120444503469866;-4.697488564627184;0.07953502600183546;0.10094830223309881;0.4095432717400926;0.16772569142757932;0.36047281898321826;2.640410611933177;0.13719712488260508;0
0.9325849381483174;1.5128805973727104;0.869714666861101;0.7574675730569052;0.08610330548457659;3.7423966771775703;0.0074137792153703185;0.05643061074572109;0.064592243137217;2.0619354405793064;0.04027735291118585;0.15499133272152532;0.8975357414882227;0.8055704072488137;0.7172648904566516;1.6815240237038118;0.27095852807873566;0
1.2481563466883325;-2.489856776581597;1.557894265778365;1.6337357109143418;0.11050005263985622;1.842844980109943;0.012210261633410996;0.08364300931373148;0.033020417229056055;-5.90491664608901;0.05557255021923103;0.0601611094116446;1.1836853655018336;1.4011110445032096;1.5873257922601605;-2.8099763084520575;0.3115801828257379;0
0.7549855645028875;0.22638969070659165;0.5700032026077436;0.7641472859318892;0.18449487918567734;0.536951356865595;0.03403836044573768;0.172852811439125;0.03117814522970238;3.512695573030225;0.0201386764555929;0.0683185479759354;0.7317115303561725;0.535401763656172;0.8150529281666667;-0.593654516423392;0.17400030353358376;1
1.175097975226325;2.0971503014077104;1.380855251381009;0.9952934622996241;0.2146787913299489;0.15315749728308603;0.04608698344688775;0.2506752452481771;0.04633563184102096;3.7715216534096214;0.027786275109615555;0.09890894259202601;1.1662202475082095;1.3600696656981093;1.0560447124871946;1.8545713320054844;0.29418510910628987;1
1.4322511765611685;-3.7348576403750844;2.0513434327608517;2.067498380042749;0.09558783647802568;3.868143173862002;0.009137034482549777;0.05953863586099484;0.04608813671114983;-2.206631918446993;0.0614357091873151;0.09890894259202601;1.3985515612832358;1.9559464695677764;2.0055629455128403;-3.585846458694041;0.4182160840489829;0
1.350325977047076;1.4648329152721313;1.8233802442881402;1.034006517664138;0.018331321703088765;1.7369106070335594;0.00033603735538213314;0.01443352747115001;0.04125504925852793;1.6618672422530416;0.03237483430202912;0.09890894259202601;1.2418435494663642;1.5421754013512183;0.9478771286194974;1.622841223769365;0.5278556073213378;0
1.1591348525167038;-2.457543175534486;1.3435936063189204;1.549914417775852;0.23861604070803735;3.9349388378370413;0.05693761488317974;0.14138635458849713;0.030260047400231027;0.9429930299634517;0.026001835423676945;0.0734169470786173;0.8691060035122736;0.7553452453410762;1.2364876376534115;-3.6913088716176485;0.5929023915120335;0
1.157964429647541;-2.456710220306789;1.340881620328955;1.5489703359143885;0.35325845802754013;-3.926694850979562;0.12479153816799533;0.5233864431993068;0.018059179264858602;2.825711675349009;0.01121647802589991;0.0418068726419904;0.8224482396232509;0.6764211068593843;1.1994006516555074;-3.7810380905780754;0.5756365468641536;0
1.406880595486704;-3.019196164494641;1.979313009957023;1.9055777795389202;0.4462679712059578;0.2525911049515628;0.19915510212428159;0.4407819347673812;0.01782739409529689;-0.05928725432366555;0.01886407667992252;0.0418068726419904;1.0464014306322986;1.0949559540293212;1.434668030338089;-3.31672908847227;0.6518745965426019;0
1.4103946042065119;-3.122065104813096;1.989212939574843;1.9224299760863386;0.32042167900891055;-3.362489202338967;0.1026700523788893;0.45229929678653613;0.03231355537369378;1.0067368029904618;0.03288467421229725;0.0734169470786172;1.1098349058895254;1.2317335183308116;1.6563445468721398;-4.408269426540297;0.7247538209955834;0
1.791420696582333;-0.9304186861648578;3.2091881121435306;2.152871276760017;0.20360936884033942;3.580122754610965;0.041456775079561387;0.11665492274794026;0.04254542009088759;-5.378675712851283;0.06755378811053316;0.08361374528398069;0.9040917667578415;0.8173819227193154;1.1667643731094255;-2.473529938864381;0.5203388092374933;1
2.26865170445125;-1.3191962212164654;5.1467805561095625;2.71487207019695;0.07694585756070099;1.992001087973314;0.005920664995751686;0.05116983032849676;0.048312992317390765;-4.250889945017166;0.07163250739267855;0.0999286224125623;0.9567073361367928;0.9152889270179584;1.3721292988366776;-3.8683478646687313;0.5297497488784407;0
1.2652065830101338;1.5289125725611097;1.6007476976921786;0.9359091517399105;0.0800470340123049;2.2127398309359982;0.006407527654167096;0.06613451249705693;0.058644149608711796;-5.635657832467163;0.09534006322014874;0.11216478025899851;0.743021434777772;0.5520808525392189;0.5863175271152046;2.3710834979159063;0.5356314492333096;0
0.9430385255824522;1.3424066600285798;0.8893216607327252;0.7404216365662519;0.08516674603012168;1.785454427507979;0.007253374629359248;0.07023291040799418;0.05051533350064996;-0.04771233300483857;0.0578668298154379;0.11216478025899851;0.8502721041418139;0.7229626510817475;0.6681032618182288;1.5713764456178083;0.6513488055894777;0
1.0630906897839694;0.8235049728922199;1.1301618147053556;1.180206185912804;0.10353297065040121;1.6776896592223505;0.010719076011696837;0.09845828507856008;0.02266925061223169;3.003778659440723;0.01300091771183847;0.052003670847353904;0.949471360444155;0.9014958643036746;0.9764496664421647;1.6361834055614803;0.864585569952973;0
1.2938366396258558;1.8500411917869783;1.6740132500383267;1.3029915748350156;0.10401106395373265;2.1122222560522292;0.010818301424787463;0.08528296876237962;0.022252628574278677;0.6795709591429624;0.02217803609666562;0.052003670847353904;1.2069709863264044;1.4567789618337337;1.1109216042469598;2.5449194556374763;0.9791653805974184;0
1.6129745734605592;-5.970240382683922;2.601686974630273;2.748728474052286;0.2235292442151304;1.030912856462269;0.04996532301938741;0.23920778622964683;0.01790256945659154;2.3312646477098475;0.016059957173447523;0.0397675130009177;1.522478173051966;2.3179397874196526;2.5763044099693246;-5.93175514025795;0.8706164394143248;0
1.68808425997799;2.391369286559538;2.849628468785438;1.072156360818822;0.2169000938792648;-3.4461766558950693;0.04704565072483388;0.30870899417061926;0.028331689587946865;3.3299148970441905;0.021413276231263347;0.061180789232180996;1.6148959773595792;2.6078890176921505;1.0821363178453054;2.2710102880757947;0.5930929617170859;0
0.7738081252347406;2.1984480118247927;0.5987790146793041;0.5337300875136046;0.18328655789705334;1.7761026152965727;0.03359396230574988;0.14069410650352;0.045662229356572825;-2.3026256224537534;0.061180789232181;0.0978892627714896;0.7357899263174211;0.5413868156701961;0.5532634854528564;2.3845176048788925;0.22627779448026528;0
0.7669798194591021;2.0940178684402646;0.5882580434575169;0.46600717383289103;0.09002805742695683;-4.901226830599471;0.008105051124071436;0.13979623132411134;0.040153467049039264;1.5636289165281116;0.027531355154481456;0.0978892627714896;0.7183351739590921;0.5160054221468391;0.4503514999813767;2.170795117352096;0.21765932472872315;0
0.898769070759744;0.9266177317760889;0.8077858425543337;0.9725946624054225;0.0866589244795506;3.942886145361115;0.007509769191952456;0.047773247645745864;0.020416950700875566;-0.40191256086478333;0.024217395737738272;0.0448659121035994;0.839165713996013;0.7041990955464383;0.9069390625727412;0.9363122440536511;0.2682661327173895;0
0.43786812246754575;1.9635658971453616;0.19172849267325365;0.35278931130731594;0.017718991480329627;2.814043202410957;0.0003139626590799939;0.013051735688470067;0.021395059914710975;-0.894436560204749;0.027276435199347325;0.0448659121035994;0.41099547568326383;0.16891728103211232;0.33218319960849074;1.9102874812133113;0.15770162927421494;0
0.5620970314632764;-4.779845712330962;0.3159530727798275;0.8606594037238446;0.01481325333531985;-0.016690041835612845;0.00021943247437636464;0.01684260064881149;0.010547650079319066;3.9572015022312;0.006118078923218051;0.021413276231263302;0.526813556370039;0.2775325231752483;0.8046850129938559;-4.73197657756084;0.18950273605015036;0
1.3425682226065356;2.170571250009596;1.8024894323528722;0.990004498900311;0.05180184000025915;2.751428798910567;0.002683430627412449;0.040766317616402925;0.010755839935652595;-4.759513787881392;0.016633527072499224;0.021413276231263302;0.9084186182287272;0.8252243859445899;0.7389597890485025;1.2736798452463258;0.40291784190133684;0
1.9735588013624554;-2.876799281312133;3.894934342435212;2.6233721790970774;0.054777170136913536;-3.68439598008424;0.0030005383682083723;0.07777730673931627;0.016318030130644517;1.802093190866497;0.010642908126848101;0.0395125930457835;0.9398499725191816;0.8833179708443063;0.9818890963341507;0.1415394051162462;0.45901074901364614;0
2.1671706395752524;1.8652395697244124;4.696628581037009;2.10314735546231;0.11828687351455514;1.5583155130342181;0.013991784445848365;0.11514694362373468;0.028099360773538824;-1.638609189635062;0.034350463954318226;0.063984908738656;0.9368558809787167;0.8776989417244075;0.7074441661560322;2.2443393579201327;0.4789470957258126;0
0.7876424981529104;2.3238863199360225;0.6203807048965575;0.728277668698095;0.23663238096992031;-1.3374429778557015;0.0559948837234935;0.30145011867630633;0.028938655078377885;1.1902592102158636;0.03014428469460587;0.063984908738656;0.3652825475242682;0.13343133952581926;0.3528118308484858;2.232446137181217;0.22809609231617856;0
0.7518041753498872;2.1603363405860847;0.5652095180735239;0.7095853322184682;0.2875393709196136;-1.6216104662535091;0.08267888982884714;0.347835217817982;0.030010983360593498;1.3819428653943184;0.03071785459365757;0.06627918833486279;0.6960809189312109;0.48452864570011905;0.521767046052477;3.5289774434862764;0.48592501569311286;0
1.29203731032122;1.4615836119126069;1.6693604112620921;0.8759184527615487;0.23994202778182053;-0.7926695634475287;0.057572176696051934;0.27608700433431077;0.03312357609394143;-4.961127014701635;0.05136637095951862;0.06627918833486279;1.1818260187403913;1.396712738571764;0.7346741973906084;1.4992489377250138;0.6394476252495148;0
1.6432622223339752;-1.373982684117662;2.700310731349995;2.045914822321447;0.1745165707027475;-0.4391596430244764;0.03045603344984707;0.1937815757232395;0.02667255480533073;-1.703286904116661;0.0327572142347302;0.0606709493219128;1.5194403769679652;2.3086990591605523;1.9187072736525639;-1.6480264863225713;0.6527374018512305;0
2.0353463147291704;2.364530153457711;4.142634620881616;1.540811874243614;0.20323021994255325;0.9730119762002527;0.04130252229789857;0.19228470642021345;0.01768282301360569;-2.8594144840813005;0.024344855715305324;0.0377281533598449;1.9056035319214808;3.6313248208716224;1.46662563052737;2.203524950987232;0.6185026494965632;1
1.3803436968122023;-0.5642030182119679;1.9053487213291767;1.6099967690005137;0.17550669055335408;-4.467064365974197;0.030802598428990788;0.2659668433492567;0.031720552270024224;2.4991183470568537;0.0212858162536963;0.0744366268991536;1.3769608553929278;1.8960211972844234;1.6058925773181416;-0.5523891765135467;0.3007230524038472;1
1.389048010360262;-0.5840999779573686;1.9294543750858029;1.6169457726097405;0.1208899792670366;-2.528011874720086;0.014614387087184537;0.16383820253806486;0.02578432702739295;-2.6453075467826697;0.035433873763638206;0.0545528703986948;1.3885642278263546;1.9281106147990001;1.615162536065684;-0.579215943700655;0.3038723820658527;1
1.8062260966425356;-1.8045443698037236;3.2624527121925304;2.2340439665304435;0.07027615760181209;-2.1375256442537545;0.004938738327274732;0.0912668745813281;0.025063528098556418;-2.30521626634947;0.03313959416743138;0.0545528703986948;1.8065135881264722;3.263491344085581;2.23443788250132;-1.8051935739869371;0.42995233669345395;0
2.4865821544033833;1.1040797009991437;6.183090810597371;2.212061509202735;0.07319099085958335;-1.300443158866564;0.005356921143007612;0.08814576458461604;0.019611171803306408;1.5645996094579218;0.012363617824003276;0.0479249515652085;2.4831245695981785;6.165907628142139;2.2100747599474984;1.1076006581612852;0.8013440797389503;0
1.2447021772261726;-2.151739863398989;1.5492835099915745;1.5761258204303614;0.04580811035195666;1.0838217938553871;0.0020983829740170387;0.05001320922092742;0.02378418208789284;1.56673054926733;0.014912817375344146;0.05812174977057201;1.240110638584392;1.5378743959301886;1.569126640117911;-2.1387948435493556;0.6953712695490872;0
0.8834503788086633;0.8092832839825217;0.7804845718171706;0.9829982097988548;0.05369959697638995;3.283259370703675;0.002883646715426709;0.031752817369340325;0.023760946666118082;1.5275140834812024;0.015295197308045301;0.05812174977057201;0.876389323822649;0.76805824691032;0.9748447329427639;0.8358815174112237;0.8185815042607173;1
1.2500994709195916;2.9157493559783525;1.5627486871934428;0.7642685374131826;0.039405426928697286;2.188582293932148;0.0015527876714329014;0.0381522135882523;0.04752553974646238;2.647900467537017;0.02855103497501785;0.11114510043846221;0.6416445108007548;0.41170767824074;0.8440763357580452;-1.6753643241696512;0.6827086826397502;0
1.2447840255712994;-0.9014029661564784;1.5494872703174893;1.4288488067350968;0.03848306520728572;2.417379927902571;0.0014809463077482047;0.036104364210615414;0.05211684545530891;-3.830084904778616;0.0744366268991536;0.11114510043846221;0.6163710629570414;0.37991328725079304;0.7631384384183897;-1.2060474000235235;0.6375172516029656;0
1.3200100558760952;-0.7885081459738572;1.7424265476140122;1.4804643110370175;0.1693617575785426;3.301232600430904;0.02868340493009303;0.11012029321214181;0.03448241968542475;1.2152733117334211;0.03237483430202913;0.0805547058223717;0.6442507452065106;0.41505902269914424;0.9251581895924321;-3.7425518357264647;0.6311005105918863;0
1.3151225652970946;-0.6539667877379465;1.7295473617536106;1.4527545197502256;0.2329245611278496;-4.427863654280756;0.05425385117660134;0.3451048551643224;0.01696830150036418;-1.900726196454686;0.022687876006933803;0.0356887937187723;0.624180734397961;0.38960158919357785;0.9089795432898481;-3.775044126925593;0.6019009867757422;1
1.7588974129779513;0.7350540620504429;3.09372010938053;1.758016707065784;0.19799371757710987;2.1276556533113062;0.03920151220000435;0.18872328791518592;0.024251807843857193;-0.5819740128627693;0.0265116753339451;0.0571020699500356;1.434014822101056;2.0563985100055233;1.3558159176447027;2.337149851215056;0.9664136399282904;0
1.487497880227769;1.9765295596336134;2.212649943682106;1.4817129268019051;0.08046178181131641;1.4375245729654562;0.006474098332251888;0.06784856772010917;0.03171816209293624;-0.0902935653737238;0.0344141939431018;0.0734169470786173;1.4317218908814324;2.049827572829104;1.3477319335170694;2.352574659055648;0.963119368162359;0
1.5055202254391322;-1.0137745361210797;2.2665911492062953;1.917152532599952;0.07338070175838238;-0.521091023730941;0.005384727390552663;0.08502262242107217;0.03169766746754825;2.605192807739215;0.0229427959620679;0.0734169470786173;1.4452023439815913;2.0886098150498857;1.8155724761530974;-0.8861689760089764;0.8798831333769453;0
1.3910064318863107;-0.7790550971373289;1.9348988935490852;1.6499795667423776;0.1333278706610797;0.639883648302181;0.0177763210950176;0.13748850492410913;0.020501651129685928;-0.3297539401434584;0.023707555827470222;0.0458855919241358;1.3358018138314156;1.7843664858353;1.620698587368608;-1.0413467399388434;0.5784506272820652;0
1.420503459552732;-0.8303706285173273;2.01783007860128;1.6732249237956296;0.16722673525774281;-2.5703343679041595;0.027964780984963206;0.21879784658260953;0.019988065447040446;-0.22057688701315392;0.02217803609666562;0.0458855919241358;1.386117545133194;1.9213218489260717;1.660120180972997;-1.109691791248693;0.5901644778224087;0
0.7722263328368634;-2.640090691845815;0.59633350912667;1.0143111131971692;0.1375715472178439;0.04153860721468661;0.018925930603911453;0.16435941413977417;0.020602832008949388;-2.4021863816880415;0.02676659528907927;0.0458855919241358;0.7702654516193785;0.5933088659584053;0.976625444192377;-2.2056795128821545;0.27423466648132994;0
0.6762302629639498;-0.3408762108932031;0.45728736854829277;0.7932022411135158;0.06330517192834977;3.8942246972475694;0.004007544792877924;0.034684374864834555;0.013124458431941583;2.4200980531236898;0.011216478025899826;0.029570714795554197;0.657110238022096;0.4317938649134556;0.7917754727415058;-0.7380763137383024;0.20015238462493445;0
1.929721958631402;2.3716333872390134;3.7238268376242147;1.258997135910617;0.04839516056056353;3.8223421793079204;0.0023420915656827243;0.027202049477983103;0.011119498183580032;2.8135512483769247;0.007902518609156722;0.025491995513408798;1.8933841341617346;3.584903479495381;1.234946260521601;2.4002563692857564;0.44862189176156175;1
2.1428838468262783;1.6209381084889856;4.591951180988989;2.2360758951106705;0.04720600122487696;3.52602687796006;0.0022284065516430854;0.03125427453854979;0.012800265155943309;1.6770591639019;0.012491077801570272;0.028551034975017903;2.1005047399560404;4.412120162577792;2.1815440056479733;1.6690585445585384;0.5379133711690449;1
1.9544922539662835;2.4517417661727343;3.820039970814203;1.4949759766873107;0.05476936615601559;-5.453583932659241;0.0029996834691317057;0.08933393848159754;0.005019183381129656;-4.185430834803368;0.007520138676455526;0.010196798205363504;1.9215546619426276;3.692372318833446;1.481112292639299;2.472821703022559;0.46372653627537797;1
2.3282758691692482;2.258849712834122;5.420868522955819;2.0449485086106662;0.29865781034314715;3.6804239185178638;0.08919648767896327;0.16240398357778252;0.007118005461885354;1.6323986402155128;0.0047160191699806495;0.017334556949118;2.320574540868429;5.38506619972672;2.0124360839041833;2.2027235608902984;0.6483837963577044;1
1.0186128164721018;-2.3636825244476114;1.0375720698812276;1.3057816637931197;0.5056102021773727;-2.6464971508621744;0.25564167654584374;0.6915894329649906;0.028512695370647198;2.871901917968458;0.021795656163964547;0.06423982869379011;1.0166087045875096;1.0334932582430942;1.2681430632181447;-1.917877001281063;0.3586274597996763;1
1.0110936543722457;2.9775476282689084;1.0223103779118226;0.7139788474882609;0.5439248221612974;-0.7915300182109419;0.29585421216319907;0.6312231153923415;0.027478983808950357;3.216783497343865;0.020775976343428197;0.060161109411644695;1.024368530171878;1.0493308856064936;0.6993978936774319;3.162222692666525;0.3297224886721275;1
1.6389276458893471;1.2110652981426409;2.6860838284603976;1.303544367506281;0.36283577091261826;0.08071460643499151;0.13164979665375398;0.39606957476925764;0.02722596040696469;-2.9310311352167595;0.03645355358417452;0.060161109411644695;1.654590122941002;2.7376684749339204;1.288865466043542;1.264827648328172;0.4503399795973462;1
1.0344859162638216;-4.878749803660954;1.0701611109481983;1.5825935803798803;0.22212489067813723;-0.07184933556300344;0.04933946705877442;0.24129408663022023;0.028372946014023577;1.9095292464321965;0.028805954930151895;0.060161109411644695;1.0461115679249071;1.0943494125463076;1.621242417435926;-5.057955106006512;0.22668377596353964;1
0.9979607184059592;3.690952072838357;0.9959255954813383;0.6809609154040093;0.16412158311652914;-0.5805592477654464;0.02693589404467578;0.17983565093277454;0.02990722825749444;1.4216723121292407;0.030335474660956423;0.06627918833486279;1.0064017540141657;1.0128444904827891;0.6939621518542891;3.7085768883515335;0.19984746961976907;1
1.5290573587374967;3.8793037224235327;2.3380164063092894;0.865065843320731;0.21884086569421085;0.6917066873756053;0.04789132449779163;0.22026261988349205;0.039626731012181025;2.8898724686057555;0.027276435199347374;0.0907515040277352;1.5408468406839202;2.3742089864456184;0.844058370754242;3.8890129291298408;0.24443354164448836;1
1.5544773986616238;3.941490518314943;2.4163999829498093;0.8673970769634236;0.1798949429235226;-2.891056824814525;0.03236219048945745;0.2404525182327697;0.03290870826769175;2.5806768533789644;0.0288059549301519;0.0723972672580809;1.555087817476488;2.418298120063787;0.8456301730753815;3.92651295606208;0.24762286286458415;1
1.7393970206315836;2.989916433806819;3.02550199538203;1.061553171521819;0.12392180083079017;2.207972348597078;0.015356612721146029;0.11475591864044543;0.031708599582881865;2.9264230463609557;0.027531355154481477;0.0672988681553992;1.7174739887326116;2.949716901973107;1.0166017266279237;3.076351919608385;0.281133991681038;1
1.9370413143472156;2.6805522325216096;3.7521290534879888;1.7192329770699715;0.1247841227496192;2.6812903567545874;0.015571077290392032;0.08961707392577534;0.029937632825335164;-2.238136637940112;0.038237993270113145;0.0672988681553992;1.8886912315201387;3.5671545680210586;1.6550564665162026;2.8218818571481528;0.32274964692052843;1
0.49765855243387597;3.5175605569352086;0.24766403481058086;0.317232226524343;0.1489046248738191;-5.148264549908918;0.02217258730881279;0.23719474484418734;0.02321311805410848;0.40721946120044983;0.024727235648006524;0.0530233506678902;0.45278575239001195;0.20501493756738923;0.24883548523164922;3.702779160118979;0.09292065828649339;1
3.006521368991263;3.9855986694588843;9.0391707422011;1.5744486676556706;0.1066136897493993;-1.0355711656669246;0.01136647884198117;0.13563520734623946;0.02321311805410848;0.40721946120044983;0.024727235648006524;0.0530233506678902;2.946006118505614;8.678952050272512;1.4970430402588306;3.9922728060494244;0.4812926458543718;1
3.2443681693712505;3.573110590238951;10.525924818429358;1.8814967706983516;0.07054905381597826;-5.355063153965963;0.004977168994329797;0.11315463560536343;0.028840900629613232;-1.1880000000017237;0.0346691138982359;0.0652595085143264;3.169873102893069;10.048095488444934;1.8351236297471454;3.5677576678325593;0.5424583283512299;1
3.2351216592754435;3.5510814191515827;10.4660121503131;1.8291434458656983;0.19434070216163882;2.7195850553934235;0.03776830851667881;0.13127463317078725;0.05297491826847428;2.6355244913557208;0.03964005302335062;0.1218517385540939;3.1770958610087163;10.093938110038717;1.8748707917228007;3.5821035078901566;0.5449298748679681;1
3.4675820944648015;3.4236826785743624;12.0241255818529;2.6413013755190726;0.28039012819080145;-2.576735296040816;0.07861862398685408;0.38706498454292904;0.06048644089785182;-4.223987430947492;0.09126134393800342;0.1218517385540939;3.4349388462718573;11.798804877627438;2.5393313179643284;3.450538916991583;0.629731818872756;1
2.485870091792895;3.1492468173295656;6.179550113270415;1.581740545866229;0.38968689357543373;-0.29998495021667715;0.1518558750244714;0.4127354289020254;0.03959802222697951;-0.6849854981794739;0.04881717140817779;0.08514326501478531;1.3578220560122027;1.8436807357932052;1.0985883971911719;1.7142773819382011;0.43238994642011885;1
2.521492446780345;-2.56616767686376;6.35792415917033;3.2902497006915135;0.3651290577596964;-2.561012761016462;0.13331922882048372;0.47451665142418553;0.060380165000981645;1.9397723489603607;0.060033649434077636;0.13000917711838472;1.781956671889791;3.1753695804925406;2.4052304147312267;-2.903718365980737;0.7426079485766461;1
3.3582351743691907;-0.7030670688515759;11.277743486370468;3.8201774304294633;0.3656701466309142;-0.09577085841405264;0.13371465613707428;0.37900229965076826;0.058232519489762345;-3.479252914236522;0.08119200571020693;0.1259304578362393;2.6508083141842125;7.026784718548147;2.9087220495497452;0.46074471593578004;0.9131006664885215;1
3.3753017659591085;-1.089302946131605;11.392662011286676;3.960074462790492;0.26087347066874705;-2.7471422149732945;0.06805496769875762;0.35800333979923127;0.03786798537635895;1.0071238853238071;0.035688793718772246;0.0892219842969307;2.6551327475108573;7.049729906904553;2.987946181716351;0.15464685531296674;0.9063456501920516;1
2.828696683817055;-0.5274485533102062;8.001524929037604;3.5143352520600404;0.1793312111854174;2.7805295081535775;0.032159683305228774;0.13735738329422847;0.02864949494697768;-0.2857586690221545;0.0303354746609564;0.0678087080656673;2.8102484129123035;7.897496142276121;3.48911747719905;-0.4802587662129145;1.0174449775965098;1
2.772059954470918;-0.32789959446957795;7.684316391181308;3.3412228083683706;0.047310978364309815;1.7640644334684712;0.0022383286737881914;0.03224819136393425;0.02923884842239552;-0.23603582268773238;0.030717854593657525;0.06933822779647181;2.753390268926328;7.581157973018197;3.3164767614678317;-0.28232091027575024;0.9765141730327039;1
1.345053003708216;3.7353460588353897;1.8091675827844942;0.9056366073222322;0.07221040289184676;1.7837607634410677;0.00521434228580283;0.04735307855355059;0.028790911476672544;1.9192293450060944;0.01924645661262355;0.06933822779647181;1.3342597331505135;1.7802490355068794;0.8792828170918603;3.732676740396162;1.0211231876579872;1
1.3195740682936201;3.75650421611693;1.7412757217129755;0.7735705874527556;0.1774659646413775;0.9332975228664466;0.03149416860609465;0.17910216036936516;0.03983798929986121;0.10746707697204272;0.041679412664423376;0.093300703579076;0.7007717012231789;0.49108097723522826;0.5585128072154786;3.0309157638237814;0.7108018824104931;0
1.376838905099386;-4.616295543733635;1.8956853705952756;2.075032749353936;0.3350005686092606;0.464749464343841;0.11222538096852792;0.3625698932420456;0.040228921269662085;-0.11555806355529974;0.04359131232792905;0.093300703579076;0.6794666507836699;0.46167492952717754;0.8548330639194808;-2.058085683910269;0.5658122585228745;0
1.1125963462791026;2.8784434830844603;1.237870629753609;0.8891702555273351;0.40059176952125275;-2.9825986061678282;0.1604737658081685;0.5364541439905637;0.022326001635662195;-1.8002197107749431;0.028933414907719026;0.0484347914754767;0.6990791439149773;0.4887116494568975;0.7032669615884466;1.6041270230499673;0.47748002270547485;0
0.7917088051112197;1.869631188343071;0.6268028320906353;0.7218476104221818;0.3283547622708625;0.5781226306575338;0.10781684990595464;0.35894299618727343;0.02612981352609701;-1.3986266072295006;0.031100234526358645;0.06016110941164471;0.49946677490486546;0.24946705923386756;0.5946731784338801;-0.5399207476290844;0.31758652116138464;0
0.9682745561611102;-3.8510593711448156;0.937555616108995;1.3826079818228918;0.1366074183906347;-1.9463676126454477;0.018661586759353917;0.17055501854591038;0.03380229633524178;-0.0864620245336809;0.03645355358417458;0.0785153461812989;0.5207392842299969;0.2711694021403695;0.7036328636829343;-2.68877170997834;0.41248731175679476;1
1.2400917037002577;0.8737619829047389;1.5378274335862077;1.1526102162771594;0.30109773445415006;2.50405365339833;0.09065984569342185;0.2607382836412605;0.03358628857771834;2.0648663585921927;0.027276435199347346;0.0785153461812989;0.5026525432470217;0.252659579232699;0.5418651187494965;0.5987593150305663;0.4159259463045701;1
0.8992715036768766;-2.5679774700345224;0.8086892373252706;1.1687495076056564;0.6349454798694595;0.04632043730527968;0.4031557624066582;0.7110698948026692;0.0570352661229152;0.32703832489356444;0.05557255021923102;0.136637095951871;0.5023730087487026;0.252378639919224;0.5417121509571712;0.595246674510399;0.4157472653253113;1
0.6714997528900842;-2.366288539830091;0.4509119181314442;0.8887417502771451;0.7286436624650211;-2.9089952951892872;0.5309215868504396;0.972046795823889;0.043775034023994366;0.9565268592660647;0.0458855919241357;0.09788926277148971;0.4755878561135792;0.2261838088827105;0.41720756876394527;1.408515169707231;0.38051196631164735;1
0.5225857825541678;1.2675310848584083;0.2730959001277519;0.40363272522639226;0.5892736686311902;0.7129652508522373;0.34724345654206185;0.6216172532467319;0.04472955446217969;-1.7497883027746148;0.05735698990516967;0.09788926277148971;0.3632755766193849;0.13196914456814662;0.45253736418498214;-1.8493656878320692;0.24990743944002292;1
0.5857844536096478;-0.2048957121577839;0.3431434260907536;0.6930708501336749;0.2788370081995979;1.2729575866690013;0.07775007714170262;0.293647327777942;0.04832733756279994;-2.445431311507093;0.06653410828999687;0.10094830223309881;0.3543104666949903;0.12553590680962182;0.41160637332629335;-1.1419489162529484;0.24147365188626618;1
0.7225433929702197;2.2916965640222777;0.5220689547249173;0.49126222253661794;0.14172456321740146;1.5205926602178135;0.020085851819163218;0.11065942680995788;0.02718933746502158;3.4827316768239385;0.01988375650045887;0.058121749770572;0.21203564238173472;0.044959113640234895;0.19435260692541645;0.7171330986697537;0.1578767490868987;1
0.9966646834362191;0.7210403718949401;0.9933404912090188;0.9632727006123316;0.08855129327200892;1.4178471778424093;0.007841331540145333;0.07757155032120844;0.02689294777168392;-3.4490319403204417;0.0374732334047108;0.058121749770572;0.33567842105310947;0.11268000236070864;0.3276128608512128;1.6076842900770085;0.21111685943413291;1
0.9641193534554403;1.3840556603015663;0.9295261277073363;0.7038740668211365;0.1441494908589348;-0.32093872752393615;0.02077907571489013;0.1529858951230867;0.018323526267672464;3.014360041621689;0.014020597532374848;0.040787192821454;0.4333478549632028;0.18779036340120905;0.32174400310802387;2.238920311517468;0.2979696643753633;0
0.9937006447213467;0.11296811046829447;0.98744097131962;1.013724793731774;0.1900762536676301;-0.22680304394284434;0.03612898220832126;0.20860920925723503;0.04151570592262712;2.141209262371582;0.028551034975017847;0.098908942592026;0.430977269516522;0.18574140683991683;0.3046515064282287;2.2381312056932554;0.2951832428783301;0
0.5311522164182327;1.3992420040523168;0.28212267700600113;0.3882792893712238;0.0961341251588065;0.27655084967180876;0.009241770020049072;0.09453115182244354;0.05740097033937864;-3.2941888967590387;0.07877026613643312;0.1254206179259711;0.42917803798785575;0.18419378829110536;0.3763607632047241;1.3255262743141678;0.28921598993629755;1
0.3772557844640101;-5.535117027736414;0.14232192691155565;0.6073045652728475;0.07630115163000104;0.7384223753353627;0.005821865740064411;0.08019202575572004;0.04574848562972742;1.350426395183975;0.045630671969001696;0.1029876618741715;0.21315734330687813;0.0454360530056463;0.29837717209039893;-3.170245335538729;0.17193228375383976;1
0.4049920640032491;-5.764157792191713;0.16401857190561184;0.6717534081520196;0.08203642653479104;3.6356369173003564;0.006729975278598168;0.058073862917222496;0.024201737696091803;-3.2999999999897405;0.033139594167431397;0.053023350667890295;0.2055371076085689;0.04224550260409643;0.29197744309923546;-3.113975823538434;0.1649344240875308;1
1.1887745482637724;2.743902827478756;1.413184926599736;0.7084446022849676;0.1229577089922105;3.856252257002083;0.015118598200613122;0.06869803040014677;0.05081376019756653;-0.0806942029633575;0.05812174977057202;0.113184460079535;0.46417182724024536;0.21545548520354818;0.5538197152948119;-0.01061163888998884;0.32525037744522217;1
1.3295341515900692;-5.303243851737646;1.7676610602443248;2.1447672292825715;0.12301855977570317;3.852888834057598;0.015133566049288255;0.06877161925627795;0.05372706424331793;-1.7133900727794575;0.07112266748241053;0.113184460079535;0.6631350769423634;0.43974813027135423;1.0499139994247142;-5.009971479211266;0.40380464632147384;1
1.0867661493713427;1.4165305153854586;1.1810606634194156;1.018361105657603;0.37784578753931547;2.612908525352463;0.14276743916120552;0.2362699125719252;0.06375785394010079;1.8860007870497597;0.040787192821454;0.15397165290098902;0.638300018582119;0.40742691372193346;0.9800757290017765;-4.800466467789926;0.3832489813944029;0
0.46570602987731247;-0.6543909118198474;0.21688210626408824;0.5628888412121587;0.6645432654961391;-1.8526127425290166;0.44161775171627204;0.8392446889915881;0.04542251098461727;3.147184610824773;0.03721831344957682;0.0968695829509533;0.5094361276199385;0.2595251681243983;0.3016548106819186;2.89192715093321;0.2659949665972133;1
1.4135061800449953;2.520715423290472;1.9979997210253948;0.8979204733959913;0.6097682575412856;-1.3827172518514086;0.37181732790493555;0.7784119137309129;0.043702728480100345;-2.7334542446536823;0.05786682981543787;0.0968695829509533;1.3885546172955552;1.9280839252128057;1.0357741018281428;2.1645283120279295;0.5520258076079654;0
1.4292992399582085;-0.9220871710711087;2.0428963173451122;1.6319075555072522;0.5148266284637629;1.348992320574487;0.26504645737536536;0.38279190339883207;0.03505682357024785;-2.1243597561857523;0.0458855919241358;0.0764759865402263;1.4257326668610029;2.0327136373545875;1.7059959236732385;-1.46490686098943;0.5205708145814826;0
2.1584475942002155;0.8446904617393791;4.658896016908699;2.0729346879491892;0.40539483710097146;-5.037031616411095;0.16434497394812317;0.6286217957232119;0.023554015287255238;-5.255383544277567;0.03798307331497908;0.0448659121035994;1.4043364304508217;1.9721608098913557;1.6912207852834102;-1.5110132316358573;0.5100071377862007;1
2.1864344734032337;2.7471836890569605;4.780495706486075;1.3243195674295292;0.38608488404859886;1.9458893683390546;0.14906153769082003;0.33918129744289427;0.06459962054730457;2.482814767626083;0.060925869277047004;0.1366370959518711;1.336656821806406;1.7866514592816027;0.8346605787779149;1.9668842701357416;0.4369631916721616;1
1.7623685317460194;2.463349821109281;3.10594284168862;1.6487249355413063;0.3641000477369625;1.6601621724797173;0.13256884476205835;0.333902922759552;0.0586138534361083;2.6971724375985;0.0364535535841746;0.1366370959518711;0.9599438762780337;0.9214922456036968;0.8994629310633608;2.449439885325617;0.36529614303679236;1
1.5689769438170755;2.0532426275432183;2.4616886502295707;1.2365820503249867;0.47189143253591614;-3.049528214577972;0.22268152410079908;0.6440505772413503;0.057654005152475575;2.111967088756243;0.042571632507392626;0.1366370959518711;0.8758084204316162;0.7670403892989226;0.5500412964478345;2.6080022840798236;0.35223648547486774;1
1.1568887174038949;1.0783189738456471;1.338391504456429;1.009082389649198;0.44606768384609113;-0.20004815731340386;0.1989763785718163;0.508633804578184;0.053572830117524096;2.6707158316866817;0.03925767309064948;0.12338125828489849;0.4285451167680361;0.18365091710572967;0.29876609394846687;1.523088555001408;0.1565349054983973;1
2.5450540900181284;1.9331696089133459;6.477300321118004;2.463565725345518;0.2798212730673561;0.747274337098629;0.07829994486103588;0.2715103262281904;0.01659657472403135;-2.905081821865746;0.02217803609666565;0.036708473539308596;0.8678009333321542;0.7530784598921579;0.5346181126968297;3.00082746554569;0.29184014568802247;1
3.082601515717504;-4.08284894997281;9.502432104703855;4.453617657370372;0.16803926695862106;-1.0061104971710364;0.028237195239990714;0.2011699576899515;0.02291445401676767;1.1315753357469855;0.019883756500458823;0.0550627103089629;1.396969839354348;1.9515247320657128;1.9172308473381192;-3.0741668365874535;0.38732979265917095;1
2.521020999455301;-4.461177506397425;6.355546879694605;3.8063315279372127;0.4117890626439853;1.4302129405663866;0.16957023211321207;0.39035785875835716;0.029522328320186295;1.1042166457959883;0.030335474660956423;0.06627918833486279;1.7541622849401406;3.0770853219064147;2.442735402389829;-3.5134446238980086;0.5313899314294359;1
2.1335401006969734;-2.8390728559374256;4.551993361282051;2.830588178445631;0.6635836678089583;-1.5979517808691792;0.44034328418278984;0.8059099994200736;0.029235884900439605;1.2297511172270603;0.02918833486285305;0.06627918833486279;1.9156613741221014;3.6697585003033772;2.951189034767552;-4.584593591841061;0.6117199835099606;1
3.8265015689863557;1.1200290273531746;14.642114257455043;3.1969883634765544;0.7709960212706891;-0.9575323171911894;0.5944348648152329;0.8768704202805764;0.09306254397448342;2.9180098164281;0.0656418884470276;0.21209340267156102;1.9534692654790788;3.816042171171372;3.091683796004917;-5.070672644065642;0.6146019326077927;1
2.4676932386831356;2.327247259449919;6.089509920242463;1.974868422862492;0.6795347727130734;-2.200801300209827;0.46176750732620825;0.8744129439910124;0.09175737464507015;-1.12561587110722;0.10693892117874977;0.21209340267156102;1.6584606679193001;2.750491787035331;1.0296181623395098;2.978956603211792;0.8227748188388465;1
2.835283666683605;1.019364780793099;8.038833470562828;2.996273272352382;0.5590959966820658;0.6010404528390794;0.3125883335059125;0.5439943857460019;0.07334181937025865;-0.5544045395592878;0.09087896400530222;0.1555011726317935;1.6230369190529665;2.634248840608946;1.21341802237371;2.301632470102774;0.7622615225722887;1
2.5961498394885365;0.8072431845969685;6.739993989076354;2.31429041101923;0.42257696328754385;-1.998598540916305;0.1785712899013222;0.5257899840830813;0.06301973274118522;0.9977113698979618;0.05353319057815839;0.1529519730804526;1.6027256679910047;2.568729566837212;1.06226062604865;2.270334578326924;0.7353218362991348;1
1.7360273660630823;-4.4158932871982355;3.013791015719923;2.650055384993958;0.5162268431702164;0.05619479084085377;0.26649015360948713;0.5299581558517659;0.04301631044727055;-4.416253460235913;0.06372998878352187;0.0897318242071988;0.6919146703134891;0.47874591099502434;0.5031223032611938;2.9293612540585094;0.4269796167118948;1
1.960251356979759;-5.984264151718596;3.842585382540987;3.357313825118217;0.595054849267706;-1.914955413483968;0.35409027363701234;0.7442515600689752;0.04242305153269878;3.5545264315138745;0.03084531457122462;0.0897318242071988;0.26811744283104166;0.0718869631502569;0.3506535662389769;-2.6307582078908958;0.1302580922984684;1
1.7967747480853882;-5.59903923348544;3.2283994953573103;2.9511678770378547;0.6391486626559306;-1.2195301325860353;0.4085110129748646;0.7464407743548718;0.043616585805886864;-5.245012472453141;0.068509737942286;0.0866727847455898;0.3355988158512663;0.11262656520077212;0.333584487645862;0.6966026230129554;0.15134172272303442;1
2.0608351295156684;1.5988351300335086;4.247041431045862;1.6198610575847288;0.554759905538164;-1.1452748029547823;0.3077585527927127;0.6471582902226323;0.037825274002097294;-5.428938305205216;0.060479759355562226;0.07367186703375131;0.9575727658537438;0.9169456019047889;0.6579391396270342;3.515887860904108;0.3371382500571367;1
2.03366636466113;1.6591844142802792;4.135798882754015;1.297239151234956;0.44092088194790713;-0.9441059111206389;0.19441122413772027;0.5124593508586623;0.03878771377950431;3.237196990146746;0.0264479453451616;0.0866727847455898;0.8518524642065192;0.7256526207747189;0.8849482007223428;1.153276723911251;0.27749575796043624;1
1.503389091790623;1.6463057798073812;2.260178761315034;0.9745108674586387;0.29945201828949963;-0.23136446227128538;0.08967151125765482;0.34234395626296177;0.06959435386426337;3.7226902431627593;0.04645916182318753;0.1468338941572347;0.7379212234562033;0.5445277320270998;0.5691949164247041;2.452939677757488;0.23017242010302466;1
2.4613902689657787;-1.5597423694545682;6.058442056159428;2.9614776905774383;0.14253658308179845;2.726888705731348;0.02031667751663443;0.10406762107388046;0.06633668379709093;-1.3869594384435135;0.08259406546344451;0.1468338941572347;1.461308277299878;2.1354218813051373;1.663389729474734;0.3540735552644758;0.35719115545152674;1
3.8186651815080244;-2.9359486651601934;14.582203768461712;5.141682398915739;0.13674342907478174;2.6340755486933993;0.018698765395129865;0.10104597518806147;0.06054585960630312;-0.9050494601781551;0.07698582645049462;0.127459977567044;2.6764711492535436;7.163497812786585;3.6470737306907135;-2.2795703319093867;0.5189197212723838;1
3.493694089276041;1.5434005001415159;12.205898389442345;2.8002789645198964;0.3503492493069887;0.7603444745833627;0.1227445964899705;0.3805009589144688;0.07114900737932693;-1.3681034201024378;0.08565310492505362;0.16212909146527998;2.342979441659338;5.489552664038304;2.2705605825483737;0.37279841126516367;0.41715168431205696;1
1.556971229120345;1.8557473628674863;2.4241594083085176;1.2807708342969653;0.6131523232560947;-0.30656477265442206;0.37595577151434645;0.6922821744370595;0.052934217176079455;-0.04447197391605151;0.057356989905169777;0.1223615784643622;1.5137003119507038;2.291288634399658;0.927633784332043;2.3535520910382655;0.2364483130653061;1
2.661020215650223;0.1767065583992231;7.081028588099161;2.6551604623565694;0.9096200692035133;-0.681506916145521;0.8274086702978044;1.0394798451913718;0.030537949446236147;-0.2986764172206673;0.0364535535841745;0.0662791883348627;2.773578042644349;7.692735158638858;2.5083401869587947;0.7796434597788515;0.519570509810806;1
2.0393551453312746;-3.715111476630197;4.158969408789145;3.0250804044340356;1.2376406795941473;-0.8552643119237864;1.531754451786263;1.4220939711774152;0.015486605825627144;-5.322396338004921;0.024472315692872375;0.0305903946160904;2.1314195365847577;4.542949240935183;3.301767699244582;-4.667643720297939;0.5773690581811406;1
3.764660083281455;1.5872439754421137;14.172665542652732;2.314571949631288;1.5966273998782483;-0.9509630276504328;2.5492190540419757;1.8401245523951848;0.016176206157901718;1.668032103845066;0.012745997756704278;0.038747833180381205;1.997221374418261;3.988893218433167;2.607806669853545;-1.4539409205179403;0.5771838268355021;1
3.764660083281455;1.5872439754421137;14.172665542652732;2.314571949631288;1.5966273998782483;-0.9509630276504328;2.5492190540419757;1.8401245523951848;0.016176206157901718;1.668032103845066;0.012745997756704278;0.038747833180381205;1.997221374418261;3.988893218433167;2.607806669853545;-1.4539409205179403;0.5771838268355021;0
2.0799974254987963;-0.998495725873239;4.326389290081621;2.374935799759414;0.932331914341257;-0.7714400381013728;0.8692427984992329;1.0686819345605119;0.06395798921610413;-1.8095931734271176;0.08182930559804219;0.14071581523401658;0.7142637318253817;0.5101726786011208;0.8228866955514205;-0.7394909284096531;0.17712042460976254;1
2.0799974254987963;-0.998495725873239;4.326389290081621;2.374935799759414;0.932331914341257;-0.7714400381013728;0.8692427984992329;1.0686819345605119;0.06395798921610413;-1.8095931734271176;0.08182930559804219;0.14071581523401658;0.7142637318253817;0.5101726786011208;0.8228866955514205;-0.7394909284096531;0.17712042460976254;1
2.0799974254987963;-0.998495725873239;4.326389290081621;2.374935799759414;0.932331914341257;-0.7714400381013728;0.8692427984992329;1.0686819345605119;0.06395798921610413;-1.8095931734271176;0.08182930559804219;0.14071581523401658;0.7142637318253817;0.5101726786011208;0.8228866955514205;-0.7394909284096531;0.17712042460976254;1
1.3802335402520471;1.308021453081217;1.9050446256366997;1.1503948060267595;0.6545344585336387;-0.4964851084805204;0.42841535740792364;0.7438359169160034;0.07270717544670331;-5.522811124754153;0.11700825940654636;0.14071581523401658;0.7429181117364414;0.5519273207460396;0.8545977403334941;0.025004409161029528;0.17200930326976127;1
1.646463626612345;0.9761777119444837;2.710842473757475;1.7517666662580798;0.40387167570670196;0.2134438128991416;0.1631123304381394;0.4482091562478754;0.054901181436029144;0.7498379927113277;0.058886509635974305;0.12236157846436219;0.41000359704975986;0.16810294959374186;0.3492344027351404;1.8669880178844753;0.08573405728294471;1
1.4957802779808855;1.5733143704507064;2.2373586399965752;1.0649006354111386;0.18692948365823628;2.5827373378004985;0.034942631860734825;0.16171616244881193;0.05404944318859615;0.8668325422233742;0.05812174977057202;0.11930253900275309;0.15627835132626702;0.02442292309325615;0.1435085761012571;1.4922612680367582;0.031572392284928336;1
0.9513212640503725;-5.573168794975855;0.9050121474343986;1.536935440726651;0.09648671909137826;-0.8171180478154643;0.009309686961018538;0.113084641432871;0.024235725148901113;2.4407509972797037;0.021158356276129275;0.0540430304884266;0.1605146777340252;0.025764961768057964;0.19830405254413552;-1.6888064456948335;0.03230902126237973;1
1.1319172608212873;-5.275297020735419;1.281236685345166;1.7908810595109546;0.23539632970535287;0.45520967689888536;0.0554114320387512;0.26335558389820957;0.02590836337999901;-4.0969222728595724;0.03798307331497905;0.0540430304884266;0.32098386726562783;0.10303064304479818;0.2928250015815417;1.649648688701065;0.06586194595062084;1
1.1698294110638514;-5.435472836983669;1.3685008509899974;1.8967769012372704;0.3824137999708519;-0.7531746583687138;0.14624031440814672;0.44210531666080577;0.019167087699087985;-5.015735137056957;0.02957071479555415;0.0387478331803813;0.3290675363345682;0.10828544346930236;0.5066692568190012;-4.8905268634045616;0.07043567759874038;1
1.0921203969767808;3.9802993654426864;1.1927269614927212;0.5846288421360997;0.5085108576990971;-1.0602855698925104;0.2585832923978714;0.5916357924470201;0.029662869802771212;1.2903028174040774;0.02268787600693381;0.0723972672580809;0.45793408786829304;0.20970362883176552;0.32801824756896014;1.5242721093342624;0.10339471797258462;1
1.1426404008733275;3.6962200249915114;1.3056270857079584;0.6466682978111287;0.6107551353456193;-1.1690112447291554;0.37302183535104577;0.7119470112568527;0.04158243806281984;0.1442256548292331;0.04792495156520854;0.09075150402773531;0.3886652331708468;0.1510606634757487;0.5438924954552702;-3.071307301393091;0.09539495947559766;1
0.8437182239342238;3.324145510062422;0.711860441398721;0.6672253957068386;0.6884271374845998;-1.2153506757918375;0.47393192362524017;0.8030389730903025;0.04084663083565631;-1.510537918330618;0.05098399102681766;0.09075150402773531;0.337625510071061;0.11399098505074412;0.4252156448988922;-1.8364218309640172;0.08390783132940799;1
0.88062774864854;2.9588692761768343;0.7755052316897961;0.72812979976309;0.7412719127232803;-1.2366266422022871;0.5494840485924305;0.8649116779473469;0.03703160222763127;0.8739930619238532;0.032374834302029115;0.089731824207199;0.805833074989027;0.6493669447462708;0.6883385545677227;2.2151408906412335;0.22833018340037833;1
1.1807850503842983;1.0146475945634172;1.3942533352110498;1.055331341506975;0.6977480227698427;-1.6689755403161453;0.48685230327922496;0.8500753769487055;0.022143335929685617;0.5244172070576223;0.0221780360966657;0.0520036708473539;1.2088810308838607;1.4613933468308258;1.5900254368513567;-2.6818737961409447;0.4118778107112227;0
1.1884539363995597;0.2775264501254764;1.4124227589436087;1.182411325436111;0.7354937361622342;0.04521565526046878;0.5409510359338822;0.7481738368416551;0.02134640707194705;1.3902321796015773;0.016059957173447603;0.0520036708473539;1.1437455787615238;1.3081539489365333;0.7459973116016729;2.4711729021834348;0.4390523936813921;0
0.7286590153262285;0.31272950086041007;0.5309439606161889;0.8531022262573127;0.6122678252633905;-3.623324795478837;0.3748718898527617;0.8747234122548804;0.013578725641846697;2.120300751890218;0.012236157846436224;0.030590394616090602;0.38933155738730296;0.1515790615776228;0.24885732390407833;3.5541844232828055;0.18467871085576418;0
0.7551282493184923;-2.9588247488421384;0.570218672918811;1.0769114666521908;0.5741079310016419;1.3807358686456315;0.32959991643898606;0.455395810971991;0.007698413822036524;0.2573099416227169;0.007647598654022727;0.0183542367696544;0.5126914554939701;0.2628525285365256;0.7851584305404904;-4.579483795175969;0.2806197320932693;0
0.581063815873724;2.242921434895136;0.3376351581177331;0.354726441468159;0.41304605602824757;-4.136436530261049;0.1706070444004902;0.6009750143061574;0.007516177012167294;1.5911776883990925;0.004588559192413598;0.0183542367696544;0.5958209558043065;0.3550026113755574;0.3844684899548627;2.619666081442965;0.2828419763643214;0
0.6505908903406732;-3.3813156780997122;0.4232685065942699;0.9159401993003098;0.4251351986386552;0.647084292140141;0.1807399371215288;0.41419975425717565;0.009271052443483514;-0.7476586888165944;0.011216478025899874;0.020393596410727098;0.644701070046247;0.4156394697187759;0.8992814144314942;-3.4658205443755836;0.33740876440762196;0
0.9867754414433535;1.4201225882878337;0.9737257718357251;0.7222584693725371;0.2455965434502031;-2.443525098994435;0.0603176621546875;0.33668427094137515;0.013968745173879141;1.8294407339612082;0.013765677577240752;0.0305903946160906;0.866625875262939;0.751040407675255;0.7039799266529427;1.4541178921960718;0.5803642367415145;0
1.0039663167737412;0.9861088281580699;1.007948365216232;0.8984839642884853;0.154429682028677;3.500240491850949;0.023848526691478283;0.10072766366980462;0.01383161004002327;-2.734404536851917;0.018354236769654406;0.0305903946160906;0.8764256240605806;0.7681218745099782;0.7746929981432453;1.2688667745106095;0.5963402502794454;0
0.6048738342098687;-3.9532256941296104;0.3658723553117477;0.898744985209597;0.10548127517749491;2.7994819543242926;0.011126299413070403;0.08805125198080244;0.01356595767885221;3.2645791439346716;0.0076475986540226505;0.0305903946160906;0.41960729601138;0.1760702828659819;0.5430708398980797;-2.332327231877473;0.4217805157029451;0
0.9459294058811004;0.3431408708440049;0.8947824409105717;1.0971159703569275;0.13269421632641878;-4.433190692750019;0.017607755046482428;0.19717142293939238;0.009619640187679225;2.7072339351514074;0.005608239012949951;0.0224329560517998;0.8006562535425236;0.6410504363367497;0.7547802004761615;1.9763894209004391;0.663587662343453;0
1.1121479656671298;-2.8766524791106747;1.2368730975375353;1.4998316830916374;0.1706182589984425;0.7932184805131346;0.0291105903036596;0.15196331744665503;0.008786421912723033;3.535648289917617;0.004843479147547677;0.0193739165901907;0.9640152378055604;0.9293253787213113;1.399444996774459;-4.151441277171648;0.5467319801405781;0
1.0733487185243162;2.8882136923129558;1.152077471557792;0.7938181903413404;0.19032868939091174;-1.6152260322730658;0.03622501000526216;0.23850917980144948;0.008672275464582256;3.311728853936202;0.005608239012949975;0.0193739165901907;0.890596970680682;0.7931629641856076;0.5654537071493002;2.9699873447546317;0.43630430313910995;0
0.29861531486130755;1.2128088096079797;0.08917110626971786;0.31261111542772824;0.20254150254702877;-1.7541946034691147;0.04102306025400806;0.25077420967002506;0.008771617484493758;-2.882761139457285;0.011726317936167997;0.0193739165901907;0.2345304002271664;0.055004508630714856;0.14534733092676477;3.478204457017142;0.09588683465426945;0
0.4830704171255565;1.4840982667608902;0.2333570279018591;0.33244291695288153;0.276842224040366;1.4598647936488938;0.07664161701161622;0.23923942467672887;0.008007354603439997;-3.6298027756636433;0.011216478025899826;0.017334556949118;0.27293180656443383;0.07449177103452553;0.22630660677864434;2.4003042046759813;0.11364851646189962;0
0.28322158731557723;3.7831788309591516;0.08021446752155514;0.1854061802972904;0.322439456552997;-3.5086179178520602;0.10396720314219203;0.453800745605641;0.010576362382313386;0.8834828020776389;0.009432038339961327;0.025491995513408798;0.2484947358911703;0.06174963376562248;0.21344815562351815;2.10742913414607;0.10402994788166266;0
0.2892109842505522;-3.523977197407973;0.08364299341117314;0.42107114739731655;0.3783629323538799;0.00927868395199738;0.1431585085794267;0.38652919120430673;0.026499825444175517;2.895698231016297;0.018226776792087326;0.0606709493219128;0.27551421422757993;0.07590808224144081;0.39790603845966865;-3.518026655775614;0.1103227083117602;0
0.9467793058880531;2.621744008683933;0.8963910540578638;0.8111711119682203;0.38879316087430205;-1.1109164124981739;0.15116012194263093;0.4560134131738329;0.03670161307304904;-4.668797986120222;0.05525390027531345;0.075711226674824;0.9374359424519996;0.8787861462008687;0.5663797175189371;2.8386080506726543;0.31350057633009326;0
1.3493774556245055;-3.0354137585943395;1.8208195177476645;1.8549304342025204;0.3616734942335146;-2.318273414754117;0.1308077164310801;0.4748686100637558;0.034047086685573;3.3836039902551462;0.021604466197613977;0.075711226674824;1.256827492744911;1.5796153465194596;1.83803408086382;-3.483836433653524;0.33395681570978775;0
1.5263375064194915;0.4162512221439236;2.329706183502871;1.6346620919662995;0.2578693028907971;1.720827545134867;0.06649657737338566;0.23469148787936822;0.009756864943020171;-3.718803510946101;0.013829407566024252;0.020903436320995304;1.3572474094369071;1.8421205304231956;1.4671974848622398;0.22446796852726614;0.2995726297283447;0
0.6882846030376871;-1.4643002142418737;0.4737356947787465;0.8212133992260418;0.09527032210882062;0.661580853939336;0.009076434274718437;0.092947808117962;0.016712817441675458;1.4281201235437972;0.014339247476292505;0.0397675130009177;0.6282673140400455;0.39471981789109317;0.7081122947966332;-0.8647089980032252;0.12427387784269836;0
0.46258262193051897;1.4263162651566876;0.21398268211211344;0.3308644260258724;0.05841351343687784;-0.9381980088255357;0.003412138552040308;0.0696058268343922;0.01628298095510514;1.5583237216507193;0.010706638115631648;0.0397675130009177;0.41206792941610837;0.16979997845327885;0.3000802247725094;1.5537982982443221;0.07819748449048494;0
0.5565288608062767;-2.3355647355753213;0.3097243729103321;0.7622280422611425;0.1569542867884857;1.8260142233634582;0.024634648141282217;0.1427695644008633;0.02004001632204935;1.5673819922311036;0.013000917711838447;0.048944631385744904;0.45956666082861075;0.21120151574515936;0.6117712631699543;-2.4736228755603875;0.08552500139349148;0
0.5230450753475129;-1.5834608932524823;0.27357615084528547;0.6545472549908329;0.22440335384081625;-2.262514614926781;0.050356865215006576;0.29379788762533554;0.024307122343347237;-2.472306649201954;0.03339451412256552;0.0509839910268176;0.37099630980308523;0.1376382618875068;0.398371650903222;-0.24397308513412952;0.07025749027083956;0
0.5698645695080405;-0.8349253632295088;0.32474562758058434;0.68180756238662;0.35074841226318215;0.38550999860597557;0.12302444870514317;0.35269986026094235;0.023326684934942516;1.4618321230082252;0.015805037218313427;0.0571020699500356;0.6151272565899443;0.3783815417998711;0.5325215650524582;2.1357454245467586;0.11952635734877858;0
1.4661082002470451;0.7478851787342204;2.1494732548316295;1.6195282852253037;0.4509823397605734;-1.6225566995243756;0.20338507077592127;0.5579256400224171;0.014670637881042508;3.8457373567722506;0.00917711838482715;0.030590394616090498;1.499616224411286;2.2488488205175607;1.6955833735727346;0.35209113693634286;0.33732830792218205;0
1.3944509516791452;-2.8631464886601474;1.9444934566388736;1.8992928106944236;0.5074027051007713;-1.4631875521056443;0.2574575051435803;0.6044930784735167;0.016396327858556332;2.9694421233547175;0.011598857958601001;0.0372183134495767;1.4535338254950048;2.1127605818581427;2.0414178613543124;-2.991881377229795;0.39636592759403444;0
0.8390553391023817;2.970312945890047;0.7040138620762129;0.557363328269858;0.44094532721512925;-1.1010230762936768;0.1944327815928574;0.5159006416545293;0.019760818778712788;-5.445420264785447;0.03224737432446205;0.0372183134495767;0.8843931181210855;0.7821511873799362;0.4773111999350865;3.835200857852005;0.2996417547616464;0
0.42629842170314414;1.3602268569896943;0.18173034434659172;0.3362524489618828;0.38393117366633767;-0.45267943605490046;0.14740314611281155;0.4140316577300287;0.016348698628351335;-0.31757151734554867;0.018481696747221325;0.0372183134495767;0.2736607005142019;0.07489017900592371;0.16740654811501798;2.670407047551322;0.10359669020300025;0
1.3495543316967646;3.0467044626890996;1.8212968942015013;1.1267664829615889;0.3618666749141057;-1.6530771029649483;0.13094749041339104;0.437838959298459;0.028878054421715874;-0.1541929557784627;0.03071785459365753;0.0678087080656672;1.2795267693647667;1.637188753521037;1.0131848444015619;3.3653215274827524;0.381411756676496;0
1.8983438760782894;-3.6060860924675318;3.6037094718439433;2.6940450486905823;0.355450520668631;-1.144306443435351;0.12634507264360084;0.4123675276133314;0.03837032267202368;-0.9258674071944366;0.04486591210359942;0.0876924645661262;1.853353586588876;3.43491951692185;2.640913627385894;-3.6015683209905998;0.4272232826298293;0
1.536505938327464;1.888823173060299;2.3608504985155605;1.3981579076565636;0.30534172135564713;-1.2154573753670395;0.09323356680042964;0.35871129948731334;0.03626559290814661;1.588685249537651;0.02727643519934743;0.0876924645661262;1.5209553716987194;2.31330524269919;1.3906806328501045;1.8527605201674344;0.29359157988548207;0
0.6420580349727221;-0.8057623183851756;0.41223852027303326;0.7741190103443953;0.27654643712165183;-0.5838814022124819;0.07647793188467973;0.3023464420727061;0.01849297424700925;-4.380163079215995;0.027276435199347422;0.0387478331803814;0.6452677732362471;0.4163704991772647;0.7741122564375411;-0.7968138647387644;0.10591254967272107;0
0.4451390236295292;-4.283509684959155;0.1981487503578505;0.6527588121990506;0.22056808591444554;-2.314460042747088;0.04865028052396223;0.28792738050699296;0.013866020974224862;-1.8120362854134502;0.017079636993983877;0.031610074436626896;0.4407243890409947;0.19423798709555803;0.6471440708335283;-4.3192704271552;0.07086254702657958;0
1.1396423013012993;2.251924891634534;1.2987845749153213;0.8306367490157625;0.1273472844809203;1.707227161753364;0.016217330864664446;0.10676835234172177;0.01118553595860417;-0.9116412550142527;0.014275517487508944;0.0234526358723361;1.1360351743782198;1.2905759174245521;0.8134749632587885;2.2733204745975613;0.2030607567289329;0
1.3818114726858888;-3.7856593016105062;1.9094029460463446;2.0242428940769495;0.12407712457309175;1.6177349110313255;0.015395132842326529;0.10498420776273532;0.024079705318049857;1.3354057927168412;0.02243295605179977;0.0560823901294994;1.3843052022587279;1.9163008930005774;2.028883680868778;-3.823640783056785;0.2732843747390877;0
1.14669929641273;2.171285120670145;1.3149192763934503;0.7988324792217418;0.2114666663417835;-1.2851463556573162;0.04471815097370718;0.25075826290802816;0.018937424520855374;-0.8641105960228153;0.021668196186397475;0.043846232283063204;1.1567592708111352;1.3380920106075092;0.8160033924217993;2.1383024400724793;0.2790013875673835;0
0.5541267207299359;-5.422800559030923;0.3070564226269123;0.884221988308644;0.26867347918991397;-0.6802529688014403;0.07218543842001314;0.3006965055475825;0.025525962211371073;-0.533861475780089;0.028551034975017903;0.0591414295911084;0.5611309137356398;0.31486790234979406;0.8935559059290226;-5.384407138633685;0.1634538273029908;0
0.48857337780052673;2.986220424749586;0.2387039454954162;0.35639921971563515;0.24367253248763188;-2.7747865164098116;0.05937630308893601;0.3288062523606029;0.03284150050421453;-1.1962549811325243;0.038747833180381296;0.07545630671968989;0.4875385465900279;0.2376938344111168;0.349988509133496;3.071744074505304;0.1564464590289736;0
0.6486858158579045;3.4005974416848943;0.4207932876952352;0.4382443902184012;0.24102465566264195;1.0120978351406205;0.05809288463729512;0.2035484533865572;0.03307285559340656;1.232719860053237;0.03262975425716312;0.07545630671968989;0.6605065295971142;0.43626887564042355;0.4381900813638846;3.473055274572232;0.20611650727378675;0
1.3721981972436894;-0.6708207570575411;1.8829278925188309;1.6816589228770153;0.31791923582941395;0.036090612134699995;0.10107264051035851;0.36202937711765526;0.02309524146610829;-1.036459461409443;0.027021515244213177;0.0530233506678901;1.4009237953757603;1.962587480450025;1.7158995571533473;-0.638426570589214;0.35984594590928837;0
1.4183105392428985;-1.565324785800339;2.0116047857274815;1.8751534200187931;0.3978708287466948;-2.402482186781011;0.15830119636758175;0.5108296702491106;0.026174540789009722;-4.76561598072905;0.04002243295605168;0.0530233506678901;1.4598236162486242;2.1310849905572105;1.9439368440287308;-1.6832826706827344;0.31647157916942825;0
0.7986297484642375;3.7696016525101435;0.6378094751320512;0.4475888334331408;0.379357242366484;-0.5511631035730176;0.14391191733590328;0.42100059469927753;0.032126657553222845;1.3796818035645124;0.023452635872336;0.0785153461812989;0.8461113180927212;0.715904362604602;0.47909362523778487;3.6273698084539205;0.15562679160487494;0
