acc_X_std;acc_X_kurt;acc_X_var;acc_X_iqr;acc_Y_std;acc_Y_kurt;acc_Y_var;acc_Y_iqr;acc_Z_std;acc_Z_kurt;acc_Z_iqr;acc_Z_range;acc_std;acc_var;acc_iqr;acc_kurt;acc_cv;hole
5.066034158094471;0.3559664392440922;25.664702090979958;5.877187188396297;1.1413833785830174;-1.1574068775347612;1.3027560169055836;1.3241262560916818;0.04317614632413812;1.6864265990212655;0.02778627510961558;0.10502702151524419;1.1824031196740519;1.3980771374149301;0.9761473319626095;1.4913734122969053;0.16628243438340087;1
5.066034158094471;0.3559664392440922;25.664702090979958;5.877187188396297;1.1413833785830174;-1.1574068775347612;1.3027560169055836;1.3241262560916818;0.04317614632413812;1.6864265990212655;0.02778627510961558;0.10502702151524419;1.1824031196740519;1.3980771374149301;0.9761473319626095;1.4913734122969053;0.16628243438340087;1
5.066034158094471;0.3559664392440922;25.664702090979958;5.877187188396297;1.1413833785830174;-1.1574068775347612;1.3027560169055836;1.3241262560916818;0.04317614632413812;1.6864265990212655;0.02778627510961558;0.10502702151524419;1.1824031196740519;1.3980771374149301;0.9761473319626095;1.4913734122969053;0.16628243438340087;0
2.2202603528369003;3.898760166226257;4.929556034379438;1.3169822116285337;1.0378326186402607;-1.1537710990946781;1.0770965443137008;1.2038290219682857;0.024661007931981546;3.102465879306962;0.015550117263179355;0.056082390129499296;0.5232845292228548;0.27382669852398484;0.5168014541261154;0.4712369966632899;0.07983396011721161;0
0.16388319134599155;-0.37400097275005706;0.026857700405746882;0.1776778394656855;0.9400131190496579;-1.1497370941889251;0.8836246639854662;1.090193537776368;0.044966222979070165;1.1374990906570464;0.03721831344957684;0.10910574079738959;0.5049781129310363;0.2550028945393905;0.5061963199515773;0.3032660811399648;0.07691662724290263;0
1.558572183284859;3.8972848319065037;2.429147250509332;0.8955539650549724;0.8479244552387084;-1.1452691360476877;0.7189758817918604;0.983219803515929;0.02898128976976882;-0.613151708660066;0.03320332415621499;0.06627918833486289;1.6674652534357008;2.780440371415386;1.3303530442028109;3.087042219345083;0.2994966850576248;0
1.5159730749734903;-2.2104827532775158;2.2981743640445798;2.0198341380191884;0.7615661121750485;-1.1403379981696187;0.5799829432134187;0.8829078191869701;0.02177775969688935;1.2303599958706073;0.01727082696033442;0.053023350667890295;1.5836303020578828;2.5078849335959412;2.2887109158214374;-4.032435673447917;0.32486923613868596;0
1.2750680431135486;-0.1678108062187711;1.6257985145694145;1.368331603539061;0.6809374665417008;-1.1349288149777088;0.46367583334022994;0.7892575847894889;0.025039641544968985;-1.9510036449100543;0.03269348424594677;0.0542979504435607;1.176205544341769;1.383459482540317;1.1719842276684922;0.3173102931858729;0.2667976161000539;0
0.969251365519259;-1.7219029040060363;0.9394482095609482;1.1919474362556155;0.6060377685193689;-1.1290538535478856;0.3672817768719361;0.7022691003234875;0.04356689429441341;-2.550105874897845;0.05971499949016008;0.09202610380340559;0.7987067809310088;0.6379325219051744;1.0795769316890174;-2.7835129210787386;0.21885392392140357;0
0.6921150698364448;1.363884329671766;0.47902326989470684;0.5276100697790675;0.5368661268116426;-1.1227725901905696;0.28822523811773465;0.6219423657889647;0.03964094099824326;0.21297372068392484;0.04537575201386755;0.0866727847455898;0.7171939104262599;0.5143671051525102;0.5733396536667108;1.366813798387005;0.18783349290803997;0
1.4395274697227538;0.7401146075109075;2.072239336086394;1.3714401027865124;0.47342150457744847;-1.1162220574695088;0.22412792099637505;0.5482773811859218;0.01678346728744741;-1.0194185808100968;0.020138676455592898;0.0377281533598449;1.4096769872624428;1.9871892084173177;1.4434395607997592;0.21763308841136997;0.3223850744798919;0
1.9090183165935366;-4.294630933288788;3.6443509330896204;2.8138583360119;0.4157027411939455;-1.109660232612761;0.17280876903616046;0.4812741465143582;0.015204288940787255;0.7359049111131526;0.013765677577240721;0.0367084735393086;1.8710580637084058;3.500858277768249;2.7764363325154386;-4.416692473734178;0.38087492752974783;0
1.5406095494697856;2.5212299050437927;2.3734777839174956;1.294072337589621;0.3637086270284926;-1.1035225929717924;0.13228396537495116;0.42093266177427546;0.016365252265191782;-1.9303091462345474;0.02064851636586112;0.0367084735393086;1.536249959920094;2.360063939354491;1.2957303586677744;2.4785602659189525;0.25571275788765446;1
0.934229153404986;0.3968204467573013;0.8727841110717969;0.9694079604925099;0.44902669982397364;0.5170310862287231;0.20162497715480895;0.4474140318810936;0.01690947685508009;3.4000661157030123;0.012236157846436203;0.0367084735393086;0.8967502048637503;0.8041609299231781;0.95139093313486;0.09066597723435343;0.14117477902358785;1
0.9959695985724509;3.200511404023022;0.991955441280569;0.7695786210935189;0.47570794875607825;-3.4673533218217045;0.22629805250971557;0.6590311469808899;0.006475836607612944;0.9339525989312438;0.00611807892321805;0.015295197308045197;0.973029723820758;0.9467868434387007;0.8294917534730155;2.9441464383461238;0.14747217137901134;1
2.3219037510116856;0.018041390911410105;5.391237028962135;2.7440730191470246;0.37589075228663693;1.534568863867971;0.14129385765461383;0.3945407444702539;0.010543541938918627;0.7826769998522369;0.00943203833996125;0.025491995513408798;2.1978745067480174;4.830652347412841;2.674976903279898;-0.28365963452385756;0.3958436518521514;1
2.7688095339130303;-2.6891980651640957;7.666306235087693;3.6510871934101155;0.1931135492824605;1.5904769080406176;0.0372928429164693;0.12601895508544847;0.02566813151304939;0.9952163940405416;0.025491995513408826;0.0591414295911083;2.48421595831781;6.171328927560874;3.2994950030763985;-2.57145661374493;0.595542908007609;1
2.8711422340534973;3.1111372201202343;8.243457728165708;2.355532984569213;0.1479143633774924;-4.438032343818488;0.02187865889336886;0.2254653188155853;0.03473496815501856;-2.398878793710459;0.04473845212603233;0.0780055062710308;2.5728173233112357;6.619388979130392;1.8466875374515546;3.5765769835158956;0.7647924895078777;1
0.5905767755232659;3.130475028126302;0.34878092778745806;0.3857405945937069;0.19309176389748142;0.6065126866103245;0.037284429285040714;0.17911263727595306;0.021922622105044184;2.0971484369362923;0.013893137554807727;0.052513510757622006;0.36456792717506803;0.1329097735247257;0.3528333931531069;0.8734998923390567;0.17355848502722765;0
0.8858137752413743;3.500990588488367;0.784666044407376;0.6549098411088554;0.149195200441506;-3.9273476566721435;0.02225920783478115;0.21416600591586277;0.015200726799150181;1.4789256946060672;0.010069338227796426;0.0372183134495768;0.16227158604063766;0.026332067636144065;0.1325337207011592;1.1395081590071499;0.08417656009167436;0
1.253851483644681;-4.958333836259962;1.572143543037968;1.9714205164079757;0.11959870268943684;2.124520220465566;0.014303849684996308;0.10786276537854578;0.01520072679915018;1.512639837439215;0.009304578362394202;0.0372183134495768;0.14165225446563556;0.02006536119519717;0.2122790834265067;-4.588382520412949;0.06936789378923094;1
1.048248305169335;1.4410948897131046;1.0988245092903834;0.9477696896306484;0.0503543977916231;-0.3690903838202608;0.0025355653769570177;0.05574656041089954;0.0496223808593534;3.2559365971920187;0.0405322728663199;0.1040073416947078;0.16433535017247738;0.027006107316310767;0.2552606609932597;-5.0597668163738785;0.08128783801178663;0
1.6420506181242502;2.826074250153244;2.6963302324822322;1.261113060312446;0.036596775867680245;-0.7970715535671111;0.0013393240039092232;0.04152295229154768;0.04731266752689645;-2.8622121846412583;0.06347506882838785;0.1040073416947078;0.584722572132006;0.34190048636066894;0.533196978845049;2.5888154174932367;0.2577786231360374;1
2.7438840482254223;-2.134752023122367;7.528899670105932;3.536552345603361;0.024337043518479002;-2.181831519464893;0.0005922916872203409;0.03303578151364506;0.052576996125677566;-3.937978931780288;0.07851534618129898;0.1060467013357805;1.5003250989576649;2.250975402562327;1.5266917404513047;1.351535326215144;0.485100741815598;1
2.575192221915709;-1.1574694920478201;6.631614979815166;3.195685467161038;0.0957101761801292;3.0583988122505836;0.009160437824431369;0.07424716917104224;0.04489680085913698;2.386838754354109;0.029570714795554176;0.1060467013357805;1.7958263980754603;3.2249924520246815;2.520421179635039;-3.4009445122989526;0.45232008894953263;1
1.3670926312069502;3.3665779855745406;1.8689422623003422;1.0073539173902084;0.12132353574972891;-4.668116737181686;0.01471940032681575;0.1827370505804904;0.03597774715363965;3.870519522323196;0.021158356276129303;0.0754563067196899;1.1879118500190273;1.4111345634156283;0.8503252591986428;3.4029769305982214;0.2438328923677803;1
0.502546215041097;-0.16857275308748498;0.2525526982521325;0.5549456038542218;0.10859983825986715;2.0002123571776753;0.011793924870069304;0.09209292681676606;0.03404748431996187;2.082330928595921;0.031864994391760895;0.0754563067196899;0.4853146849642598;0.2355303434419587;0.485035852845785;0.8264769593146504;0.09266828886965638;1
0.7257622127426728;-4.342792883948023;0.5267307894451406;1.0712285268629849;0.05672966732310366;-2.215300901177148;0.0032182551545900154;0.07179521706504399;0.010771185124564738;2.687817254645573;0.008412358519424928;0.0244723156928724;0.7048678253708195;0.49683865124298804;1.037699144502743;-4.31190169024209;0.14113501810560286;1
1.081138382944352;1.1240349047908378;1.1688602030755282;0.923691259201119;0.037763908738967115;-0.09422692173945357;0.0014261128032450367;0.03908496004651951;0.010498246294470355;2.923994304036942;0.008157438564290825;0.023452635872336;0.9963517230935924;0.9927167561115707;0.8656150283269239;0.9865408715179296;0.22988160156647056;1
1.0872898724454818;-3.972780346562013;1.182199266722512;1.5683616687667188;0.03335984861477122;-3.2353778474358847;0.0011128794996004532;0.04577350070164443;0.02270779780002317;-0.5631071578919613;0.027595085143265002;0.049199551340879;0.9710971772472123;0.9430297276575038;1.3904679067030252;-3.8848474825375927;0.2702030922277224;0
0.8351692224343531;-1.1515805108710122;0.697507630101602;0.966646148256471;0.13050501666371783;3.0578201016414077;0.01703155937439727;0.08457222621505278;0.025015407464362076;-5.156129948966678;0.03944886305700013;0.049199551340879;0.7257735673126338;0.5267472710097062;0.7612326221468062;-0.16776525358684857;0.2182389142523775;0
0.9513276606128893;-0.41232778700206296;0.9050243178471927;1.037816518407983;0.27984758731958537;-0.23813683817517095;0.07831467212859294;0.32398780499820035;0.02242172807344824;3.3731997786847465;0.015741307229529954;0.049199551340879;0.770314102729404;0.5933838168638068;0.7877950936080622;0.11505481485241731;0.22979672636246046;0
1.4448977484879382;-0.5645103872341739;2.0877295035855132;1.5757438560310808;0.367645109017018;-1.8573838119385844;0.13516292618413508;0.4536577791786578;0.010387010671907499;1.246423878748951;0.010005608239012975;0.0239624757826042;1.2451758595317688;1.550462921160679;1.3545966825440434;-0.5358609617937962;0.31544574183914675;0
1.0109428150230644;-1.9238404280999166;1.022005375246758;1.3440839775558469;0.3689279915633761;-1.168377189828652;0.1361078629589865;0.4300300721015776;0.02760482199571817;0.9231578588793781;0.02969817477312115;0.060670949321912804;0.9107756935066116;0.8295123638824492;1.2240887281515276;-2.233533228148948;0.19587217436972226;0
0.5907287178334953;3.678544653665355;0.3489604180732053;0.39022610659053303;0.40983745742675015;0.06770518945032578;0.16796674151002325;0.4223729612954204;0.025674881843609953;-2.8785887012509015;0.034669113898235855;0.0560823901294992;0.545719257714252;0.2978095082401942;0.3810066377014598;3.6519222637184576;0.1060773375182247;0
0.13309244677560045;-0.9103767875003843;0.01771359938871604;0.15225744283824838;0.35621891714043574;-3.730207940385311;0.1268919169287046;0.5157350576201083;0.01666365554747037;-3.136224391351277;0.022560416029366728;0.0367084735393086;0.13904096189724827;0.019332389085312044;0.1704385497973755;-1.1421732906114705;0.02596416775713452;0
0.28539129663793705;1.0850515329220727;0.08144819219668299;0.263063431128276;0.29790375727165974;2.0083852603560413;0.08874664859657196;0.22402235941940846;0.015566824350741325;-3.583149646242319;0.021795656163964477;0.0336494340776996;0.2845694971047737;0.0809797986824638;0.27479223558293686;0.8798296490771236;0.054743894711067075;0
1.3335788979356455;3.157097638962753;1.7784326770192507;1.009265276577314;0.25727671780561884;-0.13385571348565684;0.06619130952483204;0.2965335216278937;0.014578063709666867;0.857943020342681;0.013638217599673676;0.0346691138982358;1.3033899269481624;1.6988253016699362;0.988262594090445;3.1395912447542997;0.2883111373622386;0
1.3883468579363407;2.782266217661359;1.92750699794171;1.0620266566604375;0.28311850340810873;-2.956249218533687;0.08015608697204728;0.3825453055285266;0.007125609358361943;-0.4010122424259208;0.007647598654022625;0.0168247170388497;1.3697338616078267;1.876170851635089;1.0511737143819468;2.6806133237427225;0.29882799027571977;0
1.3260584977030367;1.7317029164467215;1.7584311393304348;1.0807430892893102;0.21248367961025094;1.6581055326445462;0.045149314100711775;0.20368958213726385;0.004412889491383332;0.7659530240606465;0.004461099214846525;0.0101967982053634;1.3125938500310221;1.7229026151392617;1.033761392924223;1.8021575795504283;0.2976586736145771;0
1.4274391930050396;0.7918336345029999;2.0375826497268785;1.5462899325864248;0.10835427566274428;-0.04008565788685381;0.011740649054397976;0.11233357338472405;0.004107825011138982;1.2146905037709637;0.00420617925971245;0.009177118384827099;1.4212526836246584;2.0199591907102934;1.5406946092349374;0.8239128633442192;0.3104048828387769;0
0.6928610073279816;-5.219212233523857;0.4800563754755454;1.0981100422019088;0.06339240615807325;-0.9169135099343535;0.004018597158510123;0.07415137432274288;0.009550713705026739;3.5527855289161074;0.005990618945651098;0.0209034363209952;0.6822311603043183;0.4654393560901764;1.090127049791354;-5.325069551775165;0.13565202989479908;0
1.0097454631307332;1.6243092774735377;1.0195859003130987;0.6732173588805619;0.04967309343327677;-2.7922653411476492;0.0024674162112310436;0.06561921014594707;0.008505824925218185;3.112366883001144;0.006882838788620324;0.018354236769654298;1.0001146810328647;1.000229375217469;0.6600722501777003;1.623244333238354;0.229428336722144;0
1.0222332503806664;0.5831818760660479;1.0449608181838224;0.9557018075388664;0.05161859262518929;-3.762603484293617;0.002664479104605246;0.07324687400142815;0.009019988790126518;2.5693433637175076;0.007392678698888499;0.020393596410726997;1.0135517254263555;1.0272871001147423;0.9526883243130189;0.5563510260913933;0.23974138000870004;0
0.9903121874754287;-1.894479260766099;0.9807182286623686;1.2430469247248315;0.0651765620755918;1.120040278670741;0.004247984243993471;0.05446015514595537;0.00886984694653473;2.6461992276198956;0.006627918833486273;0.020393596410726997;0.9791784825067279;0.9587905006041785;1.2255578090336883;-1.8674215297872117;0.2874822198915063;0
0.8161817969046316;-0.651230169423469;0.6661527255984733;0.9939606399930483;0.10903474899747762;0.8096233598348253;0.011888576488942947;0.11801559428839736;0.00789840592680214;2.3555555555563554;0.006118078923218098;0.018354236769654298;0.8137102943232722;0.6621244430876664;1.0106608909732548;-0.805155826217975;0.28295936342888517;0
0.8567461480038392;3.9290437914798986;0.7340139621194163;0.48867338423519335;0.14454805674447138;-2.5880845592030877;0.02089414070860292;0.18830167062972297;0.014835085716185883;-1.6774257548512566;0.0188640766799225;0.0326297542571633;0.8592988769478083;0.7383945599237646;0.4938418506183391;3.959592496899756;0.32236338313000984;0
0.08734549993142676;-0.9573873390318113;0.007629236358270872;0.09966435680085528;0.09386348965784384;0.8827439333555649;0.008810354690748158;0.0833568685705452;0.01316400987800356;-0.9235199999994705;0.016314877128581626;0.028551034975017903;0.07789358566967812;0.006067410688479484;0.054490221839846864;1.5936437128423666;0.035367228375748024;0
0.3245082108612558;2.542762960134521;0.10530557891637328;0.2858913159016332;0.06790346131057717;0.6992333255489189;0.004610880057957051;0.06664468975708887;0.010855320636736589;1.3245674740504398;0.008157438564290825;0.026511675333945203;0.2983364458603392;0.08900463492857912;0.25146958467529634;2.635726280761798;0.14499128890878799;0
0.8240489903308877;2.3404738502649174;0.6790567384653555;0.5918082241703928;0.12227861688323267;0.984402613798661;0.014952060146876396;0.10462972539422188;0.020154266789536145;-0.5639436685343036;0.0224329560517997;0.0469052717446721;0.8163483282773408;0.666424593081209;0.5617689317789583;2.56455873531835;0.3447539670403948;0
1.0148016731312766;-4.750241544070617;1.029822435790038;1.5732476080680469;0.13480572812680283;-2.2314790392480575;0.01817258433579748;0.1765010535428697;0.01750367858275883;-0.2482750148441255;0.020393596410726973;0.0387478331803812;1.0108297473180055;1.021776778062983;1.5737977959250666;-4.88464512406502;0.3714201514227023;0
0.9332400691419495;0.5594371884601177;0.8709370266520705;1.0570506576983152;0.15155044380868138;-1.1161510720289822;0.022967537018608288;0.17618949106589576;0.01741434819679746;0.6588342857142582;0.01886407667992245;0.0387478331803812;0.9225773947205712;0.8511490492493966;0.9946519460317025;1.0625319986415924;0.31653925175609493;0
0.38661814753120727;-3.505304487976259;0.14947359200046237;0.5519566802545834;0.13124490796775404;-0.8785925774543895;0.017225225867464226;0.14854042141405643;0.016399630307351587;1.4999999999999414;0.014275517487508875;0.0387478331803812;0.34797179921326543;0.12108437304771713;0.4661389450145288;-2.5721613224780846;0.10549102092122341;0
0.8996544032217333;1.1627283433806461;0.809378045236253;0.9117263939068807;0.114487627744259;-1.3546429245253222;0.013107416906508023;0.13536365639156356;0.006763790742032024;1.9338842975294952;0.004078719282145399;0.016314877128581602;0.8833119789413885;0.7802400521413518;0.8506912492051129;1.5542671065255647;0.2430460038276241;0
0.9533712908871591;-3.6058787707277897;0.9089168182878482;1.3525200836592055;0.09167377195064119;-1.057100302950623;0.008404080463658167;0.10907389236836929;0.003059039461609101;4.000000000160814;0.0015295197308045246;0.0061180789232181;0.938990446866121;0.8817030593058375;1.3340737778619243;-3.670118388567859;0.24739779122099165;0
0.7767634004860885;-2.018255503858599;0.6033613803347114;0.9758098353267872;0.07947629387003712;0.31881489913061856;0.006316481287316498;0.07724742708708532;0.00611807892321813;4.000000000006942;0.003059039461609049;0.0122361578464362;0.7506235638739247;0.5634357346427918;0.9237675731084858;-1.8122977301733396;0.18857981962080633;0
0.6029666466525639;-1.026728757113883;0.3635687769754379;0.7300885792548981;0.06743351894361511;-3.397081059830633;0.004547279477118899;0.09305863272032244;0.006782978839425968;-5.887324842794595;0.011471397981033901;0.0122361578464362;0.5623113499285196;0.316194054258434;0.6680552356324463;-0.8123273214962499;0.13579894251748273;0
0.3870043818252754;1.3095953595914178;0.14977239155196356;0.3669780273432979;0.04842484135548443;2.402950262561964;0.0023449652603038354;0.04288373109052257;0.009308360652343002;-3.230879999998992;0.013255837666972525;0.0193739165901907;0.3560879560081327;0.12679863241404984;0.3487122232615567;1.0731658354606957;0.09408224890964158;0
1.0686923029475481;3.6072261383209465;1.1421032383793341;0.7110069174754243;0.01387917982257549;-0.7933345976710129;0.00019263163254738661;0.015501229652550741;0.016536427796703244;-2.1676473564745553;0.022432956051799725;0.034669113898236;0.9341509854113927;0.8726380635450761;0.6281699660881448;3.5412201854378047;0.29556506625321527;0
1.1662039911957058;-5.291443568661634;1.360031749080794;1.8415277185734875;0.05456955836919112;3.520089627765458;0.002977836700608556;0.03699918321977291;0.016824717038849784;-0.8521275869129585;0.020648516365861132;0.0367084735393086;1.0433757935362402;1.088633046537379;1.667997508559495;-5.3677210370582635;0.381768096236189;0
0.8612225863827215;0.47460582785650374;0.7417043432957442;0.9367553141017746;0.09627209990340563;-1.4494957270136748;0.009268317219811315;0.1244723189257082;0.009510940198928125;-5.434535605753322;0.015295197308045329;0.0183542367696543;0.7613586066837499;0.5796669279714209;0.7720318665456614;1.525751234452354;0.3204923962274072;0
0.36054378592185254;-0.0530890477960444;0.12999182156686265;0.3780671966175779;0.14779028502539118;-0.3589600064836862;0.021841968347886365;0.16020840072979858;0.01338269067850177;1.248404852538604;0.010451718160497572;0.0326297542571633;0.25851371452227434;0.06682934059610394;0.19479254561343518;2.5401130672643966;0.12902064410695085;0
0.25021006983120014;1.7519164037413049;0.06260507904493405;0.17520831542022997;0.1345458769252455;-3.1544366846346055;0.018102592997583312;0.18566134712254767;0.017204106909817832;-2.1487887280673448;0.02243295605179975;0.037728153359845;0.2159817407009739;0.04664811231622273;0.1254725226549156;3.627808755896453;0.10520806319908797;0
0.28523928312065794;1.4604168662077885;0.08136144863518686;0.19831594027977983;0.16137638410561952;1.290075056396713;0.02604233734700445;0.12892327971555984;0.018598095265700627;3.4517993903643536;0.0137656775772407;0.0397675130009177;0.3255078242639525;0.10595534365705221;0.206966776649967;1.4973235337278457;0.16511449041109427;0
0.49588267981018236;2.5993066350346545;0.24589963213572785;0.31423961053937943;0.14445464124373344;-4.993986148403064;0.020867143376855735;0.2226417881546453;0.021907301447937597;3.046879288653674;0.014020597532374827;0.049964311206281205;0.45516458947534083;0.20717480351225556;0.28095259797265904;2.042993963303184;0.22253165057365693;0
0.6639116697112201;-4.105514663503735;0.4407787051787402;0.9630750580145686;0.10838462779831472;0.7288976011749817;0.011747227542979216;0.10965320100148535;0.007876435353153551;-4.409225679596291;0.011726317936168023;0.016314877128581602;0.6236885158600356;0.38898736481569385;0.8613857064768768;-3.3571941750160743;0.2726059618695955;0
0.6151404036031393;2.42927449728683;0.3783977161450331;0.503352843142947;0.1465227508765272;2.083078409162688;0.021468916524424852;0.13018270605741145;0.007556416870743972;1.213232906804711;0.007392678698888524;0.0173345569491179;0.593975356229703;0.3528067238082026;0.4135293388912409;2.912214883848158;0.24371609179024836;0
0.38350067321791115;0.5775657269352568;0.14707276635859107;0.37826325119234205;0.18029078283301367;-3.8137032627865413;0.032504766374540896;0.25939478965759233;0.0029545798325541044;1.6789463638101534;0.0021668196186397496;0.0071377587437544;0.3170104393441689;0.10049561865318297;0.2653869489984544;1.2573949034007192;0.12262020753674352;0
0.3759254759957205;1.0535645886832796;0.14131996350260903;0.32849140908332863;0.11713507599792423;-0.3408620598195018;0.013720626029039487;0.1326148088766156;0.0014644036521208556;3.4123048668517626;0.0011471397981034;0.0030590394616089997;0.31704426839918937;0.10051706812477722;0.26567338024316856;1.2551450163430449;0.12262876390909555;0
0.3405520043429209;1.3751748930078165;0.1159756676619808;0.30332494785972;0.1462478231741112;1.0697404620798174;0.021388425783166094;0.148736120099478;0.003261248948437605;0.33384630061828524;0.0036963393494442;0.007137758743754399;0.27853186375381145;0.07757999912617179;0.23747983027704045;1.8309012133776523;0.1089204143669875;0
0.3462475763398676;2.7890756566537505;0.11988738412123244;0.203183794832011;0.16967053531396703;-2.9644317754892864;0.028788090553728135;0.23632479694836328;0.005417673814382708;-3.3330591903706885;0.0077750586315896;0.0112164780258998;0.27969961641583574;0.07823187542316563;0.2100353156314747;2.4189233849562886;0.10898717447092786;0
0.49120176867021503;3.323906826405185;0.24127917754474745;0.2778713532242665;0.10108154671631295;3.3598468733238747;0.010217479086562157;0.06943132541792385;0.008942810996854605;0.6502372850322455;0.008412358519424875;0.0214132762312633;0.4735351831364806;0.22423556966810018;0.3100338862893577;3.368840677288201;0.1919979877715404;0
0.8034773207262534;-2.9227688282586257;0.6455758049214387;1.1003051137547237;0.08479160937446507;3.110754822246868;0.007189617020311873;0.06111300439007661;0.014552037407707165;1.7044955949436194;0.011726317936167999;0.0346691138982358;0.7165265832354409;0.5134103444830552;1.011129348889063;-3.5312761481659845;0.33778510504867615;0
0.7847565308067136;-0.38987288688522526;0.6158428126437885;0.910249588506759;0.13334903108217455;-2.9081779894405972;0.017781964090554752;0.18067365605830332;0.02731016542823241;-1.4319661143433624;0.03364943407769948;0.061180789232180996;0.6483111112385798;0.4203072969554021;0.7152120919261193;0.648226433125302;0.3786115921654429;0
0.3658384127240549;1.273037790542002;0.1338377442244559;0.32627577815390874;0.1318682387795578;-0.496474501750372;0.017389232398822476;0.15070189918405164;0.03065829790633811;-0.5361813767719106;0.03670847353930867;0.0672988681553991;0.258138903140244;0.06663569331444828;0.3052774671694538;-0.9177879481274438;0.17975833002749647;0
0.18058069890129982;0.8674396188927034;0.03260938881568191;0.20155392407154293;0.0740165772079191;1.1224412456484405;0.00547845370157585;0.08108900410895359;0.014162786207131437;1.35161707150057;0.013510757622106698;0.0326297542571633;0.15761543960981958;0.024842626803396686;0.23542198441688278;-3.9008824624440113;0.11519872285283571;0
0.18077808503521262;0.5492103182771295;0.03268071602899856;0.20712171754543962;0.03194592586105649;-5.979616527369441;0.0010205421791201178;0.05460772191391783;0.008692234698034988;-0.772535981795377;0.009686958295095319;0.020393596410727;0.15024370814585483;0.022573171837416806;0.1898870467966458;-0.8397843704885695;0.1086060053752568;0
0.11069540939772571;1.582609673371877;0.012253473661730102;0.07180338629396443;0.03046390970544352;3.173704503452889;0.000928049794541416;0.018106071211449914;0.010738960115549789;0.41771296614663633;0.011471397981033901;0.0244723156928724;0.10426021334225181;0.010870192086171864;0.06636709367136562;1.7262769466676957;0.07006069252466565;0
1.0325598186214084;3.770603075886225;1.066179779031476;0.6567896622005036;0.10532345394344665;2.253009941490289;0.01109302995057733;0.0986984700417125;0.029856485171812937;1.1749840971922545;0.03161007443662685;0.0652595085143264;0.1913136871988835;0.036600926909632236;0.22084082602697808;-0.9067656507637345;0.13632797817723394;0
1.8451340752668464;-1.8608527540757365;3.40451975571084;2.424123076288283;0.18066662901475208;-1.4024461031052553;0.032640430839554056;0.22184844769464873;0.0540294009734184;-2.4337856750115137;0.07418170694401947;0.1131844600795349;0.7031394917009753;0.4944051447895059;0.5821365335113038;2.6963014276538715;0.4107848289122274;0
2.097164474129753;-2.448212776219375;4.398098831551924;2.7827077393443194;0.22325464695737926;-0.8192332870578731;0.049842637388064055;0.259310224517878;0.04715950272192176;1.6656304552183219;0.036708473539308575;0.1131844600795349;0.6635064736299285;0.440240840548823;0.6581209985510474;0.4725986446540631;0.3560197930300195;1
2.4964412223647208;-3.232913718547154;6.2322187767218615;3.453351634221046;0.13585940366686358;0.6268387630640717;0.018457777564715783;0.15226354998016484;0.03823006160443613;1.1339956742048454;0.031610074436626834;0.0927908636688079;0.7554649379310799;0.5707272724432105;0.9771277914026006;-1.220763260912621;0.3512456389214941;1
2.399029454126893;3.0259699370076625;5.755342321768379;1.7576807631397875;0.10154149705363846;1.478259479905402;0.010310675623894068;0.07230278407935026;0.0502606224214275;-3.132269153097573;0.06921076781890476;0.1085959008871214;0.6569356396281727;0.43156443461367644;0.9192495135248813;-2.649112032159051;0.2974315996132194;0
0.735805752327987;-0.3887944173353546;0.5414101051589549;0.830838750488363;0.11318478477300355;-2.6978328869549557;0.012810795504111135;0.15639565174646686;0.032968881009872227;-3.3971714632150363;0.04550321199143463;0.0718874273478127;0.7414557308086359;0.5497566007489684;0.8470985536566067;-0.5734764256805338;0.41423401483409744;0
1.0352391352546788;1.3788898910814655;1.071720067162855;0.8639313521579498;0.16112155739399628;-0.11339858009385395;0.025960156257066835;0.1673045822937128;0.03075811120923533;-3.918421357210935;0.0439736922606301;0.0657693484245946;1.0467237901575972;1.0956306928818857;0.8815576498515698;1.322964389581026;0.7694889923878981;0
0.5545188433456631;1.7383678376328753;0.30749114762541213;0.5481516546851432;0.17678999568499232;-1.8125790151307477;0.0312547025742996;0.21868386302997211;0.03844786789205681;1.5211970782421922;0.03275721423473023;0.0912613439380034;0.5598404307184266;0.31342130786699335;0.5578033809722078;1.8160443125732169;0.5401101922444389;0
0.533150494393571;2.1400370523413237;0.28424944967210913;0.45923627877161965;0.16497161622995035;-1.499324916388538;0.027215634161522017;0.20369712202183313;0.017204106909817895;-2.2317157446152702;0.02192311614153153;0.0387478331803813;0.5331868682383184;0.28428823646178586;0.4497430577523489;2.29237288907329;0.5329151259642237;0
0.8637279474565257;-3.3670659031941437;0.7460259672174628;1.214905150708961;0.10007810574061295;1.9622299834307348;0.010015627248629306;0.10091358847638948;0.01227504216698588;0.8913413186864272;0.013510757622106705;0.026511675333945203;0.6021633605561044;0.362600712796221;0.9286215505061148;-5.006025202183098;0.7161077364944509;1
0.8249485548252727;0.06119774670321654;0.680540118108306;0.9335958651094131;0.03197561368850921;-3.915784371353496;0.0010224398707567772;0.04792409134124441;0.02456419763455311;3.2372985083539945;0.019883756500458875;0.0520036708473539;0.4964973665315834;0.24650963497279746;0.7333620281196211;-4.4055577665503485;0.5306418075461353;0
0.6698757044137094;1.7566453607182222;0.4487334593637633;0.4374891085099851;0.02075287040916911;-2.4806621913442495;0.000430681630219767;0.028871087458835015;0.02553105331846765;-4.857338536406276;0.03900275313551532;0.0520036708473539;0.36592959092159316;0.13390446551204452;0.2359764213373874;3.079698499406973;0.5105496848831798;0
0.45873946111131264;1.023278195846606;0.2104418931806975;0.4981193611952447;0.16304880168872213;3.777997051241112;0.026584911732128236;0.10036441451467606;0.027825615632230016;-5.667170665125675;0.04588559192413573;0.0520036708473539;0.14697957170846054;0.021602994499602495;0.2018026627203645;-2.941859455570796;0.30624886969329707;0
0.32361825692479335;1.4957789146160234;0.10472877621504155;0.22868508380921093;0.3191100908147399;-0.7153792632171356;0.10183125005979156;0.39775179468313393;0.034028392628032554;1.4430056007369423;0.026001835423676973;0.0825940654634444;0.35857496130312344;0.1285760028735365;0.2422984490624256;2.0761547958118474;0.5387157453031024;0
0.5582046770814457;-1.342495430348059;0.3115924615156011;0.6631866162093714;0.3570833322315393;-2.0645882834559988;0.1275085061575799;0.46356724967304735;0.03785539875771707;-0.35990600387874494;0.04512083205873357;0.0825940654634444;0.6021830241386588;0.3626243945607805;0.7712850331625885;-2.208916754120727;0.6519002969100766;0
0.7047093277493257;-3.2356550791301064;0.4966152366169066;0.9732624571242264;0.1998798958974914;2.823753583342512;0.03995197278399199;0.13228218492682742;0.0377453737511565;2.66038559304949;0.03288467421229737;0.0825940654634444;0.6134509660248051;0.37632208771676656;0.8136580644368465;-2.5856783003003034;0.6744105973026373;0
1.0222609601632442;-2.6135983786109964;1.045017470673878;1.34138307166353;0.0681067811149421;2.2915897850261615;0.004638533633838634;0.05612071488312953;0.02302526070636489;0.49447570794660756;0.025109615580707696;0.0514938309370857;0.4724445809103447;0.22320388203155125;0.4725561058207741;0.19133020271781476;0.4455592143392504;0
0.9801091443684168;-1.2464233018209026;0.96061393487459;1.1436715102684103;0.12921278572780998;-1.6924491056059168;0.016695943995540936;0.16570910276839157;0.019469276887050087;2.088796962628269;0.015932497195880472;0.0453757520138676;0.4686578347556629;0.21964016607786627;0.41686048136432197;0.9764121094378861;0.4498645117145586;0
1.10341301904974;-0.5265872651890504;1.217520290608462;1.2098283047964897;0.21913986940555621;-2.8507148111506044;0.04802228236308423;0.30464338119429013;0.015398937810277302;0.37606371845236986;0.016442337106148626;0.035178953808504;0.6557428547511823;0.4299986915572302;0.520107162084394;2.0819413293244953;0.5726900801053266;0
1.510058344017558;-0.5840503583979046;2.2802762023370495;1.6818627205080858;0.203899976805281;1.3742509070146696;0.04157520054119413;0.20075956499918446;0.01579338335397543;-0.006331902223442043;0.01797185683695315;0.035178953808504;0.925451670392215;0.8564607942317409;1.2315618288535455;-2.2286321152541717;0.532402586452374;1
1.8981071418081488;1.345511611259882;3.6028107217830994;1.7943539684507888;0.13250192619096582;0.3516455426841425;0.017556760444316154;0.12888205348572246;0.011637312338649283;-2.6866832939747862;0.015550117263179326;0.0254919955134087;1.1572214584411291;1.339161503876614;1.3024658045729036;-0.863689708066337;0.47031768940904656;1
0.7785125150050367;-0.06944020338835521;0.6060817360194676;0.841446496723758;0.11268559431481391;-3.95324850974462;0.012698043166082822;0.1626978014599345;0.009899300417532233;0.19950889684762885;0.011471397981033925;0.021413276231263302;0.7362409246620217;0.5420506991471888;0.7267514018444707;0.6488365487940726;0.26150322045993063;1
0.633260002491476;-2.4362051677728207;0.40101823075550413;0.8319672012720662;0.10631374205002987;-0.7099335186483291;0.01130261174868029;0.1256805822242698;0.010277205827633957;-3.061719654822147;0.014530437442642975;0.021413276231263302;0.5906600215205521;0.34887926102265904;0.8091052935326744;-3.2192001950982245;0.18538396178125935;1
0.8391741540643086;-5.024377831164044;0.7042132608495479;1.2965403122907944;0.1300136634780331;0.7238306989425265;0.016903552690979238;0.13888004262216136;0.009082212851967994;-4.431784478496343;0.013765677577240724;0.0183542367696543;0.8084676271226268;0.6536199041052907;1.201307565676017;-4.439167693444199;0.2703894036582074;1
0.8008991298695193;1.8855686676722456;0.6414394162257532;0.6883997868395029;0.15547350072041857;-2.7981121552147687;0.024172009426261992;0.2105003622963958;0.020376594660034497;2.122740739295704;0.015805037218313476;0.0479249515652085;0.781957796892077;0.6114579961203107;0.7482736599839734;1.1773997099117377;0.31605635291514017;1
1.2653605219953943;-3.4591862043474713;1.6011372506244566;1.7746139866371333;0.13196743683361278;1.216462528287817;0.01741540438443358;0.11378882199081097;0.02839736598283806;1.3543368595026415;0.021158356276129303;0.0693382277964718;1.2092334020097406;1.4622454205360509;1.7197506028078697;-3.7022078420643254;0.41342157695049997;1
1.1977443207182354;2.0735146812403524;1.4345914578127872;1.0723005834381336;0.2752513920755894;2.937922323896892;0.07576332883954984;0.22683790167286388;0.03281378670969869;-2.0990092172891988;0.0441011522381971;0.0693382277964718;1.142337505506286;1.3049349764863243;0.9167374541463267;2.6805982964302046;0.4298915270946546;1
1.128104811541106;1.8171299887090395;1.2726204658221945;0.8126388538712606;0.29108089397182;-5.38922398178223;0.08472808683543394;0.4708933174032093;0.032044293490135885;2.2643477839603143;0.030335474660956367;0.0693382277964718;1.08710489398256;1.1817970505208333;0.7785263816349768;2.170551552261893;0.3892672343831753;0
0.8428076036514492;3.8373350863385234;0.7103246567726983;0.46683482717628655;0.24950809141394437;3.2123254450371377;0.06225428768102922;0.14864973089010552;0.017009103005620783;-1.8297874745009821;0.022178036096665573;0.0367084735393086;0.8660297072385443;0.7500074538196788;0.4841760399867465;3.850000029176563;0.2872383918369066;0
0.8558739674288579;3.8420702258452053;0.7325202481224138;0.4733962611355742;0.05796526746070517;-3.5012024686198266;0.0033599722317910856;0.08293436733202575;0.014381341897311481;0.5152395613088192;0.014530437442642975;0.0336494340776995;0.8530770074400842;0.7277403806229295;0.47767328456262526;3.8455783699046933;0.2835539003817569;0
0.7955636614615256;3.6538437640976795;0.6329215394380688;0.5658009382982665;0.05157661492476483;2.317141246344667;0.002660147207097474;0.03684150978143669;0.02560856729193373;2.727149568263876;0.02052105638829405;0.0576119098603038;0.7939087850175526;0.6302911589280465;0.5607104421633835;3.6591829470119563;0.2559720600936996;1
0.8825752157440637;2.7634617762662863;0.7789390114456807;0.671517069463587;0.05507862816249368;2.475445587621895;0.0030336552802622424;0.038699200674842976;0.027327213097593565;3.6613743351136634;0.018991536657489528;0.0576119098603038;0.8795114097526916;0.773540319885167;0.6699411933937682;2.78811948655477;0.2922309668622483;1
1.8618575416527279;1.4133841637427498;3.466513505409139;1.544551764391694;0.051475770980117894;-5.79027098054016;0.0026497549979975477;0.08515664775912402;0.04232874019826693;1.3975518481326983;0.03046293463852348;0.10349750178443962;1.6423931524852442;2.697455267330419;1.412166555468346;1.0642688004794874;0.6748021690577664;0
1.3511317106018712;-1.825113880627848;1.8255568993939384;1.696147952715048;0.04779073700396254;3.864412428923128;0.002283954543381914;0.02946413863184727;0.04898953158146821;-1.7714281984450402;0.06487712858162534;0.10349750178443962;1.1505520515697965;1.3237700233714673;1.557667841534773;-3.1039588417734603;0.7072962658610538;0
1.0043077068366757;1.499955353354956;1.008633970011542;0.6258393245289594;0.04398108523430985;3.8396839547063877;0.0019343358583876283;0.027552416312374123;0.04775833117027132;-1.5974958970376143;0.06322014887325372;0.09992862241256241;0.8171662117340821;0.6677606175998306;0.49574171262809086;1.9469627362338642;0.694237872951482;0
0.575483340141777;2.633671758488905;0.3311810747807362;0.5268012301715199;0.04174647928415762;3.164262797514457;0.0017427685326226012;0.03165580620595715;0.046937587418536264;0.6915099770672057;0.05327827062302428;0.09992862241256241;0.34702266096020723;0.12042472721990294;0.3982939428352572;0.5793520078350536;0.4357719281444687;1
0.787798198412303;3.2829867681124796;0.6206260014216705;0.6354209216552661;0.08711387855796164;1.5710652799428306;0.00758882783741129;0.06816889887142341;0.01860508221551789;-2.5145562115346145;0.025746915468542877;0.0387478331803813;0.17788605199682453;0.03164344749501696;0.2961543425597173;-5.76295768192111;0.19798561045478338;1
1.0059108403533854;-4.7756165688658285;1.0118566187404539;1.5265425437571336;0.11038151022786456;-3.918995986591579;0.01218407780018417;0.16143721082137913;0.015472612323333903;1.6338799940112594;0.009432038339961226;0.0377281533598449;0.1916317358788051;0.036722722195924117;0.30721674088701434;-5.485204587496064;0.2106903420006668;1
0.8455275546329558;2.671151670274032;0.714916845643586;0.7572122621245474;0.07370684011646927;3.757896200143133;0.005432698279954765;0.04203429063507963;0.007692784268214127;1.8048785716283415;0.00790251860915665;0.016314877128581498;0.22189316418743074;0.04923657631311009;0.35763763045920216;-5.536647742752173;0.2371434590904675;0
0.21080569164386054;3.248796586895061;0.04443903962944642;0.14625963939984432;0.035806378595851264;3.0972484118319805;0.0012820967481494358;0.02282012251827692;0.032887638264240085;3.8881824631173636;0.02064851636586105;0.06729886815539911;0.19147716641151766;0.03666350525698402;0.15357817566747944;2.78562590524637;0.19076912508357713;0
0.2021565378223278;3.1882716927063477;0.04086726578431025;0.14183806829082513;0.09639435083949029;1.1020685225691924;0.009291870873766742;0.10197849536894332;0.030988593729819162;3.2511764499815357;0.023707555827470098;0.06729886815539911;0.22124183950671353;0.04894795154831438;0.16888579572480422;3.078996081068688;0.22383748382409213;0
0.9452118440056696;3.1029869276399715;0.8934254300485982;0.7695680187896778;0.15032778088777277;-1.3817965033075712;0.022598441706642217;0.18287238737715236;0.03376767399345986;-5.629690228286866;0.05557255021923115;0.0632201488732537;0.20876530070881674;0.04358295078004268;0.18903305550550165;1.3922994353918021;0.21958134660860854;0
1.3170285828121187;1.229269045699498;1.7345642879440974;1.0604780456766738;0.1665330251592816;-1.7372928197124828;0.027733248468701916;0.2032600801259355;0.03061870595451124;-5.988913527014004;0.052513510757622076;0.0540430304884266;0.7043272834026261;0.4960769221453231;0.46427566604790205;3.1520630665178153;0.5744990895121777;0
1.3741890095913354;0.151846985297853;1.8883954340816154;1.4479924688256314;0.13342248917244473;-0.6657056201584179;0.017801560616971135;0.1555886310507031;0.030910205256223674;2.8838516182720113;0.018609156724788425;0.07137758743754449;0.7014817414460178;0.4920766335821379;0.817947254257772;-0.7170765022728904;0.5219841499590832;0
1.366212947947744;1.659163173097987;1.866537819140065;1.19391082287658;0.11131419845144414;0.48684549434890734;0.012390850776887488;0.10523510663058913;0.03496153842906322;2.1981779988546855;0.03288467421229728;0.07647598654022619;0.6057858100993805;0.36697644771776267;0.7045068378933826;0.17828454882175393;0.42395743269093805;1
0.841829183625357;-0.3188429253759555;0.708676374403335;0.8925070592982466;0.10472054083294062;-2.940859922654921;0.010966391672343584;0.1402976174679395;0.010162752039513398;-0.2566776271333602;0.011216478025899874;0.023452635872335998;0.7869653396830372;0.6193144458624381;0.8421193095331384;-0.36191681297716194;0.6094501305494641;0
0.5159747370012403;0.5562583162661667;0.2662299292234991;0.4822423631542614;0.08680790044019793;0.4218302528958713;0.007535611578835315;0.09949114238909934;0.009289725276990313;-0.8787922775429262;0.010706638115631698;0.0214132762312633;0.461176931906223;0.21268416252243702;0.4241361303249894;0.6822555368899046;0.4960201453541347;0
0.47254319773521664;0.4056834803471965;0.22329707372582405;0.4549362869848874;0.1526184570611909;3.1656994135214056;0.02329239343573857;0.09147616657077129;0.015055392128309794;-0.21702718626388773;0.015805037218313375;0.0356887937187722;0.461291404615904;0.21278975997251368;0.42420460109266644;0.6829559509861891;0.4961067315510458;0
0.488715093849434;1.0957206686222278;0.2388424429562611;0.47348541627458607;0.3029894442700305;-0.009359016534084219;0.09180260333906191;0.36274919056429933;0.02286903384521856;1.3462999339944126;0.020393596410726973;0.0540430304884266;0.46558751920026364;0.21677173803505587;0.47008001333803684;0.06590395002415228;0.4926254056226114;1
0.46036977068345397;-4.539343213927108;0.211940325759136;0.7109280686702211;0.3884479086465437;-2.29018915587214;0.15089177773187357;0.49464415219246116;0.03724623940619741;-2.9009104863228288;0.0502192311614153;0.0815743856429081;0.45774855846027274;0.20953374277245773;0.5891448724206167;-2.403400729486325;0.35066989170722307;1
0.6621325656243754;-4.162681063999781;0.43841953446031773;1.0038624511294272;0.32821860755829874;-0.30025731498403907;0.10772745434750852;0.36853938493972693;0.03417068640790469;2.1958308785223615;0.020393596410727032;0.0815743856429081;0.32429594710518245;0.1051678613088473;0.32744460273433984;0.11005313625231494;0.22593891153244797;1
3.048901979722957;3.413470203121925;9.295803281958564;1.9935397774633032;0.21883962098777407;-0.08033510313200232;0.04789077971407261;0.23408490534043436;0.03346449513583118;2.148099426213811;0.02001121647802588;0.08004486591210351;2.0843658565838323;4.344581024092453;1.4978713868700944;3.5102000873940185;0.8539707763660089;1
3.3602702345731212;-5.032331174287304;11.2914160493581;5.2136076169797425;0.1445044325439478;-1.3355261584629101;0.020881531024848354;0.17665582939115287;0.033308782105204306;1.97158606506704;0.022305496074232704;0.08004486591210351;2.1132984177594;4.466030202504384;3.317074694147371;-5.228619851858772;0.6234795565971624;1
2.4103516049725853;2.3589695931920627;5.809794859593918;2.0945313213460777;0.11376357881067393;-3.4446691735079824;0.012942151863812418;0.1574651564231635;0.02421023903240304;2.8180624517877213;0.02077597634342812;0.052513510757622;1.843174081807477;3.397290695846836;1.810476915431468;1.2897198042758564;0.47361395989387206;1
1.1508512429374964;-1.6648915512094433;1.3244585833707803;1.3986216372777855;0.15147126424101165;-4.386003967382358;0.022943543890770374;0.22364389912370664;0.021576029045740602;-0.5860919548146128;0.024599775670439424;0.049454471296012895;1.1333414804329025;1.2844629112698434;1.4050980812501201;-1.9032527128032992;0.26374558211943716;1
0.8195381233487031;0.19858782660011443;0.6716427356219142;0.8492624022109778;0.22949462594631562;1.052634086901282;0.05266778333823932;0.19140818325334186;0.01639963030735172;-2.632213837814529;0.02141327623126335;0.036708473539308596;0.7994358004569051;0.6390975990521727;0.7681393240311678;0.5229767981078126;0.20120717168673466;1
1.0889109582815635;0.5858304263390668;1.1857270750656728;1.0228364212369838;0.2774462434783045;-0.759108319256077;0.0769764180202226;0.33400470986764697;0.01148743728365545;-1.2449268795509454;0.013510757622106599;0.0265116753339451;0.9959384470043317;0.9918933902213999;0.8914985581249795;0.8276270603914408;0.24311599940949025;1
1.1741276367191669;-1.2448664960588491;1.3785757073077358;1.4412428146169352;0.3415773611973674;-1.9267830838458568;0.1166750936825568;0.42252103151368714;0.027830286057579548;2.525854738235868;0.022687876006933748;0.06322014887325371;1.1194647560555444;1.2532013400504998;1.448289099048763;-1.569546773473764;0.28623786297171133;1
0.9337142200793326;1.2010609003894341;0.8718222447783562;0.8088219066038755;0.3496571141223629;-0.5912576389124684;0.12226009745637911;0.3824168234199964;0.02703433836285858;-0.7962023479524234;0.03033547466095645;0.06322014887325371;0.9437147257739102;0.8905974836425267;0.890978380210139;0.7296316201128565;0.22892460313956553;1
1.179773725219767;-4.125993806499551;1.3918660427189267;1.747776607515923;0.3394822832300881;-1.5914713020807714;0.11524822062711378;0.40866089856196497;0.029798387266651287;-0.45799900180439757;0.03211991434689505;0.07035790761700811;1.1792516499786652;1.3906344539774043;1.768911195140833;-4.281373635301277;0.2655648121441812;1
1.320237774879799;0.9465171531499958;1.7430277822195632;1.3029356008951396;0.41159593805081546;-0.2202909161954505;0.16941121621993072;0.4381383674320303;0.034732785419090625;-3.6683946580140123;0.051238910981951574;0.07035790761700811;1.2967720793947264;1.6816178258977228;1.2683910651058277;1.0711490070490228;0.34772944400451694;1
1.44349505071132;-2.0805863407326424;2.083677961428076;1.9337735970603234;0.5472120617331637;-0.7331566886664582;0.2994410405062598;0.6305974547375237;0.03263373713838127;1.6406556432434503;0.02064851636586105;0.0795350260018353;1.4475198116348824;2.0953136050754853;2.0047507781304117;-2.433583057292532;0.33502770724077424;1
1.4083491478386196;0.9932351008109865;1.983447322217766;1.5269489615312377;0.5901024191995818;-2.3902362095457796;0.348220865145199;0.7584508472223548;0.026524744930664063;-3.504654323084699;0.03874783318038135;0.054043030488426604;1.4052824377620217;1.9748187298823703;1.4196497509057675;1.895155556457631;0.31120400256626096;1
1.2065798019074738;1.014749840957375;1.4558348183710785;1.0568773405534468;0.47556775090564996;0.13900018771284017;0.2261646857014583;0.5217279464105353;0.022563896306451527;0.3593920372057582;0.021923116141531578;0.054043030488426604;1.240283816046664;1.5383039443472752;1.002889092681591;1.6426278379879964;0.2956276876256474;1
1.0328814050117583;0.6190691948777012;1.066843996819064;0.9531258484169531;0.2659401601368139;0.5641496601825331;0.0707241687735942;0.2828289923431053;0.012961704201535239;2.0899008197708486;0.009941878250229401;0.030590394616090602;0.8799345515910182;0.7742848150836862;0.7943150939766319;0.729248901218492;0.1998035274673886;0
0.7018623839280871;-3.878313584126559;0.4926108059732175;1.0155417968269358;0.23271080607522424;1.0534615448641862;0.05415431926418062;0.20769491806218965;0.014236010923771142;2.5610028000791516;0.013000917711838526;0.030590394616090602;0.5569900494847965;0.310237915225076;0.7451313837457421;-2.9571852769221962;0.1410998294576571;0
0.8974596907207061;1.4425679118265062;0.8054338964685055;0.6749248316179819;0.2618191620819649;-3.1332612874399537;0.0685492736333022;0.3591820655113447;0.008464980391837431;1.8627021225954365;0.0058631589680840715;0.0203935964107271;0.5978451648686425;0.35741884115681427;0.5837837364220162;0.29240466601576465;0.17073048395846435;0
0.7689008062064064;-5.502038180969244;0.5912084497848618;1.2339612985573791;0.27107951454262214;-0.3406046818098325;0.0734841032046637;0.2979678110787438;0.01106090214151327;0.29039635981614786;0.011726317936168077;0.0254919955134088;0.4160643850947258;0.17310957254425233;0.6072274935409454;-3.5460116400744663;0.13210968262579376;0
1.81424948089042;2.2372293475457887;3.291501178911158;1.2082742081808102;0.1941415553395584;-1.017653469108156;0.037690943509662816;0.22620357060808072;0.02581455288514923;1.2692105545084402;0.024217395737738356;0.060161109411644806;0.4242089706325718;0.17995325076514615;0.23435813773439618;3.9708577964311935;0.14102401217211227;0
1.4973326412668093;-4.769763212469398;2.2420050386030392;2.3105482058621196;0.18422876372984254;-0.053213023804493886;0.03394023738542614;0.18948638566120168;0.02517735190399069;1.6149132454134438;0.020393596410727;0.060161109411644806;0.05106822608788101;0.0026079637157629307;0.04101800211656714;2.332873147354581;0.018423658859247464;0
1.4286830637001813;1.8438890300391257;2.0411352965037364;1.3525191635518274;0.22585639589760179;-0.8639923521639385;0.051011111567854234;0.2631291339944597;0.018288026990672803;2.149394614621322;0.015805037218313472;0.0418068726419904;0.2826671839151171;0.07990073686250264;0.18497488237549797;3.453516838967598;0.09733938758317007;0
0.492709211843315;-1.94987239219377;0.24276236743526067;0.6128705553609215;0.18595076597542498;-1.670942396534091;0.03457768736684727;0.23607842587365813;0.019246034555090115;1.6226432748545747;0.019628836545324754;0.0418068726419904;0.27672555715672675;0.07657703398370086;0.27950976995331756;1.247992265517393;0.09427036511107247;0
1.857529386288752;2.934101863334618;3.450415420926268;1.2791912169243438;0.11204606752696174;-4.601512905877442;0.01255432124825647;0.1685392312290377;0.014067640179854438;-0.35969709330868405;0.016824717038849774;0.030590394616090505;0.44467342703230156;0.1977344567086516;0.5377371076317443;-1.5092383664313438;0.14028689934846392;0
2.0983085671898922;-4.952698125930924;4.4028988431424985;3.2313824453855466;0.14747999395386807;-2.2838482226062045;0.021750348616632966;0.1922516487272974;0.014357222229355291;-0.48209347553949655;0.01707963699398387;0.0316100744366269;0.31612401330888945;0.09993439179051893;0.22606737497750817;1.4471383201596844;0.0953820334302509;0
1.9928817580580693;1.9115181006233506;3.9715777016006215;1.5692907319524312;0.14461828003363356;-1.116254760133355;0.02091444691988645;0.17502918359849984;0.02336194546771986;1.4360256106493772;0.016569797083715754;0.05710206995003571;0.7270075830740541;0.5285400258471776;0.747809962323859;0.6043361047736919;0.19976923541077563;0
0.8214184866521727;-2.8087734573498153;0.6747283302139456;1.0867688664386863;0.13545092085278818;0.8521733591799361;0.01834695195986829;0.12014990646956347;0.02491269305912487;0.6879606406486101;0.0257469154685429;0.05710206995003571;0.5762384351719765;0.3320507341694481;0.6590553641546717;-1.0276987245046278;0.14625645284824876;0
0.7972371281089679;2.953893205825164;0.6355870384354348;0.5150844470843503;0.12183728946152812;-4.208183612931551;0.01484432510333219;0.17755942459387875;0.010510619010955707;1.7854671280288894;0.006372998878352201;0.025491995513408805;0.5624460625994727;0.31634557333365;0.3610048771813643;2.1502445580668255;0.1386715867803878;0
0.41962839392709955;1.5015985661223255;0.17608798898983702;0.3127991279148792;0.13791014934991963;0.7557527011406346;0.01901920929371714;0.12475939780728629;0.022609929464753244;3.26457914392423;0.012745997756704402;0.0509839910268176;0.420465888453754;0.17679156335320467;0.28165707783013527;1.5521100764143991;0.10167710916094178;1
0.7412851820211123;0.8675249935983942;0.5495037210840735;0.813512769384543;0.145836180449074;-1.206814440204063;0.021268191527974878;0.1767981969224035;0.021684684733493192;-5.465601175376996;0.03543387376363823;0.0407871928214541;0.6614514943989404;0.43751807944259147;0.767170579130874;0.3383274305912565;0.1801853762716073;0
0.8965162320748724;-3.132249130916952;0.8037413543737265;1.2252513317012064;0.23240362024125868;0.16208602303457376;0.05401144270124319;0.24477872517403676;0.018864076679922525;-3.4293723965009715;0.026256755378810996;0.0407871928214541;0.8279672489750405;0.6855297653752966;1.0849214591958454;-2.6337010275151425;0.2573268873326829;0
1.227316862213924;1.4471918174080685;1.5063066802746325;0.9972269455495524;0.2684249087904446;-2.633219723194724;0.07205193165915852;0.3512559994939721;0.013723717058543954;-4.352546107406283;0.020329866421943524;0.0285510349750178;0.8461586811233419;0.7159845136403935;0.8302969569683394;0.2645405058614152;0.32991498984453327;0
0.9349566785922119;-4.235175138874331;0.8741439908441806;1.3670277818033956;0.29160878401936174;-0.36015994400837137;0.08503568291725076;0.311145488396841;0.01335413215600448;-4.608173073148075;0.020074946466809428;0.0275313551544814;0.6483641829519244;0.4203761137349165;0.918518025041068;-3.578490540779569;0.3222919199274742;0
0.6837719210200416;1.7128023367705456;0.46754403997543803;0.5593652620709268;0.24152306973433774;-2.3944423523008354;0.058333393213897765;0.3121459822348387;0.012258045454190025;-0.16269330212741373;0.01395686754359133;0.0275313551544814;0.46127597361351474;0.21277552383309595;0.3866291906552417;3.010380920561019;0.278489543706681;0
0.4504002066137317;0.5120784066584996;0.2028603461176922;0.42440416344503723;0.232732637909721;0.27055797634199585;0.05416448074841731;0.22881436694385626;0.029967554781466173;2.239229192631665;0.024408585704088926;0.06933822779647181;0.09844076994660257;0.009690585187679932;0.08532785332807458;2.082288559214044;0.06891018229876714;0
1.2898111721569572;3.275524319257041;1.663612859820904;0.8723829914713612;0.14374856067012365;-2.2013948640046923;0.020663648694732223;0.18465454666001802;0.03580997842647336;-5.206054054054057;0.057102069950035604;0.06933822779647181;0.3897447411668052;0.15190096326717997;0.23301633336264072;3.8649158381713704;0.24726452967207904;0
1.7272828625654115;-5.181760508608868;2.9835060873121626;2.701716122156479;0.12215235015996094;0.4859904536387578;0.01492119664960171;0.11923895348024727;0.025503889003481255;1.9515134482448495;0.025237075558274626;0.0550627103089629;0.6088140918613036;0.37065459844890386;0.8705052656130512;-3.366301207577301;0.32325825187861085;0
1.5770412032618935;-2.8966398471294337;2.4870589567857206;2.1309092605724835;0.06358229300379561;-0.02048404335241827;0.004042707983620517;0.0651354366580218;0.01348588403826572;-2.759234018967428;0.01860915672478835;0.0285510349750178;0.7274587375155044;0.5291962147876514;0.9587867913937314;-2.759488831001889;0.40525007728475276;0
0.9775392485858259;-0.8319477395640096;0.955582982525741;1.1170409503159933;0.0629239273836876;0.8045036051210079;0.003959420637387591;0.057279138336439384;0.020314844035245697;-0.769778449591966;0.023197715917201926;0.0469052717446721;0.7127531904806875;0.5080171105403992;0.8884621907609689;-2.0093768360545248;0.39193973143732314;0
1.1031557798601064;-2.5875697677704945;1.2169526746387593;1.5456842598868743;0.04526091566658795;-3.703475617465159;0.0020485504869779867;0.06388739702089397;0.02318323792194358;2.3404201692486843;0.0211583562761293;0.0509839910268175;0.813445824526573;0.6616941094397162;1.2275463267474729;-4.020972046467973;0.42113508730871724;0
1.1363900652055896;-0.35989735731222083;1.291382380297964;1.3430299397778171;0.0721733633326795;-2.19018922529175;0.005208994374750965;0.09350183867087558;0.02340640916308038;3.193859560285187;0.01809931681452025;0.0509839910268175;0.8021781751057615;0.6434898246160098;0.8369943211935096;1.1940949576836744;0.5388225355859113;0
1.304021966881842;-1.3248471551835905;1.700473290110388;1.6144412120338951;0.08561517906519789;-0.1919894660309307;0.007329958886365898;0.09555981545328451;0.02187563776172625;1.5876889523175475;0.0196288365453247;0.0509839910268175;0.8179304586136861;0.6690102351279948;0.8914943990610594;0.9743372230416103;0.5561902762151213;0
1.4064888727818528;3.5537104208104004;1.978210949259167;1.0347329834777366;0.06929141085676804;-1.8179849712829004;0.004801299618521433;0.08595456271977453;0.008546474260344836;1.3171565709654445;0.007392678698888499;0.020393596410727;0.8380779331820605;0.7023746220867143;0.5696615131012507;3.6881851234812117;0.6147344341433633;0
0.3531007304547362;1.331361308723805;0.1246801258476683;0.2645297056520605;0.13587265653042827;-1.0217977914523662;0.018461378792635732;0.16604186120819853;0.017251885709889517;3.1442421006464123;0.011981237891302073;0.0387478331803813;0.26293408685679587;0.06913433403121708;0.2748059185445747;0.891453635866732;0.2460866382788105;0
0.27161108075213397;2.053246306369095;0.07377257918734224;0.20933962428148228;0.22466503871270063;-0.25751543345962524;0.050474379619779276;0.2397897236536688;0.02000756283302599;2.821251475796835;0.015805037218313424;0.0448659121035994;0.23953884386649907;0.05737885772089902;0.3333535734865083;-3.298253992827375;0.19993066028090736;0
1.267005904371591;3.105243676937686;1.6053039617124734;0.9955489719590435;0.19590344047742156;-3.3027332725568463;0.03837815799089065;0.2753561746267357;0.02111787844792765;-3.9086536419890248;0.030335474660956447;0.0448659121035994;1.0337467199701544;1.068632281049053;0.617757018099047;3.627414357098484;0.5732040139318529;0
1.396924165165417;-4.918592937559563;1.9513971232230973;2.1756310016240317;0.1859612443946637;1.3071017501408075;0.034581584416811834;0.14622842576112927;0.02317763110870782;2.80544016649333;0.018354236769654274;0.0520036708473539;1.105893175928086;1.2229997165643083;1.8818435218808138;-5.964976373789059;0.47014650411469394;0
1.5371436655328965;2.9611064507839195;2.3628106484879092;0.9950901962487508;0.1636621379254959;-2.834073624181542;0.02678529539034404;0.2228255641137329;0.026081687697417484;1.7591974171991662;0.025237075558274674;0.058121749770572;1.1841567019667525;1.4022270948127762;0.7407351498263988;2.4666920079629033;0.39055997519252744;0
0.5550661943983478;1.5463721479589605;0.3080984801638645;0.4472415113167467;0.1370978595119796;0.8511087881823283;0.018795823082766495;0.1433413090950022;0.02801646464868106;2.0505011601650835;0.026256755378811024;0.0622004690527174;0.5070374315700321;0.257086957013135;0.3405637002734081;2.476055674249242;0.1477331294488007;0
0.5792181938427722;-1.650741667888786;0.33549371607848316;0.7003671850843687;0.05635184015227457;-1.560065335310279;0.003175529888547504;0.06761081031941063;0.02967601144255173;3.8592016548440924;0.017844396859386095;0.0622004690527174;0.5213854880632495;0.2718428271629529;0.6398756414307094;-1.7900672319206077;0.14762231805637174;0
1.0071713236135957;-1.667339548630295;1.0143940751095624;1.2532641945123375;0.050648803199227016;-2.010614532969287;0.0025653012655140286;0.06372949832862052;0.028629830041452635;1.3314626177205717;0.030080554705822295;0.0622004690527174;0.8654522210210556;0.749007546870278;1.072390801720795;-1.736488150410917;0.26546138660895224;0
0.7682148837684989;1.0023863830377397;0.5901541076434483;0.6794065158775338;0.04050008351761829;0.15273143827074165;0.0016402567649340567;0.04279803483407152;0.02467681345764814;0.891591289934162;0.022432956051799777;0.0591414295911083;0.6373472456910465;0.40621151158996316;0.5344562926947187;1.1323143386946768;0.21160471395569755;0
1.8007936412944872;0.4328519031209037;3.242857738526658;1.9356749456861384;0.1297949611825135;3.57230119550837;0.01684673194837018;0.08644174530122295;0.012267098583230747;1.642476320695426;0.009304578362394143;0.029570714795554197;0.9977005473912024;0.9954063822647048;1.2836900211369802;-2.41387455476616;0.37715366198909067;1
1.8177546456920055;-3.7309529195156497;3.304231951934869;2.627381730572707;0.1287216577940951;-5.133224184791079;0.01656926518526013;0.2017647069383286;0.005788797569848553;3.39161184840464;0.0039512593045783195;0.012745997756704396;0.7376115330859582;0.5440707737414175;0.7704420910067786;0.8452517300092488;0.34443291113182306;0
1.9191237072503033;3.5874901092441576;3.683035803730148;1.2920105437956846;0.14071655754656962;1.305174781386551;0.019801149567757036;0.12141760546312574;0.006009121786559755;-3.5699893014391098;0.008539818496991973;0.012745997756704396;0.7501712966185311;0.5627569742703281;0.506243127185543;3.3300928514029344;0.36532094404070703;0
0.3167028291269454;-1.0982572169617146;0.10030068197701118;0.399543118363886;0.0892738618495368;-3.6185208024192086;0.007969822409530182;0.12508522467532912;0.01143356969012435;1.6028571252088764;0.011598857958601022;0.0249821556031406;0.20768209724642187;0.043131853516672224;0.2852732630398995;-3.3376545299399414;0.1289165688763695;0
1.3833171932098807;3.310064483573342;1.9135664570300623;0.9900994722792607;0.09270502061028227;2.937771729856216;0.00859422084635286;0.07997774321238871;0.01083534762876528;-3.3801173731278187;0.015040277352911174;0.0234526358723361;0.2692000935703961;0.07246869037831002;0.2500002361216691;0.9291116556958272;0.1542991789145749;0
1.7345080303625628;-4.995767117731546;3.008518107392217;2.675921263090247;0.020441042923891654;-0.05802893885315186;0.000417836235816381;0.02361380995947293;0.028225982534243677;3.008888971682012;0.019118996635056548;0.06423982869379;0.4319806366832745;0.18660727046928724;0.39952806512647276;0.6244482901013697;0.22482587728030742;0
1.3481125686249344;3.556737786402774;1.8174074976845185;0.9721477273693542;0.03749732134384621;3.0781749261772546;0.0014060491079636646;0.02447431884003537;0.026214234289567633;3.6817742793286072;0.01707963699398385;0.0560823901294992;0.4605000444857985;0.2120602909714224;0.452806680373242;1.4135157827540663;0.22662336383601683;0
0.20639620883143456;2.969055126883223;0.04259939501998914;0.159012837020017;0.0656949062230201;-1.9887891972690817;0.004315820703651404;0.08460831149045189;0.02600183542367693;3.4725951231899153;0.018609156724788377;0.0560823901294992;0.16871591486781518;0.02846505992968386;0.1181664077172977;2.1530713632419243;0.07458368598482128;0
0.40866636792241073;3.7270829300184047;0.16700820027089516;0.2615659536266135;0.059467668764516826;1.6324583412770757;0.0035364036282862898;0.03942455946216539;0.027213227582507393;3.1582890845789464;0.022178036096665597;0.0581217497705719;0.34202462601480094;0.11698084480056446;0.20802275827213457;3.4152414352379274;0.15745208455758408;0
0.4000527106846758;-4.516465228078106;0.16004217132615692;0.6064508970062659;0.04555979174258911;1.5464339533072717;0.002075694623628091;0.031013603483571517;0.0060825703300953805;3.0908741889730678;0.004843479147547673;0.0132558376669726;0.31662994788319043;0.1002545238965119;0.4757885454334203;-4.16800862544576;0.15590912360827244;0
0.36297417860172976;-2.664593165016182;0.1317502543316004;0.47519483634924686;0.05701821181622561;-2.7430795028146306;0.00325107647871997;0.0782682882205179;0.006032507171509873;2.228571428578734;0.005608239012949896;0.0132558376669726;0.2782536396245829;0.07742508796432725;0.3356620628102731;-1.6196227389709286;0.1402379682877093;0
0.8707288162073636;2.4785496892725796;0.7581686713738769;0.7571005596350875;0.06257286582170989;-3.248470194836301;0.003915363537141709;0.08847852316252336;0.001766137256622046;2.8888888904872836;0.0010196798205363497;0.004078719282145399;0.755831011190015;0.5712805174765205;0.5952882363710166;2.9454009339102463;0.33685617999664214;0
0.7990865800666401;3.2282722060688265;0.6385393624425988;0.6256873644936478;0.10882422767260853;1.4749043493007523;0.011842712528539738;0.07417937844038636;0.00570777866957171;2.5864644635817484;0.0040787192821454266;0.013255837666972498;0.7244699146635015;0.5248566572525412;0.5621968239781787;3.3318170519606305;0.3181866357759241;0
0.8374861340628027;2.7928919239672787;0.7013830247474587;0.6645708428823696;0.13643285960349077;-1.0977063617761953;0.018613925179585822;0.1735961155076322;0.01379397293613614;0.4200185135428587;0.015295197308045252;0.030590394616090498;0.8101345742779542;0.6563180284405221;0.6834346480601978;2.349735747926939;0.3704322555185129;0
0.9197265353086388;-4.7912184280125825;0.8458968997508328;1.3988959274967465;0.13970630292977088;-1.8435598342697617;0.019517851078304903;0.18388048317633432;0.018783524529619122;0.09889378225359025;0.018864076679922476;0.0448659121035994;0.876433933164635;0.7681364392024319;1.2825899441322373;-4.221748080815377;0.36721327629919137;0
0.6587423851980605;-0.2548628875143475;0.43394153005642994;0.7427825132825117;0.07481848485747206;3.454163219473049;0.005597805676367776;0.0506219154649602;0.02409229601450118;-0.1482072138216335;0.02676659528907923;0.0550627103089629;0.6021681102310709;0.36260643297925915;0.6417810159896471;0.15579543839893972;0.28701109992303536;1
0.6675084350418263;-0.4463246711003137;0.4455675108519881;0.7753740621275367;0.03479758108007408;1.8196658222347057;0.0012108716490243298;0.029948759483260923;0.0270231184668107;-4.877353923876532;0.04129703273172218;0.0550627103089629;0.6244230693840159;0.38990416957895563;0.739471840702107;-0.6413112590273133;0.26840919059111795;0
0.3179325929093833;2.5313082236541504;0.10108113363408365;0.19668485965546667;0.04991793798601288;-2.6915394203456042;0.0024918005327754273;0.0654636318778089;0.029144237877634652;2.685426371933467;0.022687876006933772;0.0662791883348627;0.3034493907943554;0.09208153277346541;0.178560079244507;2.7965613414398476;0.11546482860978274;0
0.5031439517750932;-1.3341052636280715;0.2531538362078573;0.6553706312102068;0.04453020151371258;-0.11013582885500206;0.00198293884685185;0.04849555109945669;0.0283851586245167;2.6491089695655354;0.018099316814520195;0.0662791883348627;0.4608495631285308;0.21238231983575773;0.627705670588909;-2.062092437735682;0.19664444205673035;0
0.516324322075045;-3.1180787298303247;0.26659080556625475;0.7411195575414926;0.08503244995883184;2.7200893134934816;0.00723051754600124;0.07015340505437684;0.011577595139696915;-5.503958910400406;0.01860915672478835;0.0224329560517997;0.48064152264148835;0.23101627328712837;0.7308638997643548;-4.191765833743357;0.20814366326488332;0
0.7618362394405132;0.17906806081012405;0.5803944557248629;0.7606422720213915;0.12703142368436526;-4.375237363213184;0.016136982603276718;0.19038388562776387;0.010678276110536723;-5.549893293668945;0.017334556949117876;0.020393596410727;0.7228668433932527;0.5225364732773253;0.6578807512342253;0.7301303654604698;0.3860275206032668;0
0.509888395873501;-1.2703295611218515;0.2599861762464521;0.5965981457890357;0.12804920869216985;1.967289754546952;0.016396599846690865;0.12338653603668981;0.01277316027607055;-5.466188376927672;0.02064851636586105;0.0244723156928724;0.4862481945568977;0.23643730670984264;0.6367402441887051;-2.6712831837309725;0.32140390657758294;0
0.4951645260839497;0.7449172302541527;0.24518790789194247;0.4641121222994373;0.04042649855179193;3.1299235832417587;0.0016343017851580353;0.02492073493028668;0.010432010640850317;-1.3479857195017857;0.0127459977567044;0.023452635872336;0.45863268727162315;0.2103439418339905;0.430003485869757;0.9162895405937963;0.3176179433523283;0
0.3740550063784649;-2.6469688229622186;0.1399171477967934;0.4890115044463965;0.014149313163655848;-4.361206762470038;0.00020020306300320466;0.021171275689012337;0.011964050104889759;-2.5970369762382877;0.016314877128581623;0.0254919955134087;0.3156671250088369;0.09964573381134467;0.40593848351956674;-2.4236913314091453;0.28100566910693453;0
1.2505973805534192;2.729325303660225;1.5639938082470735;0.8890161448320443;0.024721352293959917;1.410249833229006;0.0006111452592420774;0.02071036973283924;0.008908835472676827;-5.485135676282503;0.014275517487508924;0.0173345569491179;1.1732729113638303;1.3765693245401582;0.8264959534775065;2.925308721357098;0.6732255690217691;0
1.411521584710958;-4.242227480473737;1.992393184104934;2.1114114491653857;0.09638554253507384;2.7678326114874565;0.009290172809780527;0.07835337033252265;0.02078236139386991;2.2066919028558925;0.013893137554807675;0.049454471296012895;1.31279516352843;1.7234311413836372;1.9823766271701686;-4.476092134287784;0.5877637452196625;1
1.3395383431245982;3.4629109557210853;1.794362972700994;0.9703850213946144;0.09744356167896909;-5.386360795098668;0.009495247712683052;0.1561669115809674;0.026243552320492917;-3.7519708604627873;0.03785561333741197;0.0550627103089629;1.2317815988669587;1.517285907307241;0.9150681388760913;3.33904972346388;0.47571776408206656;1
0.5138569944546983;0.5690765440091017;0.26404901075001586;0.5424304100544468;0.08609756937934326;-5.916237946110646;0.007412791453030826;0.14540513817060785;0.016622006105046293;1.5657777420591295;0.01593249719588042;0.037728153359845;0.5015627454243295;0.25156518759759083;0.5341515007690405;0.3477985422745018;0.16886335963037027;1
0.45063462762750134;1.6491855905039383;0.20307156761697678;0.4579193940716113;0.07260826240915973;-3.1417273978590057;0.0052719597700773965;0.10233807579737075;0.00885518199253124;-2.5252342724517884;0.011471397981033873;0.019883756500458802;0.43452967012363825;0.18881603421775786;0.45465993270899085;1.4345048302064978;0.14938978866067076;0
0.748905994670304;-1.1718086062549986;0.5608601888531175;0.9058359072793984;0.07129516292775669;0.008236473814305256;0.005083000256895371;0.08166002106250653;0.011280988109982494;0.9039506020833787;0.010834098093198703;0.026511675333945103;0.7178196364178777;0.5152650304270942;0.8629573713594025;-1.1528916489594536;0.2877769437975996;0
0.7161385409938733;-0.142245875063729;0.5128544098968336;0.7587085205382458;0.030976239346785485;1.7486381207443689;0.0009595274040693413;0.027094354492884998;0.009641008444974428;-0.35720577573688495;0.010579178138064652;0.0224329560517997;0.6894609464294483;0.47535639665139057;0.7333976915114211;-0.19032788794213396;0.2812777765663676;0
3.372391423097881;3.2368476977932836;11.37302391058415;2.2494470884173063;0.05531637179628451;-1.0137332526347151;0.00305990098870478;0.06483645303500435;0.007532011166867731;-1.9614054838493598;0.009559498317528326;0.0168247170388498;3.3415357792908456;11.165861364280877;2.2164717740491344;3.2758251507975693;0.8073893855330427;1
3.470486831181921;3.6103968702698914;12.04427884540713;2.141446011233191;0.06911650467769317;-5.095430673845845;0.004777091218861583;0.10828569926665421;0.0043560741028438234;-0.6838055920512112;0.004843479147547699;0.0101967982053635;3.4415066693896463;11.843968155453416;2.1298906695300523;3.635804749421247;0.8746763024772394;1
3.0866602700670254;0.31806811101513155;9.527471622810243;3.5399666988378167;0.1281406182881566;2.149846691833204;0.01642001805527105;0.08418161113627115;0.00756214794238374;2.026446280990589;0.006627918833486299;0.0173345569491179;3.070292726677835;9.426697427490815;3.499209340579123;0.3835237762017467;0.635062452922242;1
2.754143718517256;1.017306837667645;7.585307622248059;2.322721494177964;0.1569657975434112;-3.4932505911758867;0.024638261598439154;0.22816791248358012;0.012193597168452558;1.329453763019849;0.00968695829509535;0.0295707147955541;2.7436286088865978;7.527497943501007;2.313451754224662;1.0203646916100357;0.48459763782583104;1
1.6852743829394332;3.084815683870218;2.8401497457918876;1.3248398970299586;0.21625899141842847;0.16241192373299107;0.04676795136931592;0.21527923249674452;0.01788319961650643;-2.836713759134039;0.023707555827470125;0.039767513000917604;1.6684086317496756;2.783587362496825;1.3134282673304343;3.075240517005142;0.34560055763321257;1
0.36367426312784823;0.01412562451569066;0.13225896966158338;0.3695406634018603;0.2089120655783547;-2.5171691155044122;0.043644251144214774;0.27116141071174915;0.017171339553162378;2.83803758571905;0.009941878250229397;0.039767513000917604;0.3617712331967325;0.13087842516868461;0.36501699232185825;0.06565026391238149;0.06449217114669911;1
1.398948630083115;3.490814396709016;1.9570572696114246;1.0013183806123083;0.2627786299541371;0.08662405444695587;0.06905260836057331;0.2670750583213105;0.005608239012950083;-5.835393757227416;0.009432038339961198;0.0101967982053635;1.40536709691612;1.9750566770944433;1.0037856783631565;3.5029825428219397;0.21796558299705612;1
1.8561073290132697;-5.493056170202472;3.4451344168167743;2.9964065259143924;0.28630862283871306;-2.2010275515599975;0.08197262751180044;0.36460083596536363;0.02057126644420515;2.9024382881876285;0.01784439685938607;0.043846232283063;1.8682861829410053;3.4904932613682713;3.01403615211004;-5.47887568572291;0.25900042308263066;1
2.2664654956827155;-4.619607056502504;5.1368658431202965;3.419628027416179;0.2658676718726835;-1.0607507107976044;0.07068561894700091;0.3187175572202982;0.019246034555090087;3.299368421052563;0.013000917711838396;0.042826552462526604;2.2499525747996936;5.062286588847771;3.4147641214151756;-4.728730105347953;0.32550744610419124;1
2.976239851881774;-4.827042934469285;8.858003655929243;4.570330336014903;0.16873165658517808;1.045531039472655;0.028470371933978472;0.17247949012483876;0.025312922580414798;1.9036457669029438;0.01962883654532473;0.060161109411644605;2.9261703759876125;8.562473069307487;4.496356193087515;-4.851496950853305;0.4619966560892711;1
2.9921981523908996;2.429037094375669;8.953249783171513;2.669986636591701;0.09198134335010882;0.19324692117910303;0.008460567524490608;0.09429597021450775;0.02612152229519625;1.578808888888858;0.024217395737738304;0.060161109411644605;2.9327952616133897;8.601288046541951;2.5946828652045655;2.5132710106398157;0.6030837740941952;1
1.1603277873839422;0.532671633633127;1.346360574175315;1.1382644623492637;0.06798764043739357;-1.8875995746407437;0.004622319252244313;0.08413218888817875;0.012471119138681527;-2.0169862120851096;0.016059957173447527;0.027531355154481504;1.0798213270812347;1.166014098419479;1.0500263930789617;0.68180025625756;0.35112883542843376;1
0.7153742444550131;-2.6494401768664755;0.5117603096295809;0.9750975288288097;0.0579262434980221;-0.46298159748102385;0.0033554496857921474;0.06427929580698954;0.011988467481877915;-1.1896534158934848;0.01414805750994185;0.027531355154481504;0.6301113338123953;0.39704029299883575;0.8555170525984233;-2.4732536645880323;0.26111272997688595;1
0.5222180919898194;2.1835320964640896;0.2727117356014875;0.408540316248144;0.053269588309900445;-0.2387971872216088;0.0028376490387062824;0.056278554933963165;0.006742942019132979;0.8098786123280206;0.005990618945651076;0.016314877128581602;0.43148690404378504;0.18618094836129054;0.32169683804141114;2.632943533828655;0.21282786243347496;1
0.9597482291648564;3.2622997480351685;0.9211166633850777;0.7399715639176019;0.03590691821190948;-0.26549929881350565;0.0012893067754767566;0.037857629096779366;0.012267098583230818;2.472446659567746;0.00904965840726015;0.028551034975017903;0.3644433438853629;0.13281895090234488;0.3557177820297688;1.5979357777225864;0.22091979319952726;1
0.9081074887369445;3.638601922959925;0.8246592111001197;0.6165392838071935;0.025121557777782706;-0.14611139818260277;0.0006310926651824747;0.03004972079098378;0.01307485087720915;2.0232351134653666;0.009686958295095374;0.0311002345263588;0.32050747947916763;0.10272504440208906;0.25754562305081796;2.743682754849644;0.2002378920411689;1
1.5634473265880087;-1.8443662307618904;2.444367543015191;2.0643238919508677;0.05255880565141006;1.2066308513016626;0.002762428051502694;0.048784029955032615;0.013126933888585476;2.0083873738249967;0.010069338227796525;0.0311002345263588;0.4147135120932121;0.1719872971126868;0.3292139229303608;1.3204720359846522;0.24798963336319443;1
1.917126950350012;-2.2054326383024687;3.6753757437583374;2.44265650993413;0.04709583278905576;-4.728368756942144;0.0022180174660947;0.07293346069034301;0.013350279173714697;2.718390243638389;0.008157438564290851;0.0311002345263588;0.6168332805048475;0.38048329593837193;0.6527255448235685;-0.212930324977183;0.32347538670025516;1
1.861582540796507;2.6747496342586423;3.4654895561983783;1.2984437143775547;0.03409208543243794;3.9625605113760436;0.001162270289132647;0.019368088203288836;0.00861714920232989;1.7550381306312115;0.005608239012949949;0.0209034363209952;0.4813072805877068;0.2316566983467335;0.5655314648210403;-1.1543512182219828;0.24136710940471817;1
1.861446306513593;2.674555075730094;3.4649823520330973;1.2975775244228869;0.0014794838927396736;-0.7556899965147448;2.188872588876138e-06;0.001701743672525735;0.006844968686702255;3.3536485194670114;0.00420617925971245;0.0152951973080452;0.488235325740529;0.23837373330096048;0.5955380041204874;-1.5054353489192547;0.24607569700956036;1
0.9407740421557779;1.0257764268127705;0.8850557983941213;0.7906536921744538;0.017253479072019837;3.91977885289651;0.00029768254008862645;0.010066123866036225;0.007046127746041341;3.58197417835353;0.004588559192413523;0.0152951973080452;0.662236392911379;0.43855704009627433;0.5693343989530748;1.3550924251711969;0.38919795421672027;1
0.5625657204424955;-0.3859919607123281;0.31648018981698406;0.6256752733463717;0.05442150020907949;2.6752952001079393;0.002961699685006839;0.032627340571832364;0.0069532893326124615;3.1186842409678945;0.0053533190578158255;0.0152951973080452;0.3223677591350794;0.10392097212977258;0.436650681313014;-2.9889139728128864;0.2409424065717272;1
0.5747592930252261;0.17068809929953943;0.3303482449188578;0.633311747936222;0.06889367786445266;-4.617124461427519;0.004746338849690975;0.10447780705061105;0.0016909476855085474;-0.049586773746948865;0.002039359641072675;0.0035688793718771997;0.358425079169328;0.12846853737753902;0.2936772677728745;2.767856469041792;0.29953324943753884;1
0.32172284116646765;-4.10593767552583;0.10350558652822417;0.4747692145082753;0.08173950132784441;2.315010098600622;0.006681346077324679;0.058077142332351395;0.001996420944983772;-0.7684310003725567;0.0022942795962067747;0.0045885591924136;0.10368545697965892;0.010750673989080702;0.14154707853698834;-2.3837113949934707;0.09881320990802905;1
0.20920769375761444;1.5176915316251414;0.043767859127379787;0.20520203400230064;0.05152062013567135;-2.089163877309275;0.002654374299164144;0.06735115767785183;0.0020126303120780627;3.103205697872312;0.0011471397981033995;0.0045885591924136;0.10924448165576467;0.011934356772236704;0.1679344973052479;-4.633965971375433;0.10499109877183052;1
0.19496279188434076;1.9247859786222055;0.03801049021933677;0.11919438070271815;0.05373827249918005;-1.3276560971723637;0.002887801931196131;0.0653747183709582;0.0005098399102700128;4.000000302040075;0.00025491995513409957;0.0010196798205364;0.09141703514973426;0.00835707431556775;0.06601423888028912;2.852995508817166;0.09181377288936379;1
0.5864260790903429;3.5617653782131065;0.3438955462372732;0.4372253953386174;0.03183784418666586;1.8852990373086573;0.001013648322454413;0.03172081577756769;0.0014420450314813272;1.5000000042492747;0.0015295197308045749;0.0030590394616090994;0.4815141600852332;0.23185588636258758;0.36680458022576223;3.4600921912071527;0.3825130604947399;1
0.6009763467830271;-3.2388582437236604;0.3611725693926733;0.8712115026464882;0.015548523681270972;-3.797190306280786;0.0002417565886670442;0.0226070827863053;0.008786421912722697;3.535648289861733;0.004843479147547673;0.0193739165901907;0.4916898437074036;0.241758902405011;0.6960519285187396;-2.8901988077627436;0.359273574205805;1
0.7121109602678699;-3.0383036556306084;0.5071020197336278;0.9599249830116465;0.06353737143253912;2.8197030886424947;0.004036997568556439;0.05609389344757132;0.008707174098398877;-1.7109942857080984;0.010961558070765775;0.0193739165901907;0.5085898935643094;0.2586636798357555;0.7205912832990591;-3.0547656800286482;0.37582063656051307;1
0.6653539562554872;-0.08105734245707019;0.44269588710482877;0.6974840493033285;0.06299003312113037;-4.26087099303918;0.003967744272601102;0.09219282786780869;0.008266903874751931;-0.488925836525274;0.009049658407260176;0.0193739165901907;0.4469040445154306;0.19972322500424997;0.4784757064819827;-0.3950712568462684;0.31165216499053405;1
0.4973532026479633;1.470613296298719;0.24736020818418605;0.49981407307163805;0.1034369489885253;1.7219835765577152;0.010699202416054786;0.08015289680269855;0.006920501662332289;-0.15811653461409136;0.008029978586723826;0.0152951973080453;0.32248002212396565;0.10399336466907338;0.3898672556612639;-0.5522311375931661;0.23969527012297817;1
2.7287995694848743;3.509581849124217;7.446347090420836;1.9800072049463369;0.15526671287661667;-0.9597546657191725;0.024107752127509725;0.19282791163418245;0.005172216373860114;-2.8132111655098324;0.007010298766187476;0.0112164780258999;1.7505142554596227;3.0643001585673573;1.2047135230715116;3.4807391500531715;0.8199380619031231;1
2.6912852740642705;0.005828860826406768;7.243016426395195;3.158610865523084;0.2956365549850179;0.5035021928153878;0.0874009726434095;0.2987266238065258;0.004969304754159986;1.0337950139113392;0.0050983991026818005;0.0112164780258999;1.5712428145918198;2.4688039824064236;1.1708596125388533;3.24601646548507;0.6509715926396984;1
2.513010048316614;0.946967261885213;6.315219502940269;2.4784439829553886;0.29536721803183474;-3.910148596385117;0.08724179348786541;0.42368608517411377;0.004969304754159986;1.0337950139113392;0.0050983991026818005;0.0112164780258999;1.4907926771572335;2.2224628062656313;1.0599778007275646;3.6630848694003184;0.5947182685160869;1
2.1606995321411717;2.1342975811825777;4.668622468195077;2.1140664678993266;0.2675678400299032;1.3182514255928268;0.07159254901826788;0.23775633153194087;0.004265626728531277;2.4142857144059686;0.0035688793718772274;0.0096869582950954;1.4525627547522946;2.109938556493575;0.9217524202536116;3.7741228745147346;0.5676854307168006;1
0.6988030817837839;3.644767843421935;0.48832574711051385;0.44095686331277545;0.17526869197488654;-2.564835660652612;0.030719114386587653;0.22777625509052535;0.004755470099464271;2.7039239001690767;0.003823799327011372;0.0107066381156317;0.16430689487906425;0.02699675570479987;0.1873242978306524;-0.6312334134814197;0.08810755341478271;1
0.3041444283857995;1.9856944672469652;0.09250383331812473;0.28183573879859297;0.17774022960731245;-0.3581916543511863;0.031591589220860146;0.19067549392579553;0.020035151649973104;3.3246804397888816;0.012363617824003324;0.0448659121035995;0.2175983111254516;0.04734902500464883;0.2222841347064195;0.033518415110973976;0.11453721621300096;1
1.166989787012497;2.9835267691044045;1.3618651629914729;0.8347584999378463;0.14528695145156634;-1.9769664204540174;0.021108298262089795;0.1812953649605653;0.02414976989015513;-5.257522139109417;0.038492913225247276;0.0469052717446722;0.4987758875715445;0.248777386022782;0.44371186386256145;2.3345328551679696;0.22457805442329457;1
1.3871401324922632;2.5479881808089466;1.9241577471706532;1.1253577501927383;0.10798212407585718;0.15055703732203263;0.011660139119933815;0.12240722255825487;0.021700661663075316;2.4086894629096474;0.020138676455592974;0.0469052717446722;0.42728544210737857;0.18257284903689794;0.4688568108821447;-0.2235809105476374;0.17944912955573994;1
1.6059857436750073;-5.347353153827973;2.579190208887366;2.550535862647427;0.06194578559149722;1.4104538474223514;0.003837280352547745;0.05446585310164842;0.006174467939426127;-3.4983471072934638;0.008667278474559025;0.013255837666972595;0.3441975388259527;0.11847194573384323;0.44050118360647517;-2.0936473831558366;0.1327336690040666;1
1.4275323037153331;0.14029622047758394;2.037848478150806;1.6253098344762147;0.04576853737785778;-1.5058112505413241;0.0020947590137083646;0.055522100634703975;0.005559749091790318;0.7599734623015202;0.005225859080248821;0.013255837666972595;0.2808723196427959;0.07888925994152492;0.3993714533913115;-3.847575958440075;0.10662229182593065;1
1.1839199082632044;1.8848752438148377;1.401666349181954;0.7553436313121106;0.0464396576941294;-1.777516530665725;0.0021566418067479123;0.05731319112675326;0.00716804211582328;1.7470432164424174;0.006118078923218126;0.0168247170388498;0.21044418047917388;0.04428675309755111;0.18525395314008053;2.553988534744118;0.08440745478463912;1
0.5431200895246301;-3.6956544147744843;0.29497943164524215;0.7935566956955307;0.06483563293832992;1.3925661030380798;0.004203659298513851;0.05712725168481203;0.017219209274314806;1.7685685260712418;0.017079636993983877;0.037728153359845;0.23607958076044314;0.055733568452026594;0.3748770659419809;-5.325397873269157;0.09234838083871885;1
2.3052026890322592;3.5384411188870537;5.313959437521559;1.7207274871841651;0.048436557810491616;2.6168248834836056;0.0023461001325290965;0.034868670948570823;0.018812908463997264;1.1007473356202127;0.018481696747221353;0.0433363923727949;1.7104178398203245;2.925529186775625;1.1452306033931978;3.7840007923606613;0.5141399320752787;1
2.2950810713466003;-4.428827667729992;5.267397124053458;3.4099153699427296;0.04557407840537213;3.1685971626506344;0.002076996622499006;0.032277686970654695;0.02065113883261113;-0.020179654292018512;0.024727235648006503;0.0438462322830631;1.6860738729417055;2.8428451050166426;2.473042374697629;-4.040562345906423;0.42631747734670755;1
1.7231954463710182;1.2475548235300717;2.9694025463938125;1.542719681090177;0.07099638236630144;0.9658861429751724;0.005040486309102078;0.06086440182250685;0.039646131838073;1.5732451913373673;0.024599775670439483;0.0968695829509533;1.3228718501465104;1.7499899319100516;1.2692747518453875;0.5383674731494708;0.29971104961590855;0
1.117842640989031;-0.19706426488525253;1.2495721700133318;1.1810427817051679;0.10795449353350732;1.0937861971479865;0.011654172674076075;0.112735900119465;0.026950477162106867;3.979692188763444;0.014148057509941882;0.0550627103089629;1.0277788788272182;1.0563294237633338;1.086077150492744;-0.2084295894641759;0.2235749466384525;0
0.6456552831056727;-0.1731191400565706;0.4168707446022663;0.6933323892423613;0.2187450225817281;0.6120146202689014;0.047849384904280735;0.23286811894565806;0.02557460443166595;0.26705467515328607;0.02963444478433771;0.0550627103089629;0.63096304475425;0.39811436384555376;0.7824790304642555;-1.3028657366837617;0.1563743571101531;1
0.7323036082482499;0.6917422875273438;0.5362685746534063;0.72391971992477;0.282229241298859;-2.4909788216625;0.0796533446441296;0.36644644825830297;0.024479727607341302;0.7980743370327019;0.025810645457326427;0.0550627103089629;0.7357090524485483;0.5412678098547409;0.5760546968426512;1.6275728334530086;0.2142762883758506;0
0.6543899407212218;1.3161301942165196;0.4282261945171241;0.6609768898871451;0.2736168407120915;-0.7543702555176885;0.07486617552126605;0.313199741592187;0.01177309849238532;-4.244599138278893;0.017908126848169725;0.023452635872336102;0.5702929308544828;0.32523402698259596;0.42912735656003687;3.5335600875427424;0.17343847818148223;0
0.805640544121443;-5.776762910525076;0.6490566863322947;1.3428264630769498;0.19642264362273426;-0.5407675929314983;0.03858185492774367;0.2216072456616034;0.007634487361559164;1.8811225470173607;0.0077113286428062006;0.016314877128581703;0.7365815471182053;0.5425523755550489;1.2280787158404851;-5.747641275815941;0.24600466903849103;0
0.7491761343249809;3.9640001683056987;0.5612648802421217;0.40013393474469194;0.12260293204173457;-0.16758154220311283;0.015031478945230187;0.14287887701814395;0.008825778982766692;-4.173016365968042;0.01300091771183853;0.018354236769654402;0.6651066946709058;0.4423669152960575;0.4774100274630628;3.5649717502497644;0.2518926558900221;0
1.1168762613365693;1.5761574235811615;1.2474125831371523;0.7238377202492057;0.1271614047755546;1.7783777132990028;0.016170022864492442;0.09507167167676345;0.0077377060180363446;1.2803944031425463;0.006882838788620348;0.018354236769654402;0.9685618813042972;0.9381121179157196;0.6334683294779282;1.6995574613983262;0.41243759194440194;0
0.9914377321513446;-2.935772889694748;0.9829487767334012;1.4023321472165535;0.17649323056332103;-1.6766081806272641;0.0311498604346776;0.22961051151756617;0.01007283335898682;1.0591311082482129;0.008412358519424873;0.024472315692872504;0.6630035188567508;0.43957366601643394;1.0344450382476977;-4.9080777154884085;0.3940102429466954;0
1.2607510334357745;-0.3806236362819302;1.5894931683093734;1.3510184146818673;0.17442050756706806;-1.3529806602721273;0.030422513459953643;0.22376950052556288;0.01017978935581527;1.7378329101515106;0.007647598654022654;0.024472315692872504;0.5321554486662284;0.28318942154515486;0.4824854241628733;1.3455067232063467;0.35745696322062265;0
0.7510134272146395;1.285074782916288;0.5640211678566786;0.6549976784407859;0.17021249830727456;1.5308183611509172;0.028972294580003943;0.1185372551639352;0.016929960783674564;-0.03223141583409195;0.019883756500458802;0.0367084735393085;0.3474793182135731;0.12074187658616957;0.4297626249859794;-1.9146892929653934;0.31261665765868824;0
0.6403900958399189;-5.052884562949446;0.41009947484986053;1.0075549969458455;0.11874115470400383;-4.570087441686882;0.01409946182044017;0.1801167435055515;0.016700662133332475;0.12885630432308837;0.019118996635056576;0.0367084735393085;0.36304725969490825;0.13180331277198215;0.4938183986496376;-3.056482716672102;0.3204666032403541;0
0.7750915445244629;-5.613274876278102;0.6007669023933175;1.267081455214503;0.10918530299750313;1.854641971820005;0.011921430390656568;0.10644370398595449;0.019778897462293013;-5.828200571737635;0.032884674212297224;0.0367084735393085;0.4114667079206556;0.1693048517270621;0.6614628574693957;-5.3892165925202224;0.3820527276227078;0
1.216711231328386;-1.5034904559787599;1.4803862204406375;1.5583292141917302;0.06444323106304453;-1.7086384703654538;0.004152930029844948;0.08187227790264628;0.015561953303016693;-0.7169946332737638;0.019118996635056475;0.0336494340776995;0.8314884864956492;0.6913731031748255;0.9082565573731713;1.0877020270631093;0.6281153882600086;0
1.0754174272023618;1.5064933261891298;1.1565226427305473;0.6984133280360137;0.06427021865447378;-1.6667134529726546;0.00413066100589387;0.0812649946414955;0.013173879185808405;0.532171288748323;0.012491077801570275;0.0316100744366268;0.7334232416727872;0.5379096514258196;0.49557937215721104;2.1872442319219108;0.4999274999108786;0
1.5769349344544066;-1.6839654807023337;2.4867237875027235;1.9193245212899694;0.14380410099948368;1.802305388514851;0.020679619464269706;0.10144252489900729;0.02337121571349863;2.0442036640985464;0.0183542367696543;0.0550627103089629;0.7337044551081309;0.5383222274455192;0.49135985475236454;2.207259369947689;0.5005991217510468;0
1.5387361037285598;-0.7620172564468124;2.367708796917749;1.7130117877859683;0.2946944004037759;-0.4539825302290854;0.086844789629341;0.3360706345090589;0.018056780170957163;0.024951397119874485;0.020138676455592974;0.0407871928214541;0.951496243439344;0.9053451012791834;0.6373034631373665;1.4705820557685794;0.7209893820405646;1
0.9695585952510899;1.34666315369825;0.9400438696252668;0.8006115714765133;0.40314697586490666;-1.1688012661433795;0.16252748414901966;0.4747839219861011;0.027314923987657794;0.5188428360658488;0.026256755378811048;0.0652595085143264;0.6178540109460073;0.3817435788420689;0.991460338316127;-5.419782803878162;0.784937219541869;1
0.6715779875512798;2.2911437283081586;0.45101699336342693;0.5547173642405812;0.4219973018567833;-1.9343594867160494;0.17808172277440507;0.5236108813920344;0.02895334121444002;-2.2893451114716754;0.03696339349444265;0.0652595085143264;0.5248886373678926;0.275508081637923;0.43356776719641166;2.4262708783992597;0.8731061136456084;1
0.6022642018475679;1.9374299931763517;0.362722168827088;0.5179874699561962;0.26709718230445983;1.7622667900134914;0.07134090479498185;0.21121242915232152;0.02294279596206785;0.14685078494128057;0.02523707555827465;0.0520036708473538;0.4313876324970245;0.18609528947138787;0.384129163330725;1.7727349827297019;0.7818742225329903;0
0.6322090400283832;1.3956835737462576;0.3996882702936098;0.6460436429464531;0.2544818875768106;1.6170473820197788;0.06476103110465647;0.20426211980302006;0.014525218845614713;-3.472895698847587;0.020138676455592898;0.0316100744366268;0.4175815616507878;0.17437436063071068;0.37245461567058163;2.0189270002882953;0.7411683357271374;0
0.9542541010876379;-1.7891171415221905;0.9106008894425758;1.1963127826820803;0.4172746558292062;-2.5414554566543934;0.17411813839738247;0.5464163942633647;0.016259017761906715;2.141177175818248;0.014530437442642924;0.0367084735393085;0.802103786409467;0.6433704841724038;0.9207121032412993;-0.5343935008970178;0.8172329964040349;0
0.892967948039853;0.26481940231990286;0.7973917562265056;0.8754955720790457;0.426166653911575;-0.8011365572863838;0.18161801690618815;0.4856593950268968;0.023875536808337042;-4.528100749202201;0.0359437136739063;0.0489446313857448;0.7499470434481147;0.5624205679765684;0.6018442381835766;1.1991898003878774;0.6894311469310814;0
0.983763097283523;-2.526029330329136;0.9677898315768703;1.3142141744205236;0.32978523336705795;-0.8732640224550128;0.10875830014696486;0.3774822586386033;0.03314090142346897;1.5509742982890131;0.023962475782604208;0.0805547058223717;0.862620183321132;0.7441135806729834;1.1768215489334652;-2.4667117273224903;0.6742192716971691;0
0.5666954708186747;1.1376807167212526;0.3211437566463993;0.5450436735210493;0.25147781753850795;-0.9254693716486582;0.0632410927139311;0.2917380232961174;0.03321272126688751;1.0953269943295716;0.027786275109615552;0.0805547058223717;0.48317470000535284;0.2334577907252627;0.39881290932306923;2.8168275609596094;0.2902005368858666;0
1.0017692820954442;0.08710500392106546;1.003541694550022;1.1243228843899724;0.22677475850754605;-0.1186005979574265;0.05142679109615583;0.2346307403453275;0.03365973229801037;0.6769333358661154;0.0316100744366269;0.0805547058223717;0.42904034510688793;0.1840756177294375;0.5394790415478874;-1.8244867635249413;0.2870734624727229;0
1.2142660608314737;2.660767548817933;1.4744420664871845;0.9126833792474065;0.14529352390903352;-0.4385855595185042;0.021110208089904894;0.15648210986615174;0.04133897356691741;1.4590223353780125;0.03594371367390638;0.0978892627714896;0.48253482871691605;0.23283986092486353;0.4222156890877615;1.0437842689923489;0.25648600022380025;0
1.3165745111510978;-3.791976984038799;1.733368443412752;1.8892113162852344;0.10887461738231514;-0.9305177233058828;0.011853682310145518;0.13136318876180098;0.03515924432936971;-4.830026716789124;0.053788110533292424;0.07137758743754449;0.6456507112768018;0.4168648409722402;0.6744963282150227;0.2868658376876052;0.39066318602491074;1
1.3024966903898132;-3.371797803011459;1.6964976284764168;1.8250972964874226;0.11292659190805725;-1.4060935018974519;0.0127524151599689;0.14490619764529145;0.0452686930017224;-4.955839644979331;0.07010298766187407;0.0907515040277352;0.643024195290505;0.4134801157290016;0.6151885801658548;1.079005436652368;0.3937843157212395;1
1.1501109537525116;-3.006617609019738;1.322755205941512;1.6102461809683208;0.0842926139481358;-4.49951537965295;0.007105244766209456;0.12725809629755158;0.05990058457118406;-4.735504728988296;0.09202610380340562;0.12032221882328929;0.6756353546447814;0.45648313244597954;0.7519356689456267;0.3443002684463998;0.4256365818581186;1
1.7302273617573745;2.1041055876401984;2.993686723373884;1.1572234617196242;0.10902569829504484;-5.153984686948299;0.011886602888722142;0.17169600867670276;0.07716625366580006;0.7983622070367868;0.06882838788620362;0.1866014071581522;0.9321663395498546;0.868934084589775;0.8891432663275969;2.038587565220123;0.5405240801971056;1
2.550894094155183;-3.298987559922587;6.507060679595793;3.4933882917471446;0.1773891150233154;-0.8942270641834433;0.03146689812875502;0.215799756492282;0.05290802103223345;-4.499096945149878;0.08182930559804225;0.10400734169470781;1.4318530271574346;2.0502030913799087;1.8357890401569845;-2.0012242807554124;0.5599614312763398;1
2.1486569462439538;-3.835826702312458;4.616726672642393;3.185773839812445;0.24140335673014465;-5.2312310256781025;0.05827558064058147;0.3804428153633519;0.05722635989975567;-3.621332499794603;0.08463342510451721;0.11522381972060772;1.6789914245325233;2.819012203653752;2.3196803265792574;-3.0597332218196645;0.7223617065569482;1
1.8893668568590594;-1.5095768053125962;3.5697071197974815;2.2577447328552216;0.35890814771952173;1.2186158593731218;0.128815058499458;0.2829509453522423;0.0886163756220338;-3.617103195877771;0.13102885693892113;0.1784439685938614;1.6507620768131894;2.7250154342445945;2.2245454910472278;-2.802271588235719;0.7006570519931983;0
1.9663504490712251;2.2889117812034936;3.866534088562609;1.784587688762078;0.339257116683941;-3.4429845238156602;0.11509539122070116;0.47890446495070904;0.08226558310440911;1.4124291252695524;0.08590802488018753;0.1784439685938614;1.817655694040999;3.3038722220796655;1.4171573259765273;3.0692052279839395;1.0847823915050252;0
1.3265220281275008;0.3815896975361497;1.7596606911074977;1.4431515985580943;0.4176212230491333;-0.021647167332776718;0.17440748594105396;0.42700828661931073;0.030493939454616592;3.658239388849527;0.021923116141531526;0.0632201488732537;1.1286932110666874;1.2739483647080299;1.0589307116922042;1.688294703679702;0.8567788831793105;0
1.1363008304200695;-1.9782639496517849;1.2911795772133396;1.423234940951668;0.49977962098714385;-0.2975689655633147;0.24977966955405315;0.556279463363621;0.009172396430110301;0.07925408420737234;0.010961558070765778;0.019373916590190703;1.1555802022975927;1.3353656039421455;1.4961180561925047;-2.2852886683785947;0.6637933681145349;0
1.111556055113847;2.801284326076807;1.2355568636602576;0.72304218878427;0.591415617247256;-2.2088913251043287;0.34977243232395283;0.7490337564137235;0.013743629801268361;-0.127363016578677;0.014275517487508924;0.0326297542571633;1.1586802965009186;1.3425400294994567;0.7037072077618998;3.4492226496987612;0.5663229960000493;0
0.7710213871834535;0.39120470184439604;0.5944739794942968;0.8733857414528017;0.5463557228816599;-0.8600451256210189;0.29850457592554114;0.6334365228336516;0.02150815522363536;-0.2758315309832007;0.022687876006933845;0.05098399102681761;0.7953489700091609;0.6325799840946331;0.724749297119287;2.5115504866569935;0.26512149857585166;1
0.7871387012724611;3.6301933214809985;0.6195873350408968;0.5347375794406775;0.3761157129799253;-0.20144932292519258;0.14146302955039755;0.41976924934637183;0.025558188762097065;-3.581390141736181;0.037473233404710954;0.052003670847353904;0.7935976351441887;0.6297972065064489;0.7672252559991142;2.0874400161228106;0.26329505022073985;1
1.3950977899956976;-1.8587346693677702;1.9462978436508795;1.820266372506989;0.40608586294104954;1.2631385672094346;0.16490572808057685;0.36034588409978063;0.028966804754444367;-3.5869751815357187;0.040787192821454044;0.06220046905271741;1.400994786609079;1.962786392105819;1.675855332700669;-0.8610798741638277;0.3669639769730398;1
1.125136196898662;1.4553034964403313;1.2659314615715844;0.7685341124477918;0.5837042051089342;-1.2279000729996596;0.34071059906185264;0.7218486291316191;0.030145295195461375;-4.668540443736848;0.04537575201386762;0.06220046905271741;1.1195473817549721;1.2533863399944132;1.0751150002729544;0.44544792901708874;0.25663703276396077;1
1.603275727372754;-1.3371100165684613;2.5704930579826333;1.9075702868312008;0.6154479233655562;-2.112746652861137;0.3787761463749755;0.7908813347709804;0.03235776823212487;-4.032166098482357;0.04690527174467214;0.0683185479759355;1.2247541732675027;1.5000227849361638;1.6386786606264625;-2.7243613861910596;0.293387881282471;1
1.529771959384353;1.9183052109620853;2.340202247718643;1.032872544515195;0.46233291313009445;0.9955053464561647;0.21375172256335948;0.447104332204868;0.03574216561058634;1.5000000000001155;0.034159273987967746;0.0815743856429081;0.9570396709950786;0.9159249318583683;0.8733584716404152;1.3450674558188034;0.20315677691724415;1
2.3010466828927947;1.6898502685683194;5.294815836851934;1.5106653899536475;0.2080228477420483;-0.06363494883570375;0.04327350518271141;0.22636700267648946;0.041987826524596004;2.1444826060547317;0.03747323340471087;0.0948302233098806;1.8434590586274804;3.398341300835716;1.4089994633148892;1.9201242291217735;0.35137038021916805;1
2.9453544195852897;-0.6638785671197116;8.6751126569706;3.453640577600786;0.24349145076196882;0.8825127604713341;0.05928808659416829;0.24615811704317148;0.04451693678585306;3.7043384287097574;0.02906087488528602;0.0948302233098806;2.2429775949713124;5.030948491543293;2.5341087973114282;0.023106448941307534;0.4705664841380509;1
3.154837384387068;-1.5144077282291875;9.952998921926238;4.143937610301811;0.3387064746556823;-4.832842679181942;0.11472207597368038;0.5161115688102345;0.04469830782583951;-2.4516552239434315;0.06079840929947997;0.0948302233098806;2.416255688872052;5.838291554006553;3.0331199495561236;-0.7869018074122938;0.527309313792267;1
3.3957734408775506;3.8713886259350154;11.53127726176936;1.8780500950786527;0.28224794079462073;2.8232778368295968;0.07966390008280373;0.24947169235763678;0.03982928855542855;-1.4103950155659035;0.049327011318446;0.0887121443866625;2.5580803990494743;6.543775328001118;1.3809467855618935;3.9826003449215506;0.6472196747461827;1
0.4156099642929225;-4.262892015093991;0.17273164241956432;0.6122266846329715;0.12510668623676094;1.539977983161437;0.015651682941143347;0.08400184470745575;0.025750280528576034;-4.7031925730201785;0.03989497297848478;0.0509839910268176;0.13942691811546448;0.01943986549517644;0.13959670155827242;0.22018189449969938;0.053313278657131404;1
1.4419952301585544;2.6056860331641083;2.079350243800022;1.2716154630367318;0.1384872544124314;-2.8212089697183007;0.019178719634693503;0.19416677278026917;0.020686247811428967;3.1545378494766716;0.01287345773427143;0.046905271744672204;0.569973739306707;0.32487006349927;0.3688403887127265;3.5115931295809375;0.20037876138574923;1
1.4543308639415686;-0.9626926469345509;2.1150782618130295;1.8074959485599584;0.24006314198972878;0.76640994651118;0.05763031214198069;0.22874315521881616;0.040320354421229665;1.3788299473874108;0.0313551544814928;0.0978892627714896;0.6109154891010768;0.3732177348236079;0.4325700706653284;3.6367326530709008;0.2197960864166762;1
1.9211650492731984;-1.472242898212535;3.690875146548891;2.2934748264334033;0.17526572788799982;-1.0758378913075717;0.030718075372110396;0.20261209767969213;0.03240058369012814;2.4941984280708382;0.025491995513408774;0.07443662689915351;0.6036125650507568;0.3643481286871541;0.49462165787125256;3.1587781792943836;0.21556446966518755;1
1.8389180377065322;1.9528102991356047;3.381619549402443;1.2000519669622072;0.15426804783385145;-1.160588578854954;0.02379863058246748;0.18734851196985058;0.04289528523196778;0.5106754786267409;0.04282655246252676;0.1009483022330987;0.5707435778637711;0.32574823167273853;0.3421041454703788;3.273662577288029;0.20019151531315685;1
1.9816826397919167;-4.513299768002307;3.9270660848526595;3.0377058295113204;0.14594836049823143;0.10978958325341459;0.021300923932121723;0.14936993181994085;0.04333814178815695;2.7217220255239987;0.026384215356378055;0.1009483022330987;0.46887872610681025;0.2198472597955452;0.2897432490380165;2.9853621319733357;0.1675388445328814;1
1.697021819077616;2.71020649494341;2.8798830544255014;1.3533352545906892;0.1325841345834909;-0.3400408308100733;0.017578552743253224;0.14133495858911083;0.016798303076873994;2.335879678166801;0.011089018048332802;0.0397675130009177;0.3877421632638762;0.15034398517255043;0.3955727259126065;1.7028165147264218;0.132441949477324;1
1.6873996115907115;1.185591184644986;2.8473174491964843;1.6904115756308218;0.1824417723670886;-3.584381140622547;0.033285000304444576;0.255190928312111;0.018609156724788436;-3.6694553018240743;0.026384215356378124;0.0397675130009177;0.5142749429722648;0.2644787169691262;0.5131778484260967;0.2755431180964347;0.1821116306481529;1
1.8266048074159815;1.5707659433617458;3.3364851224751746;1.76512485541884;0.12348311105552902;-0.1630834373740182;0.015248078715952114;0.1313290242696561;0.019535918454110308;0.1415150685547033;0.020266136433159977;0.04588559192413591;0.5207849265102561;0.2712169396802928;0.5510147254821547;-0.08833532987724269;0.18524423717110022;1
1.7528372109159898;-4.423596663064089;3.072438287971746;2.6470693844233026;0.10330461018466225;-1.1038506260330365;0.010671842485405023;0.11895419686774655;0.028147596088186556;0.8303986607973872;0.02600183542367703;0.0672988681553992;0.2723162080456043;0.07415611716433686;0.21010052650798272;1.3092847306283222;0.10575441328148202;1
1.1922359082838114;-1.8624568674509963;1.4214264610013247;1.5519860043183056;0.10454766213907885;-1.5859223155208166;0.01093021365874698;0.12580182686545438;0.030624365081434117;-2.9808039291841233;0.04129703273172228;0.0672988681553992;0.2559856543455764;0.06552865523073291;0.3459525015298546;-2.600176246104507;0.10868128395240709;1
0.7046168945220298;3.2939805863835865;0.4964849680458692;0.5549173354685373;0.08848798197445264;-1.989091300683496;0.007830122953911054;0.11428153233209715;0.02270696310575999;1.8512144373940593;0.01771693688181907;0.0540430304884266;0.25732278672237346;0.0662150165665681;0.13899400772985526;3.781285079430919;0.10614025931159116;1
0.6502873526201749;1.9102924285173142;0.42287364097775565;0.569371499923738;0.14680558097354854;1.3421264142435874;0.021551878604981114;0.10933657270234698;0.022733658121358795;2.018981407634648;0.016952177016416853;0.0540430304884266;0.26923714263006326;0.07248863897160103;0.45096792245458683;-5.801770890906153;0.11706208684849662;1
0.8568767605109527;-3.303551286930267;0.7342377827037447;1.1792030502281414;0.09032467064650962;-3.9980210857916614;0.008158546127400437;0.1309625099928362;0.02377325060066129;-5.094956201070961;0.03709085347200977;0.04741511165494029;0.26335712646172565;0.06935697605817735;0.19013393459920414;2.888143277697864;0.12250735610857694;1
0.9024739092550191;-4.080866042647173;0.8144591568860364;1.330359970172053;0.10178786374650674;0.3470085687939424;0.01036076920607742;0.10035243714340503;0.02423885317531828;-5.399212605196903;0.0386203732028143;0.04741511165494029;0.3245465454182149;0.10533046014289743;0.30959980201093185;1.2528468028325914;0.15569453625857277;1
1.58495206367982;0.9748928640148051;2.51207304416292;1.7233521254835575;0.1268381044887661;0.6294239194298523;0.016087904750303143;0.13156450612615989;0.03218593685098428;1.2561139478637937;0.02498215560314057;0.0785153461812991;0.7931489920032633;0.6290853235157926;0.5519165671596697;3.4842659247879517;0.34087178305397975;1
1.6141674842182412;-1.5867820065991012;2.6055366671074456;2.104047363355801;0.2846254389597631;0.8820024329677363;0.08101164050303783;0.2842073208784004;0.04388252853258431;1.8239788219737232;0.03173753441419387;0.1055368614255123;0.8115318129701553;0.6585838834626272;0.43735737830426435;3.8448152685958377;0.3545915052017901;1
1.338292445444134;1.4861570217781388;1.7910266695328403;0.8942867468628459;0.305281971747885;-3.9590782159395523;0.09319708227427648;0.4379542184259728;0.052610562902371656;-2.944572705414183;0.07430916692158653;0.10910574079738959;0.8095721377417741;0.655407046207786;0.43331926905636364;3.831449205553362;0.3532119507694429;1
1.2126803120328333;1.4886126940290083;1.4705935391920502;0.8171486429400423;0.27301194313625765;1.2974026254337439;0.07453552109503517;0.2530193067740496;0.05081269446155415;2.6173229952745167;0.04601305190170278;0.10910574079738959;1.042174046417057;1.086126743025302;0.6324918185625228;1.8927102784893766;0.49796721621809203;1
0.695246656939113;3.9194056231605607;0.4833679139850127;0.3705946252843202;0.19406054085865265;-0.9744024344170601;0.03765949351835279;0.22276511317892278;0.017115111391362327;-5.353045656440193;0.027148975221780253;0.033649434077699505;0.45435530736698704;0.20643874533254927;0.42334850397723;2.5483695787704086;0.27668028218084323;1
0.6860262219408187;-2.5703362176589284;0.47063197719039346;0.9399762516219983;0.27164924535562485;-0.04615981190578822;0.07379331250228048;0.29200817942688584;0.01720095891489483;2.975589210686767;0.013383297644539553;0.038237993270113096;0.5255649919703519;0.276218560784796;0.8026310257122088;-4.74677002115269;0.3817391301810549;1
1.2238623831395465;0.8732518480114031;1.4978391328640102;1.1658828166331043;0.23544175187535804;-3.304754445296238;0.05543281852613766;0.3392109864688477;0.02420308021087305;3.472492849060547;0.016952177016416776;0.052513510757622;0.3916112617404717;0.1533593803219642;0.5750210881832026;-4.174608519239264;0.3108976350826671;1
1.301070302318683;-2.888533931665961;1.6927839315756288;1.7306785840657102;0.1816077300597069;2.4216260442464517;0.03298136761743937;0.11782904715203024;0.024381420169821182;-2.1012922819243105;0.03224737432446203;0.052513510757622;0.47027784481419166;0.22116125132308095;0.6939126364738888;-4.36884786444468;0.3944416803320155;1
1.773183983429034;-0.4967119293812914;3.1441814390892566;2.020496766214401;0.1308366086284869;-0.8534544018342931;0.017118218157403848;0.16286964012722732;0.025137313683209844;-0.11841918175987765;0.03020801468338935;0.0535331905781583;0.8857965570250496;0.7846355404374319;0.9367622928198229;1.0498654854430622;0.6172317845270613;1
1.885340913311424;3.3737073122693317;3.554510359405955;1.4224753554438931;0.12230906363498772;-0.17894273722474985;0.014959507047267477;0.13494806603142506;0.02130781145257806;-1.5812190431793134;0.0280411950647496;0.044865912103599304;0.8326050424074036;0.6932311566422343;0.7017415518283454;1.7978679157806639;0.5501364234109636;1
2.0900304802020413;-5.648462869914931;4.368227408173575;3.4358999801119197;0.07076931406770588;0.08599472880480796;0.0050082958136135934;0.08175556781011734;0.020886849580576485;-0.6670281219153189;0.025746915468542776;0.044865912103599304;1.039689918843713;1.0809551273452467;1.6215687347680823;-4.919853236586727;0.5659347196208503;1
2.621073318866331;-5.0056266378486285;6.870025342872964;4.141103585650214;0.043762946724478564;1.4507625720901771;0.0019151955060095491;0.03472232758955318;0.022561976219964888;-4.7658293888638;0.034924033853369923;0.044865912103599304;0.7242956965432719;0.5246042560311033;0.6369836504067394;2.650235272843588;0.32258821573581614;1
2.1850520630090506;0.8344283642180752;4.774452518060108;2.145437430968732;0.04693647529878628;1.8603049379479355;0.0022030327134735747;0.044017334004073316;0.01545019635745485;0.3466154591055801;0.017589476904252024;0.0336494340776995;1.1674397402515093;1.3629155471185117;1.5107947486224038;-2.183435781814273;0.7185487130676135;1
2.0914495412628575;1.5678915930256814;4.374161183648618;1.3969608441157417;0.06936097440201403;3.129789498797763;0.004810944769996845;0.04911472829443933;0.013015072226332126;1.5674465760947012;0.009432038339961224;0.0316100744366268;1.3849041115145877;1.9179593980900098;2.2693779011809605;-5.532883726945052;1.011471498779925;1
1.0962896663236619;3.706593904488905;1.2018510324880458;0.7090022497381299;0.06218699909058681;-3.280378615058927;0.003867222855892645;0.08737849169696528;0.008707174098398881;2.2387199999998213;0.007902518609156625;0.0193739165901906;1.0590424030044014;1.1215708113613372;0.6605479100818217;3.8881803625597655;1.389820586341411;1
0.15259290502770673;-0.9511829966546035;0.02328459466479473;0.1915023476134834;0.07517482261272762;-3.5534383120195123;0.005651253954855065;0.10520917563472702;0.010921964088863811;2.8730007987258226;0.00904965840726;0.0239624757826041;0.07781266725817391;0.006054811185831291;0.06668172170663642;2.6582039099420562;0.3380710075844386;1
0.301580957154487;0.8831753416978625;0.09095107371821654;0.29908808348926763;0.14883580654799464;-0.2581351418651252;0.022152097310792086;0.17084209657486837;0.017800034198735368;1.290645665586995;0.013893137554807677;0.043336392372794796;0.29412049924227046;0.08650686807452242;0.25386694415463634;2.713188663898592;0.7600159669521568;1
0.9109456673789535;2.274782717522731;0.8298220089164872;0.756971155363459;0.2668476530721202;0.38927516762790404;0.07120766995009864;0.281910453251637;0.019672929006219655;-1.9973870412787313;0.02536453553584165;0.043336392372794796;0.6033933820790519;0.36408357353679666;0.6867060862929166;0.14112545687098255;0.8243798276347356;1
1.3320538773007284;-2.94554747090878;1.7743675320319043;1.7815993383045634;0.378202526230251;-1.3632513509687705;0.1430371508469437;0.4582130840076275;0.03402680117018048;1.3463140312571547;0.025364535535841694;0.0831039053737125;0.9752677284462667;0.9511471421487411;1.1174655697962628;-0.9096041972189699;0.7703509746386791;1
1.243749034685099;2.2122828897927977;1.5469116612801157;0.8747495213135574;0.39233573689593565;-1.9658398847588927;0.15392733044567683;0.4919070186089679;0.021558452647971866;3.7346966352867774;0.013765677577240773;0.04588559192413579;0.6842989046984914;0.46826499097155505;0.5629944864391083;1.0964524543666698;0.4152355712007966;0
0.45332366944066277;1.6321028747184148;0.2055023492751473;0.42099882462924376;0.3038948001286643;0.19523842251187595;0.09235204954524083;0.3255289227210847;0.021045954359692393;2.6902400317398687;0.018354236769654357;0.04588559192413579;0.41218653527567906;0.16989773986256862;0.5184726706728389;-1.9544136016613027;0.2085418279664728;1
0.5980170302235658;-3.0811612505663835;0.35762436843741313;0.8099387195088474;0.16045773269172478;0.3041354859272509;0.025746683980569004;0.18842521989971117;0.022106131731088847;2.240968764146798;0.019373916590190707;0.0499643112062812;0.48366143229568925;0.23392838109031758;0.5458154740736014;-0.8947460567216474;0.20952617313411614;1
0.5531693728128265;0.4098851327992641;0.3059963550181359;0.5463042002100189;0.10574930842578177;1.5360237537601868;0.01118291623253112;0.06526010525332704;0.013347033694348878;0.41898439037667856;0.013255837666972498;0.0316100744366268;0.4782729214308611;0.22874498737401064;0.5073872420144467;-0.301516983176608;0.20834797808496514;1
0.5203495369755488;0.52373814446862;0.27076364063066793;0.5229203179966673;0.16813687372516103;1.4390514120323932;0.028270008306070748;0.17922248261379936;0.014141357576367093;-0.2712109789177237;0.016314877128581626;0.0316100744366268;0.3404541125170022;0.1159090027297396;0.3668361493429799;0.877939123256045;0.14149928270691917;1
2.385292258264786;3.1555109469046805;5.689619157337924;1.7864494657463645;0.242395764933128;-2.377313354691653;0.05875570685751624;0.3129155202366922;0.009382532029395638;0.830398660796476;0.0086672784745589;0.0224329560517997;2.191035538589395;4.800636731361721;1.501351066151408;3.6489312227826147;0.6112311064472766;1
2.6657755955104543;3.4084048507810287;7.106359525619118;1.8979635920086162;0.2620252024894356;-0.7719555390613788;0.06865720673962974;0.2931100338522241;0.010281420388331018;1.1800053748984993;0.009177118384827074;0.0244723156928724;2.2750202288512003;5.1757170416821685;1.2783020508158587;3.961716424663962;0.6625414490152819;1
2.635934762635419;-0.15114790483949037;6.948152072869842;3.0683369458257577;0.24580926339235162;-1.2037830017197226;0.0604221939694905;0.2857374568475628;0.044641329446870284;3.0177654442343993;0.03466911389823597;0.0989089425920261;2.182950183304921;4.765271502790989;2.5805221512166785;0.11471064054564017;0.5643831667163456;1
2.418321880247734;0.6386355603733449;5.848280716484936;2.2589286186765496;0.25034418392683727;-1.2042968816893875;0.06267221042599412;0.2910107101507635;0.06774718630798718;-3.1047850008214315;0.09266340369124097;0.14734373406750279;1.9120127336845845;3.655792693771998;1.9073799941671101;0.16322571391774687;0.41413756316160294;1
1.803939336224175;-4.059622201613088;3.254197128776917;2.638629955280467;0.2539454653607101;-1.2046772954920009;0.06448829937726762;0.2951982123310821;0.05244395982514595;-0.6893245620312296;0.05824920974813912;0.12287141837463039;1.2854829828674394;1.6524664992417695;1.6144238606994623;-2.039967473825298;0.35204058416035516;1
1.6138311355204586;1.420510663261073;2.604450933975253;1.682862570907964;0.256613042883656;-1.2049442987321761;0.06585025377800907;0.2982999633885255;0.044692492087880994;-0.6992660019750261;0.052640970735189196;0.10043846232283068;1.1458669433416617;1.313011051843163;1.4019922798147197;-1.1385747055855937;0.25664483128507;1
2.7852406482039394;-2.9667665646121097;7.7575654684075;3.944414808457153;0.2583468713584352;-1.2051114155088918;0.06674310594069185;0.3003159633230945;0.05398427878356825;2.513572544950268;0.04244417252982567;0.12389109819516679;1.2886805697242618;1.6606976107848481;2.0356725784066954;-5.317990817758192;0.3029644867013566;1
2.4781091883314224;-0.956896364527239;6.14102514929262;2.8342190002853034;0.2591469226820389;-1.2051868747325862;0.06715712753557065;0.30124621213478964;0.02083701013890459;-3.1577448790467635;0.02880595493015195;0.0448659121035995;1.164908979139281;1.3570129296793219;1.5333713550247565;-2.292727461559032;0.2850881572407082;1
2.7537845787398805;2.0566848429735742;7.5833295061055805;2.710255718597189;0.2590131842024296;-1.205174332073554;0.06708782959068173;0.30109070982360864;0.027742975141047833;-0.45214103279585416;0.03288467421229735;0.06118078923218111;1.1843722082016739;1.4027375275605094;1.4268269046991158;-1.1345367783622073;0.24482586787669217;1
2.5401322695940984;2.6174542204056657;6.452271947033267;1.7610330789070288;0.2579456580209142;-1.2050731831847017;0.0665359624918424;0.2998494563895542;0.02813027555483257;-1.7743385121468336;0.036326093606607476;0.06118078923218111;1.1149436628556033;1.2430993713418694;1.0793426387169678;0.4141228886667143;0.2361277050307379;1
2.757701707699855;2.789127466701899;7.604918708650698;1.8747419814169546;0.25594436110735536;-1.2048785107993023;0.06550751598265232;0.29752245183262405;0.04520716301312776;-0.08659875288451957;0.047032731722239284;0.1070663811563169;0.7756741398420192;0.6016703712196563;0.853029743806557;0.09962305427295526;0.15676216394601533;1
3.1424687743720323;-4.81963894851406;9.875109997903264;4.814354316482841;0.25300932624014427;-1.2045806620203319;0.06401371916449175;0.2941096961528209;0.030949074360509168;2.0408007301063247;0.02434485571530541;0.0729071071683492;0.8415130551968371;0.708144222066715;1.0717472303453404;-0.891474117126668;0.17263252642928809;1
2.273856083026606;3.6547147433706115;5.170421486317099;1.2664113599162639;0.24914060386962783;-1.204164395716134;0.06207104049652282;0.2896111893501421;0.03089864014747411;1.4140737495289422;0.027403895176914453;0.0729071071683492;0.4003116398911172;0.16024940903231547;0.3418923280104744;3.0454262264655014;0.08940490995946741;1
2.273856083026606;3.6547147433706115;5.170421486317099;1.2664113599162639;0.24914060386962783;-1.204164395716134;0.06207104049652282;0.2896111893501421;0.03089864014747411;1.4140737495289422;0.027403895176914453;0.0729071071683492;0.4003116398911172;0.16024940903231547;0.3418923280104744;3.0454262264655014;0.08940490995946741;0
