acc_X_std;acc_X_kurt;acc_X_var;acc_X_iqr;acc_Y_std;acc_Y_kurt;acc_Y_var;acc_Y_iqr;acc_Z_std;acc_Z_kurt;acc_Z_iqr;acc_Z_range;acc_std;acc_var;acc_iqr;acc_kurt;acc_cv;hole
1.5111581346464447;2.4558500186417245;2.2835989079081225;0.9270920906060285;0.362857880508743;-1.221137846156049;0.1316658414472972;0.42245329973607276;0.05918243697626798;3.5098141179844333;0.041806872641990324;0.1274599775670438;1.493092793317016;2.2293260894552094;0.9256885629504605;2.4881617248994985;0.5914747666920803;0
1.5111581346464447;2.4558500186417245;2.2835989079081225;0.9270920906060285;0.362857880508743;-1.221137846156049;0.1316658414472972;0.42245329973607276;0.05918243697626798;3.5098141179844333;0.041806872641990324;0.1274599775670438;1.493092793317016;2.2293260894552094;0.9256885629504605;2.4881617248994985;0.5914747666920803;1
1.5111581346464447;2.4558500186417245;2.2835989079081225;0.9270920906060285;0.362857880508743;-1.221137846156049;0.1316658414472972;0.42245329973607276;0.05918243697626798;3.5098141179844333;0.041806872641990324;0.1274599775670438;1.493092793317016;2.2293260894552094;0.9256885629504605;2.4881617248994985;0.5914747666920803;0
1.5399044809432858;-1.2702320419992343;2.3713058104292104;1.8054154237896183;0.3655384159095308;-1.221903047000735;0.1336183335056491;0.4255773697764948;0.05291211503462527;1.4999999999999893;0.052513510757622096;0.1182828591822166;1.5077333165690348;2.2732597538922614;1.6989920602412902;-0.8026074024118817;0.6651995414503926;0
2.6622695610858855;1.4606162666060492;7.087679215884434;2.459083558815368;0.3626807994909517;-1.2210864160039119;0.13153736231939595;0.42224691301355266;0.05589048558820102;1.1127837843703272;0.055062710308962995;0.12847965738758022;2.6598552442172854;7.0748299201901945;2.3725716366661405;1.5871953224570792;0.9046610950480072;0
2.160635950917521;3.0520808119423926;4.668347712397259;1.491735637598719;0.35428585631984794;-1.2185169883446143;0.12551846798828792;0.4124619294472476;0.0461041139198253;0.6321460785195221;0.0448659121035995;0.1091057407973897;2.1122694316514012;4.461682151888933;1.2618450868754323;3.1207100347546515;0.5959446497947927;1
3.101036083864344;1.3913934838593907;9.616424793428706;2.5144337159514905;0.3403562108143134;-1.2136276084837156;0.11584235023987732;0.3962224190775794;0.04469951934267362;1.4148593848845916;0.032629754257163295;0.1091057407973897;2.2870916484399872;5.230788208363937;1.9635794775731266;3.0279331287399387;0.6995748324226178;1
3.1621447533043856;0.1417829622258484;9.999159440850454;3.235226008198386;0.3208969747902231;-1.205220689967355;0.10297486842951707;0.37352838190454785;0.04312092420868914;1.4641851286643277;0.031610074436626945;0.10502702151524429;2.1231576617232637;4.507798456534197;2.5938946651126287;-1.5370509899557732;0.5326733084339096;1
2.2330451548435866;2.272662320601192;4.986490663570418;1.606994533897808;0.2959172883431489;-1.1908928242642887;0.08756704154036232;0.34437981792815187;0.055116186060676385;-0.36541162098776425;0.06322014887325383;0.1244009381054349;1.2067547538922376;1.4562570360415152;1.2304639721316741;0.006921646265748649;0.37619087419621067;1
2.6031892899421116;1.918100953105876;6.776594479269316;2.510930187835974;0.26543369828145336;-1.1656056600362348;0.0704550481833696;0.3087767271483939;0.026055097464739458;2.0269823240910636;0.018609156724788405;0.06220046905271741;1.5261568638108811;2.3291547729570645;1.7434620708824053;-0.3992652473486906;0.39972549938924157;0
1.7505949853744245;-0.42270722063160093;3.0645828028180815;2.0498022479330977;0.22947816148230113;-1.11775239966253;0.05266022659729708;0.2667191095652721;0.020569160350885674;1.4549173158566422;0.015550117263179349;0.0499643112062812;1.2413069380538162;1.5408429144605407;1.5752468806084758;-2.0846888913288026;0.311398922532248;1
2.1103324746949097;-1.8569081355206443;4.453503153751942;2.6684706929126927;0.18811984118827993;-1.016434050777086;0.03538907464870367;0.2182069651787879;0.06789043764421665;2.2964977172865613;0.05837666972570618;0.1539716529009891;1.3294334853859435;1.767393392065418;1.4841014092613953;0.8354800138741556;0.3885217270169093;1
2.066495405004627;2.63168585699896;4.270403258905238;1.6215859511809625;0.1415388633272091;-0.7594435819956917;0.02003324983195838;0.16324029398896034;0.065788448180199;-5.092876246398349;0.10298766187417155;0.1305190170286531;1.3499042214746106;1.8222414071549746;1.0316894963070142;3.4453393113730932;0.4126923425463146;1
2.852824621143808;3.184592367180148;8.138608319004312;2.1721001577345818;0.12270454436524653;0.02099615027521473;0.015056405207882755;0.12460001017641531;0.0498010343833109;3.856432749542936;0.03059039461609056;0.1040073416947079;1.4236651031708445;2.0268223259864513;1.069025776677079;3.502749569278965;0.43033051806262773;1
2.688131498667718;0.49272624818207333;7.226050954129551;2.7528462654940085;0.09597879596561107;-3.4508820938489144;0.0092119292750084;0.13644462498482834;0.016762158219335535;2.7460557432275117;0.01389313755480781;0.037218313449576906;1.3429899239133858;1.803621935732882;0.8288107272986429;3.375887934754026;0.39019605977177874;1
2.576150996312321;1.1115941304646437;6.636553955800963;2.1376785970000522;0.21599554959169126;2.347718635136708;0.04665407744341676;0.20249364919458612;0.05601030960890762;2.553625155891865;0.05060161109411654;0.12134189864382591;1.2057779567154483;1.4539004809008818;0.703979808441674;3.9008214125900196;0.33355377124551766;1
1.5053229723279546;3.0165611820721274;2.2659972510182684;1.2361361317613409;0.3424444031337448;-3.900248710827764;0.11726816923762673;0.5089890806956414;0.06227338496241501;-4.632955636758808;0.09674212297338637;0.1223615784643623;1.2827626475792275;1.6454800100244693;0.7899626446952008;3.3996603244664456;0.36349590080073846;0
0.5643835228103582;-2.224768851889767;0.3185287608198301;0.732284386245263;0.43725340648692096;0.3039394802662869;0.19119054148441653;0.4315239248387799;0.04188426144820576;2.2259814383049203;0.04065973284388699;0.08922198429693079;0.2729884945303603;0.07452271814595256;0.2248451312698312;2.9717558737099488;0.09210626302653155;0
0.69995774825241;-0.686352697665038;0.4899408493385842;0.7734264408066736;0.37672498834904594;-2.1520266699839237;0.1419217168465888;0.47520830826646066;0.012526577418422493;-3.9647750525120404;0.018609156724788398;0.025491995513408798;0.41766133601954253;0.17444099160562923;0.2857393525059977;1.567966782388254;0.1344834093603754;0
0.7100637016339614;-1.2389073786772347;0.5041904603781233;0.830591209731883;0.29513191401838373;-0.22599648242998427;0.08710284667215466;0.358448519178598;0.01065695507207291;2.004057543060531;0.007520138676455575;0.025491995513408798;0.5032998690833927;0.2533107582193603;0.7062808833579379;-2.758231492030019;0.16995226487137557;0
0.8080704987490501;-0.6634968287270926;0.6529779309485386;0.8934719776771065;0.2130227278233981;1.5105358115600875;0.045378682569321545;0.1359615597503845;0.025425203958234353;3.5132626351246152;0.015167737330478201;0.056082390129499296;0.781302481393825;0.6104335674321483;0.9129610241737423;-1.0432489542018253;0.2823689795595591;0
1.2158459798139991;-0.18950030268978146;1.4782814466298635;1.2724627899799552;0.35109377077007714;1.4966587592166238;0.12326683587355147;0.3706354834602372;0.02323130741434543;3.94234963596271;0.013128377689405502;0.0479249515652085;1.2077130939815885;1.4585709173745813;1.280236569928289;-0.3191915116163866;0.5597019552272773;0
0.7429403928832973;1.1464958243678893;0.5519604273775881;0.7162227375470498;0.5951618476464321;-1.0665228882814848;0.35421762489391484;0.7093775794167783;0.022021208841984084;3.650169319461657;0.015422657285612349;0.046395431834404;0.7491608155787277;0.5612419275985845;0.4822132185341643;1.7507887380261113;0.43606420636180165;0
1.215201858493041;-0.5205727936767897;1.476715556884941;1.4208383332646157;0.7104044433255404;-1.6377187412017982;0.5046744730966709;0.8582998114008785;0.023718517592396467;2.9911054370998436;0.017207096971550973;0.0535331905781585;0.54380411073057;0.295722910847466;0.812111404631168;-4.026928062020179;0.40259513299536054;0
1.3778995014358781;-1.6408308622300112;1.8986070360572416;1.7727985818298166;0.7537558429715259;-0.819375264109917;0.5681478708137155;0.8442158053208069;0.010435124828881558;0.4339073874745907;0.010069338227796522;0.024982155603140703;0.7585516725215827;0.5754006398852904;0.9869948207446019;-2.4495616972302408;0.5032950693183263;0
1.4592157207680132;3.8310908560266625;2.1293105197365123;0.9515023899532717;0.6067021924716385;-2.259878425947795;0.3680875503498931;0.8017949974103497;0.030243936680123956;2.035726880315039;0.025874375446109925;0.06984806770674;0.6623154283442175;0.4386617266227843;0.8013529710457226;-0.5366508498933538;0.33891789940969136;0
1.5722098444892174;3.767584761956755;2.4718437951088092;0.8602005352810169;0.37276758424646195;3.1773870365942365;0.1389556718649431;0.30977249794661543;0.029892739022470645;-0.9413844109791061;0.03390435403283363;0.06984806770674;0.7759695920015885;0.6021288077111119;0.5118212811171374;3.1411512630313894;0.35198260481326815;0
0.7123291180899369;3.033935806991103;0.5074127724787874;0.42404190307443956;0.09504523119428465;-5.729106793914546;0.00903359597277502;0.15790273914223785;0.018646368098272678;1.0962682920063092;0.01618741715101455;0.044865912103599304;0.590196615325028;0.34833204474111906;0.4156168824283082;2.635912352916783;0.25652107618708225;0
0.7036453229022643;-0.026983040529502844;0.49511674044223186;0.7583419396979081;0.10233187057495197;-5.988678131321371;0.01047181173536872;0.17563663083139947;0.014500591591180681;2.595517457210697;0.012873457734271425;0.0316100744366268;0.5977375596320156;0.3572901901948374;0.7076617090653532;-1.1866683157526747;0.27127666870743417;0
0.8807620801638509;-1.864919565238738;0.7757418418545537;1.1154372244942734;0.34359940690299967;2.668209110610551;0.11806055242409315;0.313859236666582;0.003778208435372006;3.003778659441444;0.002166819618639749;0.008667278474558998;0.8567377531812238;0.7339995777260117;1.0863598618988355;-2.2420538167153357;0.3533418815921859;0
0.9519773511028161;-2.795260935491319;0.9062608770127344;1.3425867636252078;0.5845822483209584;-3.095267146069924;0.34173640505198666;0.8406430085547445;0.00804513808405193;3.7419396461347567;0.004333639237279474;0.0173345569491179;1.0615709633863053;1.1269329103049281;1.578614444474477;-4.364441896179857;0.403350288330861;0
0.7559353921850737;1.9735379415107488;0.5714383171580012;0.4769547495261497;0.640586541694844;-0.19031160113831014;0.41035111740056;0.7140903249744222;0.007782368472761143;-0.11427729374274342;0.00892219842969305;0.0173345569491179;0.9778957364474377;0.9562800713620764;0.7775339865007944;1.7187934852079518;0.2912902609876824;0
1.1274317127307025;2.2424830497072676;1.2711022668708856;1.0916293753802542;0.35746665877941847;0.6743654173184712;0.1277824121389212;0.3978199619417824;0.01891911421972004;1.840146952027018;0.017589476904252;0.0428265524625267;1.0949824500961767;1.198986566018626;1.1372967216280712;1.1050615223167153;0.2540409138044051;0
1.4041664434643812;-4.107966258364289;1.9716834009514095;2.033407580153926;0.1458281333523136;3.7397545090168585;0.021265844477020155;0.08814536247276328;0.01567291337711775;0.3428571428571363;0.016059957173447548;0.036708473539308596;1.2533576783390261;1.5709054698513938;1.7807662254356744;-3.7997597754732215;0.24835351751562512;0
1.0333223395583844;-2.876649867642703;1.067755057430413;1.3740737933380007;0.024600271510142678;0.36145302278068314;0.0006051733583727375;0.02455657600773664;0.01731204939976507;-1.160308076746876;0.022178036096665573;0.036708473539308596;0.8988315494019625;0.8078981542003326;1.2119054404168814;-3.078434555579504;0.16789789117275142;0
0.7154259924004789;2.076529242798374;0.51183435060221;0.6177716395626485;0.1583145234710343;3.553295055329041;0.025063488341860674;0.10826133614210187;0.015178622862191302;0.6054192188401029;0.01504027735291115;0.0356887937187722;0.618361423046879;0.38237084951256123;0.44233798954583925;2.2691213540134427;0.10756124997510325;0
0.7226936326497221;2.9528795532908525;0.5222860866724515;0.5090678301164946;0.2217742044874326;-3.9600101104769685;0.049183797776033565;0.3267369088905161;0.014284618870319015;0.29434054119843367;0.014530437442642975;0.0336494340776995;0.6160315040540295;0.37949481398706975;0.49697143696806556;1.8183976227105383;0.10749649275300063;0
0.8217202530403664;-5.380590777004043;0.6752241742567239;1.310205302241033;0.3061436428057553;0.46331573615254307;0.09372393003037789;0.2909951214122124;0.018746585409248683;1.0798466440250802;0.017844396859386075;0.043846232283063;0.7719451702041427;0.5958993458015027;1.073036288942884;-3.1036632382138656;0.1479258666495153;0
1.9652109989677005;0.9390083997389773;3.862054270463627;2.162350803475261;0.3225886929070078;-2.1566214983812912;0.10406346479145179;0.4127226419212844;0.01832589044112509;0.3652483968982718;0.017844396859386075;0.043846232283063;1.806195841152101;3.262343416595146;2.079318691642941;0.30168499933236426;0.40077131107489267;0
1.8774291340509828;-2.750433732432988;3.5247401533834233;2.5230418868685254;0.24751184592674264;0.7688803452808113;0.061262113874063585;0.2441436139187818;0.03102910993107557;0.3401308024947607;0.03008055470582235;0.0744366268991535;1.7010246023300946;2.8934846977322564;2.2333649633186954;-2.291498207771909;0.4645969419856239;0
1.1283041007395416;2.5981950440706605;1.2730701437456655;0.7873613229052998;0.10985188161001118;1.4926291757372745;0.012067435893259912;0.07223181878287188;0.04489969559049483;-2.8051974096346495;0.05939634954624243;0.0999286224125623;0.9742721925396908;0.9492063051560963;0.6651532756126048;2.711524378014495;0.3367229752796043;0
0.34804570751115066;-0.3711343927402382;0.12113581451693745;0.387871400634183;0.08198307059313696;-5.951683000408875;0.006721223863879279;0.13908385766138753;0.029535532493036063;1.5746568151824505;0.02243295605179972;0.0713775874375446;0.2927637576492992;0.08571061779293758;0.37199922481766823;-2.0803118137073593;0.12247652501083806;0
1.0156688539221992;3.4483004962834194;1.0315832208276334;0.6874662206194664;0.1943818809517791;1.2509245951198906;0.03778431564235163;0.209502177817102;0.09648599632223553;3.6385954321139984;0.05710206995003564;0.2100540430304883;0.7959375672096092;0.6335166108955511;0.5468242782503161;3.187910501275244;0.2746782612061048;0
1.687328332721278;-2.5288176553994095;2.847076902403968;2.2641328800394893;0.2942208951008109;-1.8874473029257555;0.08656593511392237;0.36734001492044155;0.10191018381632824;-4.657709565779923;0.1534618129907208;0.2100540430304883;1.4049464315432283;1.9738744755060509;1.8023427996362984;-1.868905475400041;0.3901185610971702;0
1.8657882633534892;0.004345011325725068;3.481165843667629;2.1121196592556273;0.3188417720236064;-1.2172720907209396;0.1016600755871534;0.3719539830746179;0.07807212356509795;3.0273274673799406;0.049199551340878916;0.17844396859386139;1.5952241959203417;2.5447402352497006;1.8714697776131488;-0.5191476346739119;0.3634334523660473;0
0.8232043928938131;1.9279013925154391;0.6776654724796715;0.6561592769591167;0.2761850423924762;-1.2369063333725823;0.07627817764133388;0.3254110310745454;0.03381254799863181;1.3383439390578165;0.025237075558274688;0.08259406546344449;0.7526634561241085;0.5665022781846877;0.662751312415832;1.4185591518079583;0.14788353728889972;0
0.655962410480168;1.198820757019952;0.4302866839629525;0.5637575811834088;0.17987223653704415;0.1672097793809897;0.032354021476838364;0.21011416105259362;0.02342121163675796;-5.579044089623175;0.0379830733149791;0.0448659121035995;0.663335224368556;0.44001361988808246;0.6128810482731151;0.9208491363991378;0.12906762776342504;0
0.7949357918133427;-1.9965851066476858;0.6319229131059061;1.0490723039637926;0.07476811277643142;1.34854197969924;0.005590270688149167;0.07681982152145628;0.032957381058502176;1.5000000000002789;0.022432956051799777;0.0805547058223718;0.7924438740774071;0.6279672935628096;1.0383891016287405;-1.835686303779232;0.16399578100515944;0
0.8817392888387315;1.583875340677423;0.777464173481832;0.6341482403850813;0.11211492684363765;3.097278075450589;0.01256975682115422;0.07396673009139831;0.03721831344957679;-0.8797388542480515;0.04665035178953805;0.07953502600183529;0.8843950289597751;0.7821545672487614;0.6273515071863298;1.6437657900544327;0.2154348720297781;0
0.8277929308508077;-5.098717559044243;0.6852411363665701;1.295795933889453;0.12054513480431395;-4.23410663763843;0.014531129524990222;0.1760813177270758;0.032560640239790876;1.4659163080320354;0.022942795962067872;0.07953502600183529;0.8334421213894945;0.6946257697062209;1.3152098629774014;-5.206367098391626;0.2387747141523487;0
0.7220036727419772;-4.384089743774108;0.5212893034529041;1.0659289928249303;0.11420633550009604;-2.65178000519159;0.013043087068360498;0.15007086670183833;0.02131391014414571;-3.4479113482610355;0.030335474660956346;0.0448659121035993;0.7282384338795029;0.5303312165792712;1.0800020322765627;-4.459015564402359;0.2147013211139215;0
0.6092292615890985;-4.423940770551651;0.3711602931763982;0.914322962988265;0.07805688394073301;-2.8204334805061695;0.006092877130537064;0.10422681428998459;0.019710879531488347;2.117449613692104;0.017334556949117924;0.0448659121035993;0.6105790902544999;0.3728068254560126;0.922658101134048;-4.559262364297837;0.18536700845228105;0
1.2123240530220059;1.7144041471170848;1.469729609535703;0.8212003048154077;0.05381519859146847;-3.633843150879043;0.0028960755994391903;0.07601534893289807;0.03873329554350129;0.2688763829732057;0.04359131232792893;0.0856531049250534;1.1985917626478428;1.4366222134872626;0.8163276119214782;1.694159390757683;0.3039922549189444;0
1.1738015178080552;-5.065240281289647;1.3778100032084943;1.8463682544778357;0.11259825147662057;2.043117234478709;0.012678366235592287;0.09123761582904111;0.04663479397033489;-5.83815952127743;0.07800550627103077;0.0856531049250534;1.1683685529873575;1.3650850756097714;1.8246297186133682;-4.94966386781981;0.2432751384621685;0
0.9927878127380967;0.8341122884096226;0.9856276411212942;0.9845184318359621;0.2812696516647138;0.61315977388956;0.07911261694758945;0.30668644717114213;0.03990562715568426;1.4396202376155358;0.042061792597124475;0.0856531049250534;0.9886081440472981;0.9773460624766434;0.89853460674715;1.439633484548045;0.1934138549899155;0
1.187192413636577;1.6674056653975082;1.4094258269962416;1.0902339417062432;0.43506409231750476;-1.4449068551769066;0.1892807644240543;0.5205374840829453;0.029139778048812463;-0.7015626822154601;0.03619863362904045;0.062200469052717304;1.0405019445839778;1.0826442966830394;0.9266651962193926;1.6452090547028426;0.20469302892359087;0
1.2640381588346004;-2.6499694975152703;1.5977924669899661;1.7072749227532364;0.30720085379938733;0.7910650773423704;0.09437236457507255;0.28342486842070014;0.02826432786171082;-1.7832835343329325;0.03721831344957672;0.0601611094116446;1.137996237265415;1.2950354360302427;1.556658785553667;-2.6650382500390943;0.24423486853090945;0
0.9600078266342835;-5.187114697940599;0.9216150271990805;1.50273600852905;0.19154264783591957;0.5432876833119931;0.0366885859399951;0.20694486989404548;0.0183990291422993;2.569075515591617;0.013000917711838398;0.0428265524625266;0.857124361471237;0.7346621710274759;1.3691080505055497;-5.449089828228658;0.1916696660020363;0
1.1483588638447761;-5.021711471735527;1.318728080170865;1.7737518289447438;0.30645815635076007;-0.21243265439763448;0.09391660159390691;0.32209398290850677;0.008850288274560178;0.9831231889719643;0.007647598654022575;0.021413276231263302;1.0208826919969827;1.0422014708190062;1.6105417749410682;-5.2646349412464755;0.22147301159913493;0
0.9618765703565116;3.0063771294769417;0.9252065366008052;0.8162584005449594;0.3068885128457323;-2.4197770037335857;0.0941805593166652;0.39460756013428533;0.01494854326514502;0.09133994693639202;0.01504027735291115;0.0356887937187722;0.8720968053492177;0.7605528379003115;0.7176402779955655;3.1889632947559825;0.17034516201683042;0
0.8105863566662433;2.59025819104313;0.6570502416134543;0.7385003200875291;0.31622907919285326;-0.4582490200120741;0.10000083052715984;0.34200861176144626;0.026518210937479397;0.1935158535392656;0.0265116753339451;0.0632201488732537;0.8292995290546202;0.6877377088902149;0.6958139796151794;3.1005824875538615;0.161297983404064;0
1.0291993292511563;-5.902180224407937;1.05925125933103;1.733058262884633;0.22429115798377308;-2.129226170797912;0.05030652354970185;0.30052468296757695;0.03443212808178454;0.8576110788583939;0.03135515448149277;0.0825940654634444;1.0471178403691221;1.0964557716192942;1.7709048145107107;-5.912437431839565;0.21997033501098953;0
0.9586264601847633;3.5979002956854593;0.9189646901663696;0.6204225924591409;0.1223468562107247;3.172977851941152;0.014968753224647748;0.09275508504128327;0.03942615464297175;1.3772239684120056;0.0418068726419904;0.0846334251045171;0.9654034964483662;0.9320039109547306;0.6245450924043587;3.616975497541219;0.22746592507463084;0
0.6953246819629585;3.180325364240023;0.48347641334688934;0.5342892763551168;0.02598323086502665;1.1507552304547168;0.0006751282861852735;0.02420394247410873;0.0413305888046859;3.9675835126845023;0.022687876006933803;0.0846334251045171;0.6893376520905471;0.47518639858970807;0.5246774537495811;3.204788131718054;0.201058341510951;0
1.2391016016282035;-1.1745318791997956;1.535372779157579;1.5570091240432462;0.04559302783932406;0.968268034042687;0.002078724187557379;0.03899532176055415;0.0413305888046859;3.9675835126845023;0.022687876006933803;0.0846334251045171;1.225048381340552;1.5007435366251063;1.5439646378581857;-1.207179215544425;0.4485414672854297;0
1.0154304294204177;1.3638863940247763;1.031098956992934;0.747627037535797;0.05479641930552145;-2.782138278746741;0.003002647568706524;0.0769092970849456;0.01868350535913513;3.8422458652913285;0.011343938003466926;0.0392576730906496;1.0054682586840313;1.0109664192210983;0.7481429022582573;1.3489679739595424;0.4290206958519086;0
0.6449959588418912;3.441029613028519;0.4160197869223707;0.4737179716562634;0.11395985091640988;2.875338436463675;0.012986847620890364;0.06808426252991889;0.019353221242130528;3.5636322979177955;0.012108697868869173;0.0423167125522586;0.6279435528048943;0.3943131055092331;0.4681405052555043;3.463815967593142;0.30429026495692757;0
1.1566748135698122;1.3430772474220358;1.3378966243467598;0.8943800930696983;0.19122557698724438;-1.1659645211195055;0.03656722129410452;0.24709414622090115;0.019297738064097264;-1.7740021493202267;0.02472723564800652;0.0423167125522586;1.134512395144815;1.287118374737225;0.8649019202484249;1.390851530824838;0.4662600815007704;0
0.7408966259756489;1.158613417933406;0.5489278103821006;0.7427660496338122;0.24852450940305074;-1.4499994399737606;0.06176443177402705;0.29555814038613326;0.017347048524529656;1.3073503806974802;0.01325583766697255;0.0423167125522586;0.7327044040300474;0.536855743685027;0.7398361367658621;1.159474984981479;0.2547928038971586;0
0.7722716315872705;-4.3109216192651765;0.5964034729544649;1.14814110381624;0.1819360570605058;-0.7477441717111404;0.03310072885872362;0.22795027681122515;0.013739491904475284;2.0480032322920767;0.010770368104415201;0.0323748343020292;0.7710525754786247;0.5945220741522202;1.141939491302114;-4.259226359773974;0.2313057070158445;0
0.7392163491189876;1.5756087488541581;0.546440810804805;0.5711084428569024;0.1141583366911139;2.128929018923401;0.013032125836081723;0.07392038963912861;0.005116953254836128;-0.6455334196170206;0.005671969001733529;0.011981237891302204;0.7397672681671712;0.5472556110515193;0.5766157729899186;1.5334429829509428;0.19026142301260726;0
0.739178111096741;1.5266424504336982;0.5463842799245461;0.5789608071849948;0.0641283550083858;1.7398789691271705;0.0041124459160815615;0.04449234194947449;0.005728140826811575;0.2602914332061843;0.006691648822269823;0.012236157846436203;0.7397587675584183;0.5472430341795499;0.5818718670091005;1.5004056296225912;0.1903450074401806;0
0.6828571353250891;1.3255025162381262;0.466293867264387;0.5468802882544579;0.07691213867924321;-0.265546712584122;0.00591547707621514;0.09094919776423549;0.0025095916905654;3.952682638672055;0.001465789742020926;0.0050983991026817;0.6857951754304373;0.4703150226436643;0.5510737870015081;1.30895685178802;0.17507243332810982;0
0.8720771286455464;-1.987592526942512;0.760518518306661;1.1249267063421247;0.10830544568043025;1.8242618952025662;0.011730069564036627;0.07501183143638268;0.002427323486130364;3.134948100264239;0.002039359641072651;0.0050983991026817;0.8761738483113389;0.7676806124647011;1.1272997913758673;-1.9513971800602938;0.24406439947221645;0
0.7452072895532973;0.9599989136054887;0.5553339044033718;0.649065079428238;0.06277231770220443;-5.46635710162999;0.003940363869706488;0.1004652735081677;0.02022936145939848;3.988523642351243;0.01096155807076575;0.040787192821454106;0.7463593568567983;0.5570522895676936;0.6522497898218131;0.9460420961451046;0.2539874426312843;0
0.5616433021236487;-3.9964300518082982;0.3154431988203561;0.8066735635496505;0.22118564842043448;3.2205987414364365;0.048923091067168044;0.13694588800733365;0.02034893651827792;-4.263144351325458;0.03084531457122465;0.040787192821454106;0.5519891432463899;0.3046920142618836;0.7993462744593578;-4.108327195598209;0.22707132627616128;0
0.5972574467580559;0.7154675071570615;0.356716457707952;0.5514080331533975;0.2811232978438475;-4.555764824139166;0.07903030859060058;0.4322358820910176;0.01809752151452931;2.2285714285740994;0.01682471703884985;0.039767513000917805;0.5614997492227032;0.31528196837715855;0.5068795493878355;0.9245343121789649;0.2769913629263409;0
0.4518162789506499;-3.3929056137959677;0.2041379499248115;0.6229368491511553;0.24993972676329707;2.4650285681267246;0.0624698670145116;0.22808731963144363;0.020059463212915313;2.5577122101390266;0.0178443968593862;0.04384623228306321;0.40788222518753614;0.16636790962393594;0.5568669906384061;-3.2573944929241296;0.2495409487018346;0
0.350435855951272;-3.8679256135037576;0.12280528913630066;0.5106496619306138;0.22740335675826273;2.143920259321204;0.051712286664925715;0.21635671858526623;0.025586988639258897;-4.142117819556734;0.03721831344957682;0.054043030488426604;0.30979709119664167;0.09597423771390033;0.428365512552461;-3.1933707358241854;0.19937136072308662;0
0.6237050825382187;0.18667521711789803;0.38900802998400613;0.6823582610406085;0.2543924741909837;-5.296125348471675;0.06471553092501033;0.4048863670077324;0.023200050231578197;2.6187919524312164;0.015805037218313476;0.054043030488426604;0.5796827493287482;0.3360320898693363;0.5925625903530432;0.8585953573835194;0.33740411001430864;0
0.6686802669456748;-1.6466498421272462;0.44713329940253893;0.8785657302979533;0.22950306695869613;-4.894302902754392;0.05267165774344776;0.3517186807892008;0.009641008444974506;1.5807629535422745;0.008029978586723802;0.0229427959620679;0.6380372333168068;0.4070915110985654;0.8799955446503553;-2.378372842126467;0.32092399950565154;0
0.3746754760783576;3.8124454302584425;0.14038171237454392;0.23547939555836406;0.29383270726654476;-2.714141135074012;0.08633765985958697;0.3951737059900654;0.009950589645767527;-1.4478614261273268;0.011853777913735077;0.0229427959620679;0.3958917560361939;0.15673028249742127;0.23180120853869068;3.6118856730308053;0.168647401506208;0
0.08722703896633432;1.3584331633716822;0.007608556326834407;0.07862098525159134;0.30341025550795453;-0.7549761672104971;0.09205778314740226;0.34982104989340146;0.006665397222745284;0.18413060811827897;0.00752013867645555;0.014785357397777102;0.13075446669894758;0.017096730561726194;0.15569760756609297;-0.33691824373979173;0.050257775607142244;0
0.08769305828733098;1.278551998687032;0.007690072471785229;0.08117295131832902;0.20215713870496518;-0.08419248368377552;0.040867508729378534;0.22516797441023817;0.019358257282034132;1.375285241739169;0.020393596410726952;0.0418068726419903;0.11689680929398594;0.013664864023114516;0.0904321526581473;1.2679587231336527;0.04434302789098955;0
0.12633670294220187;-1.5270397948456562;0.015960962510306157;0.15810417249174247;0.11169355636243496;0.8366273598681815;0.012475450532888434;0.12024571325534439;0.020026500426317168;1.0803208148303973;0.02103089629856218;0.0443560721933312;0.13695340895963384;0.01875623622566472;0.16944009993186215;-0.9899184525470588;0.04990676706860101;0
0.5649651415489351;3.1814136615800948;0.3191856111654083;0.42809751443817134;0.07195662741230384;1.050864059800988;0.005177756228553116;0.060063352092408984;0.023242493791502367;-5.6551914350552295;0.037855613337411956;0.0443560721933312;0.49542996990911914;0.24545085508415068;0.371111099435113;3.0501963415200954;0.19485829420438033;0
0.5921331867386797;2.82967226532541;0.35062171083730403;0.5242805048739614;0.12393573491188324;1.5809382512442465;0.015360066388148595;0.12456946681590042;0.02107218370340839;-3.6465583372878285;0.030208014683389326;0.0443560721933312;0.5469681881040541;0.2991741987978319;0.506134117543799;2.2305547001858113;0.210038576713253;0
0.9607439520696706;1.527574169670542;0.9230289414384495;0.5995017431156349;0.20270284919269796;-1.19856151867031;0.041088445070837656;0.24599734211945457;0.01690691461900888;2.1500488679970715;0.013000917711838476;0.0397675130009177;0.940744065796371;0.8849993973310868;0.650290861142012;1.4440858407360615;0.3165756518865869;0
1.1643507208924142;-2.0397464491487405;1.3557126012426846;1.558524355556668;0.17167035349773205;-1.2042452413337674;0.029470710270036282;0.21161725160447187;0.02597015940300204;1.500000000000183;0.01886407667992248;0.0632201488732537;1.079289671019059;1.1648661939684284;1.3974914602612984;-1.4715740880395813;0.39642486508886193;0
1.1853348691855266;-2.1888520186133107;1.4050187521070694;1.6198748771970344;0.11014082586717493;1.6344190150570341;0.012131001522703348;0.10001606157317977;0.02397151379287652;-4.982442112737125;0.03721831344957685;0.04792495156520861;1.0267406545044966;1.0541963716123222;1.3018576647398938;-1.085060608776006;0.37031417087008417;0
2.0274019138520383;1.5001865464283686;4.110358520290908;1.2653164162335178;0.08764010286995007;0.44988697581298176;0.007680787631055429;0.08950364525170551;0.023048297961606422;-5.036324061608363;0.036453553584174576;0.044865912103599505;1.0993519139088372;1.2085746306150236;0.639788801549193;3.9072691375822153;0.44409747613544814;0
1.5975360372886227;-5.585713717323569;2.5521213904358357;2.6243798358299464;0.09070961753576191;-0.5780398148495145;0.008228234713484205;0.10557345782154215;0.09375880633319918;3.097531923834289;0.07647598654022633;0.20189660446619762;0.12143937579821047;0.014747521994258989;0.1391364789054168;-1.0475207490111291;0.06149383272178487;0
1.3435757149742886;-1.4979026556890567;1.805195701868671;1.6705987399128963;0.0599924486488586;-3.9796142246024164;0.003599093894885936;0.086320603283075;0.0873737294009324;-0.27414248528431884;0.09635974304068515;0.20189660446619762;0.32954973128703635;0.10860302539135787;0.32370492041015275;1.4557580907261958;0.17943649232576295;0
1.784940556332305;0.6744693456669726;3.1860127896398787;1.9194345251203866;0.09433459300499263;-2.29912693344545;0.008899015437417604;0.12326629150671398;0.09016914361579913;-0.30796277516036596;0.09839910268175785;0.2100540430304884;0.5866947907247813;0.3442107774635949;0.5628261820774596;0.5325685519270174;0.2895767186660645;0
1.661363439407697;0.4223691025922385;2.760128477800573;1.5916150243973142;0.12384883668406828;-0.4109027702687946;0.015338534347997016;0.13325982914786105;0.0957246212058052;-1.44268705485392;0.12057713877842349;0.2100540430304884;0.6422000683213703;0.41242092775197275;0.8075992624871391;-1.312553791939349;0.3302730966607436;0
0.9652515028435823;2.223874747609365;0.9317104637417942;0.6214456831493601;0.11382532752195139;-2.760008802646171;0.012956205185479505;0.15073021612596071;0.049626745914283905;2.694742410947459;0.036198633629040446;0.1142041399000713;0.6723633516460769;0.45207247663674593;0.4124440392321569;3.863057774053125;0.3795598937321784;0
0.7264679175619515;0.6703662868864804;0.5277556352467984;0.8142269210200034;0.15850060123118145;1.302266065309535;0.025122440590645997;0.13635521963352937;0.027067970146581827;0.9248372565121272;0.023962475782604242;0.0652595085143265;0.6219397278536889;0.3868090250827206;0.530985751043412;2.832369159745607;0.33270223667444404;0
0.38142867614203674;1.9851403299306405;0.14548783498346676;0.27461236653061116;0.1504109870666838;-4.955567037528542;0.02262346503037412;0.23123462052949662;0.02823825870424213;-3.2714384588150534;0.039002753135515426;0.061180789232180996;0.2947289002450392;0.08686512463965028;0.24010974006508334;1.3022234907090446;0.2048652876014936;0
0.39484349882955005;-1.4713408958434062;0.15590138856796087;0.47017760014352195;0.1744900298318743;1.244961100459001;0.03044677051072839;0.13817956454587188;0.0235834256502487;0.9748478778327883;0.025746915468542797;0.0509839910268175;0.2911850717573762;0.08478874601434831;0.2008318186778486;1.4462158392447666;0.2064504556857062;0
0.583686517023808;-2.931780896267254;0.3406899501553841;0.7802322627279837;0.11365824729604625;-5.300823973801229;0.012918197178409205;0.1827663539392742;0.014190289755717525;-3.504095556062129;0.02039359641072695;0.0295707147955541;0.4467071987213903;0.1995473213895117;0.5162213350496068;-1.129596606856298;0.36147122619948097;0
0.4316076879659916;1.6083780550933025;0.18628519631134877;0.4022584946182941;0.2404407695642037;2.4460582362808445;0.05781176366862651;0.14516871488657002;0.021429455512930417;-3.8673577785686533;0.0316100744366268;0.043846232283062996;0.3915911244902157;0.15334360877951161;0.46935751351656707;-1.4456156451476598;0.4263299521989253;0
0.7082835376385725;-3.244008914134369;0.5016655696898112;0.9897721026147058;0.31285522757196094;-3.2723047507761347;0.09787839341910348;0.4535123816094549;0.018426675199858543;-2.0295293605908977;0.023070255939634923;0.041806872641990296;0.5758196551188709;0.3315682752212154;0.8111235311334073;-3.656004115556506;0.5286204345588891;0
0.8455258103997387;2.481144377339497;0.7149138960521348;0.6225330993126772;0.3691820945210742;-0.16967910279169907;0.13629541891496735;0.3959213966693583;0.022676416036000964;-0.26469269966937503;0.024089935760171273;0.0535331905781584;0.6402586328464173;0.40993111693436335;0.5333640039350147;2.5420694268980384;0.7866843980072501;0
1.4069881673579774;0.5344491548566985;1.9796157030853596;1.3197476940798072;0.34167371589743406;-0.4287278803533301;0.1167409281351605;0.3707626827683758;0.04226113626752282;0.34551902379682353;0.041934332619557424;0.10043846232283059;0.777174330960798;0.603999940704364;1.2862372219684555;-5.6610366766078215;0.7298593810912498;0
1.3897749933638808;1.3581602620959696;1.9314745321795748;1.051355951521726;0.41390927798443333;-1.206905877383182;0.1713208904015949;0.4894236081253;0.04110750596915721;1.3502037361957786;0.030462934638523446;0.10043846232283059;0.7018534143470223;0.492598215230573;0.9860981058418523;-2.6462606704557654;0.6025145200285169;0
0.7557304170569311;-1.2884759733340818;0.5711284632650431;0.924195373942349;0.3135902911326093;0.5197780151420996;0.09833887069263465;0.3256701070626198;0.0355534903567117;1.514236542074535;0.02689405526664622;0.08616294483532169;0.5893429513266641;0.34732511427842283;0.4011751496977982;1.5641715055847438;0.6082136007309565;0
2.1049518435946335;2.1313100896431454;4.430822263852446;1.7775011040446944;0.40465731712469144;0.40373679453706934;0.16374754430255312;0.3879466587711047;0.036740029923756704;1.9863955024922557;0.02995309472825535;0.08616294483532169;1.849186946018199;3.419492361324114;1.5624723198770107;3.0653616178959595;0.8810916383089425;0
2.6270716486287147;-5.332901721897988;6.901505447028794;4.20558871368572;0.4316028462402575;1.0994631014435132;0.18628101688269139;0.4414104064138047;0.014106850511357702;2.0102673939784914;0.012618537779137344;0.032119914346895095;2.313166085169404;5.350737337577946;3.931468321581062;-5.947576723029801;0.7903388902877501;0
2.049363623332263;-4.4192467135145055;4.199891260637542;3.1039667085467353;0.16321273521143306;1.5684494708110837;0.02663839693519736;0.13010219487969998;0.018706678708022225;0.9987018170976931;0.015932497195880475;0.04537575201386759;2.0291041457034398;4.117263634110886;3.0889430250910115;-4.516384664188754;0.630754093191043;0
1.5609259670258369;-5.608310893651915;2.436489874535544;2.534430831632786;0.07906771269582089;2.7631370978502865;0.006251703190948876;0.06946163400359029;0.013537185731979056;1.3564307630567622;0.0124910778015703;0.031610074436626896;1.5598358828128172;2.433087981310441;2.533055761479786;-5.610088826492497;0.43493426834718046;0
1.35627119589467;3.4240646389518155;1.8394715568135587;0.9026382328002658;0.09825063068533169;3.206243015529008;0.00965318643006544;0.07927848401140275;0.013031704913280295;1.7379008746568214;0.008667278474558955;0.031610074436626896;1.3551948706584382;1.8365531374589414;0.9028819161381714;3.4234085125567937;0.4453511868607014;0
0.41735317512319675;0.3306865258136238;0.17418367278541372;0.4057348964670613;0.18200933266140498;-2.089406567711489;0.03312739717584998;0.24688013981859996;0.013147544568397816;0.4644242184632823;0.0124910778015703;0.031610074436626896;0.42187786082279294;0.17798092945241586;0.4093277044516084;0.35105741420979264;0.1654795443076947;0
0.41519978780124567;0.3231603869569746;0.17239086379019944;0.404354592815376;0.21633789813189716;-1.096596215296472;0.04680208616812711;0.25256753810719607;0.015739113939464935;1.0269398343441054;0.014020597532374855;0.037728153359845105;0.404836977022613;0.1638929779648077;0.3982001769342074;0.3149743247412786;0.1581052553427114;1
0.515399982792953;-0.5048368266447376;0.26563714226297624;0.6025482974639647;0.1215267612774647;1.6274360515695587;0.014768753706589895;0.07749512920261697;0.04831299231739094;3.1534325333916904;0.03186499439176098;0.1091057407973896;0.5034699283366393;0.2534819687393007;0.6033719388187571;-0.867757929931054;0.18244675622096979;1
0.7980464151151865;1.3869394186182227;0.6368780806782006;0.6048370309551063;0.08736747923211224;1.8008970134321256;0.007633076427373565;0.056329853028804;0.05041918894569888;-3.4196903799189933;0.0701029876618741;0.1091057407973896;0.7825575340680845;0.6123962941267211;0.5946640688963223;1.3691376160392323;0.25229617164604645;0
0.9066786822482759;-2.450986015070228;0.8220662328434699;1.2230213870291573;0.11386996315017399;-0.12301691445706986;0.012966368507821983;0.12608099147258484;0.04681189286986908;-0.9351780536115015;0.05327827062302425;0.1091057407973896;0.8965419930463675;0.803787545295553;1.219219192038751;-2.485645082207565;0.309840838136107;0
1.134821376029444;-0.7133212163637896;1.2878195554933611;1.2579523048008667;0.05414010487616238;0.5147473090450028;0.002931150956001862;0.05113175740173176;0.030810533149256903;-1.0742769944660004;0.03823799327011305;0.0672988681553991;1.133958499445888;1.2858618784655702;1.2522514672007166;-0.6760898724994995;0.31558461432789414;0
1.5601757607770386;-3.541638914016966;2.4341484045162107;2.175020172216723;0.07630502952576793;0.7890630082796228;0.005822457530928316;0.07983144241113788;0.03488214231283227;-0.04622157023348983;0.04053227286631982;0.07647598654022619;1.561362081201313;2.4378515486132954;2.175676799736764;-3.5357137213615903;0.4933306241566116;1
1.4613558128936457;2.405016944574065;2.135560811878048;1.1365056547466903;0.11101954751029876;-1.9381902274994793;0.012325339929391483;0.13750719978281595;0.04625796358606605;2.142589397274925;0.032119914346895026;0.1101254206179258;1.4625875347039747;2.1391622966714503;1.1340165282275079;2.411948286844515;0.5190676549708123;0
1.7218777832480037;0.9362335783488884;2.964863100443059;1.796729436410642;0.13133216695381475;0.9263844632116882;0.017248138076784672;0.13499036695448585;0.05457192650630549;0.6371279965132981;0.059906189456510626;0.1203222188232894;1.7225473719256839;2.96716944852808;1.7961410081857332;0.9491045463850547;0.6843794689520903;1
1.0545126560754814;0.5165293987580597;1.1119969418233664;0.9964280594545991;0.05188855235633185;1.5375094110898946;0.0026924218656357913;0.03988232016667448;0.05450281641640771;1.05664807216559;0.0576119098603038;0.1203222188232894;1.0526097177182805;1.1079872178349583;0.9929525464493757;0.5259534009523446;0.80113858518183;0
1.0938064867155544;-1.1905841196228781;1.1964126303810243;1.2751641899615611;0.04543743845175527;-1.7886831131479735;0.0020645608130570483;0.058404951356850865;0.021427433770814252;-3.2582972834752404;0.029315794840420052;0.046905271744672204;1.0921317159466355;1.1927516849765427;1.2733245956033779;-1.190047152214115;0.776020240312576;0
0.9534200553250323;-2.0590663907421316;0.9090098018959877;1.2332730932228801;0.04245662890040845;1.180945436170509;0.0018025653375869984;0.03982950430483534;0.02064431972614185;-2.085098040098762;0.02587437544610985;0.046905271744672204;0.827613072971387;0.6849433985531422;1.0438679325028277;-1.289143318031508;1.0182418464535892;0
1.4659790663858414;1.3559640492536769;2.149094623081503;1.1173387645994688;0.08897403523286083;-0.6954809019912762;0.007916378945618361;0.10639815637299671;0.035269659800469935;1.3453703654414433;0.034286733965534756;0.08055470582237181;0.9436155157398075;0.8904102415449029;1.5380497306295235;-5.659285824676193;0.9653221203632374;0
1.5074277115779946;1.6377746814992324;2.2723383056332698;1.266652934686273;0.11622323971163535;-5.516996143743895;0.013507841449068253;0.1868285136000859;0.029090302495237575;-1.2097085317748082;0.034031814010400806;0.0672988681553992;0.7836707797013013;0.6141398909576455;1.135628409481497;-3.9127321607338175;0.689211909933561;1
0.6346585835865977;-1.2911147521765365;0.40279151772014643;0.7437429365913155;0.17589805543606457;1.4841404759385242;0.03094012590618884;0.12809347532509507;0.02136618565086203;0.1013664973894901;0.023580095849903185;0.04843479147547681;0.6317028083032079;0.3990484380181594;0.764544069572173;-1.6523904576336435;0.6440640458807774;0
0.6033475025739782;-1.540465041596402;0.3640282088622566;0.7233217496765946;0.17580263560279943;-4.106596917601699;0.03090656668489068;0.26025342357058123;0.04617078249686318;1.9186516388232828;0.03849291322524728;0.10808606097685321;0.5253924694012102;0.27603724690350157;0.6912882006584024;-2.461383175454076;0.49844488917475605;0
0.42949195043266797;-1.7931413654663775;0.1844633354864573;0.5637676927767591;0.3207799789255098;1.4486525203631526;0.10289979487945052;0.2719317916211858;0.04077444483151259;-4.956211296850929;0.06271030896298557;0.0825940654634444;0.4340868698876743;0.1884314106088787;0.6313860963465753;-4.1816805481907995;0.4366362997242272;0
0.4556432512510043;-4.577142593664261;0.20761077241058581;0.6951664629396987;0.34784515742671757;-4.092645251857769;0.12099625354521792;0.5062456493480304;0.04233308978186004;1.4701772313337038;0.03390435403283362;0.1019679820536351;0.3999712190726064;0.15997697608642691;0.2784236526373438;2.8276196891591887;0.3597460837560749;0
0.37257502854378594;-1.1667600552555495;0.1388121518944029;0.43431478931065126;0.2978634366307004;1.7256877100234025;0.08872262688145127;0.3051880093494488;0.03078239823959101;0.9021477089016905;0.02702151524421325;0.0744366268991536;0.41575202110031384;0.1728497430489958;0.35499082055882614;2.663462937219652;0.3655484256474462;0
0.2981860493144555;-0.8291926289936367;0.08891492000576291;0.3762592410330897;0.17036401502502788;1.4785638380904853;0.02902389761544792;0.1143712250507789;0.031957650543927414;1.7929034456797002;0.027786275109615552;0.0744366268991536;0.10968434164198328;0.012030654801435307;0.08729019697430518;2.2399028337840168;0.08107940804618888;0
0.589639276890759;2.7497772716352458;0.3476744768522572;0.5309712298797822;0.3060178608103594;1.5062078257765812;0.09364693113494853;0.3209481603888007;0.031991523373209915;0.8533770234175879;0.0316100744366269;0.0744366268991536;0.5855360112945523;0.3428524205227342;0.3434860712802743;3.607371059240112;0.3639135991934984;0
0.6266211207471694;-4.82098188237668;0.39265402896643864;0.9700029999154922;0.37348045137770797;-3.686708265700716;0.13948764756129647;0.5260356836385598;0.030162535857548755;0.5411657142856328;0.03059039461609055;0.0703579076170082;0.6537382025171721;0.4273736374303831;1.106245538438158;-5.934604074229727;0.3359452051048035;0
1.7936727362691944;1.7107389454885844;3.2172618848354193;1.84339431243169;0.2541108271258507;2.5670142233749473;0.06457231246258399;0.16160201522611195;0.022927684617789164;2.434813230175994;0.015040277352911175;0.054043030488426604;0.5909996335445042;0.3492805668497383;0.37107055515390464;3.635882924442722;0.2599052774486285;0
2.9856220230060475;-3.3860434828419432;8.913938864258723;4.345674432914981;0.08793773148895927;3.796779033975131;0.007733044619424297;0.05822784554576299;0.02890691880088109;-3.6465240109062442;0.04231671255225852;0.0591414295911083;1.0324897401471944;1.066035063509221;0.635107314564396;3.8690333719053562;0.33510477417353335;0
2.5442571834554273;2.033207690548055;6.473244615564543;1.981369480576841;0.09840326638841762;3.449580307196438;0.009683202835909881;0.056630947865006664;0.026372410865895715;-2.3249843103808203;0.03390435403283368;0.0591414295911083;0.9523748381299402;0.9070178323030298;0.8934888580302309;2.2359941257083076;0.29255328377030504;1
1.025381038934476;-3.3152304267936206;1.0514062750063455;1.40969094929636;0.03483817842134211;1.5724783744875381;0.001213698675717267;0.023230537408577057;0.030463734586038477;2.1479890744729495;0.027148975221780298;0.0688283878862037;0.9023368782047277;0.8142118417682537;1.268366992020447;-3.6657461285486956;0.24565954356024644;1
1.1587593706874304;0.722736944246936;1.3427232791559296;1.0482686412253823;0.1080622218046259;2.224658833009933;0.011677443781352164;0.08945286745039849;0.02890392124616773;0.16272673729450915;0.02906087488528597;0.0688283878862037;1.045402519005287;1.0928664267425994;0.9382959927013639;0.7576404376577486;0.23600308125571515;1
1.150041699663241;1.4095390994898906;1.3225959109643162;0.8653041115006914;0.24085357497259371;0.38317037917287244;0.05801044457707882;0.25974747191421454;0.03387782942633008;0.03688192463592088;0.036708473539308624;0.0780055062710308;1.0394102836852241;1.0803737378305982;0.6429645748612103;1.7080750697317644;0.23998371605208896;1
0.7411121818145605;0.40543392497629327;0.5492472660339381;0.808271754833159;0.5783635211493697;1.2923621329364163;0.3345043625962974;0.5559745770296127;0.0415459572042461;-1.7560401334379492;0.05251351075762205;0.09228102375853971;0.6996722904337962;0.4895413140008745;0.6459623137688117;2.5868194135198443;0.14928734500944704;0
0.7295051177079256;-3.5844999154455675;0.5321777167620544;1.0655504559382427;0.7435668834960573;-2.847641488387275;0.5528917102320392;0.997661699870565;0.04706455716403722;2.9670599262198927;0.036835933516875655;0.1045171816049759;0.718186870015571;0.5157923802627628;1.08216118022058;-4.542894656496987;0.14306494123445465;0
0.9376354083714926;0.11262275938544164;0.8791601590319758;0.949382660809897;0.7744992117495947;-0.5667950476232271;0.5998490290007435;0.8631130614886234;0.020154266789536236;-0.5639436685295749;0.0224329560517997;0.0469052717446721;0.9026805883196763;0.814832244529157;0.8193578795356373;0.7142787876994969;0.2034518998355497;1
2.605738170416183;1.6806774345988575;6.789871412763876;2.432173783556995;0.5692131208667031;-1.1440190390211065;0.3240035769668119;0.674142110848233;0.03464286219916222;-2.264057237031201;0.0451208320587335;0.0764759865402263;1.9818020494364172;3.9275393631503834;2.066249056989668;0.416118290202224;0.5473686534044404;0
3.023375002076147;-3.4226820612432913;9.14079640317894;4.353001730225381;0.5460319627992296;0.23277785002383666;0.2981509043983792;0.5403315082447996;0.03315005077230393;-1.241774961593448;0.0390027531355154;0.0764759865402263;2.054339469447527;4.220310655729947;2.4714845399162346;-0.9146653034048526;0.7153253973150617;0
1.8638753190111275;3.4612003555726467;3.474031204818832;1.3308265930190468;0.4941713400498809;-3.457212712156002;0.24420531332669504;0.6847783844988814;0.027830286057579548;-1.0951165311424749;0.03492403385337;0.060161109411644695;1.0285012231410775;1.0578147660026924;0.6523011215791983;2.636767507374781;0.5406838832618661;0
0.31491178827004107;-0.2688303637286058;0.09916943439143516;0.33480634555194655;0.39129612688217924;1.550884635869302;0.15311265891299453;0.39281218261741024;0.037115738510286385;2.0829840623798805;0.025237075558274702;0.0887121443866626;0.3611599380709299;0.13043650086739791;0.24945166122983276;3.407005401174331;0.24087391899953223;0
0.6907117490833905;-0.008453100311504258;0.47708272032183663;0.7727694416949613;0.1347944491652733;2.935643275497071;0.018169543525769452;0.0786627426839277;0.02889342735568826;1.526044366120722;0.020648516365861125;0.0703579076170083;0.2995703699725632;0.08974240656549841;0.23078054184315455;3.097764930184532;0.16428859875739077;0
0.8427230099892915;2.494235987646526;0.7101820715654116;0.6591497275331427;0.06847715137028425;1.564485696869042;0.004689120259788821;0.04288748596326197;0.030932622233338522;-1.4427410195643304;0.0374732334047109;0.0703579076170083;0.2930253931616552;0.08586388103754261;0.22388396374990016;3.3001258083749505;0.1600937381590897;1
2.025790435607447;1.7408390879568234;4.1038268889986105;1.6596135158420995;0.17459561866456097;1.225682832137565;0.030483630056860788;0.16881365831170614;0.030266847129489707;2.1209561380249156;0.024854695625573547;0.0703579076170083;0.8714873211005539;0.7594901508390199;0.8553063469389279;1.8602474731223104;0.3793459383607647;0
3.130424822643068;-2.0797540334004196;9.799559570219882;3.9251891862637547;0.27092014608706316;-1.070719939972749;0.07339772555583565;0.32788645177336373;0.04669235520396999;3.1265245198081217;0.03339451412256547;0.104517181604976;1.788038062712306;3.1970801137079765;1.970085317262706;0.1318675318252449;0.5454584564424169;0
2.114852957168481;1.5375780650255688;4.472603030444268;1.3822602416849321;0.21073938979230306;1.3812746186125455;0.044411090410032245;0.15356686989399715;0.04815401291012252;-5.784913165125943;0.08004486591210364;0.0892219842969307;1.6578863546058618;2.7485871647883133;1.10391320978214;1.5302489319373986;0.46481444245988207;0
2.9464574615383676;2.1958090966679134;8.68161157265512;1.8475236863313929;0.12494109126360774;1.9028671635581453;0.015610276286141159;0.11756787845675798;0.0432783717388128;3.2747526176143538;0.026256755378811003;0.09737942286122159;1.5484455137128645;2.397683508937497;1.0319700995665708;1.6803948889707563;0.4255475310759478;0
3.1757896993661516;-2.621413027464227;10.085640214600152;4.1900860871639125;0.1341368498062462;1.3828604335385908;0.017992694475943455;0.12539702125073204;0.06311092548247453;3.6332802641229875;0.03632609360660749;0.13765677577240748;1.926461383863093;3.7112534635157037;2.201151103283728;-0.1233068450562822;0.6218389868513089;1
1.9607362276163427;2.558283411489686;3.8444865542871667;1.185154678027597;0.052603159616121706;1.2915595724490352;0.0027670924015991776;0.0415896284184456;0.07585485842111678;-5.610342882824838;0.12389109819516678;0.1437748546956256;0.9817093295330624;0.9637532076922549;0.9348707036053039;2.2659323340695234;0.4900233453353646;0
0.639054987903334;3.216108096051947;0.40839127756413046;0.5145062348504306;0.15112341065959484;2.0322756546621648;0.02283828524938854;0.12589721357933503;0.06835658514161058;3.7737135148699466;0.04435607219333132;0.1437748546956256;0.35377456471181196;0.12515644263703202;0.26304076824196687;2.240464378357345;0.249082267079042;0
0.4600379421410334;2.917672266374467;0.2116349082093568;0.2980794529972135;0.3595151985003988;0.25182762006601145;0.12925117795278115;0.4047748946370755;0.008173355532722264;1.1996548016980881;0.008922198429693075;0.017334556949118;0.21577913934725912;0.046560636977443864;0.2820762592944104;-2.2936869677922243;0.18504176360976074;0
0.4659441010725407;3.1713528225883465;0.21710390532429802;0.27540348247711033;0.5541374389862973;-1.0005006445848892;0.3070683012862923;0.6498643489090083;0.02491573609628507;2.522505783459902;0.014657897420210028;0.058631589680840104;0.49768698744517015;0.24769233747224895;0.42473538462319316;2.0971825370275923;0.5778492298608691;0
1.7497874723532016;2.5221472148636828;3.0617561984042063;1.5808818136865388;0.619887496437853;-1.9129476481606726;0.38426050823998925;0.7660069839411339;0.02918842762833701;1.5396904574250208;0.029188334862853053;0.0647496686040582;1.4305092266777018;2.046356647610036;0.9641111868844645;2.78721770841868;1.0213176726548867;0
2.5263357826497352;-2.9388965456773644;6.382372486696451;3.433213175277446;0.590305446393101;-0.7537460655285315;0.3484605200413582;0.6613336695254766;0.03907377725718539;-0.021763727250164067;0.040659732843887;0.0922810237585397;2.4089883021143375;5.803224639723719;3.2317518345274454;-2.6645218707100184;0.9710975393885107;0
2.2778787437418053;1.363697640297774;5.188731571190744;1.8565488688947362;0.44291927079010374;-1.5905338075210302;0.19617748043723726;0.5528412273242977;0.04364916511677557;1.976202555612332;0.04384623228306307;0.0927908636688078;2.1666818078594283;4.694510056509;1.691580558702725;1.423281113158513;0.7236560887499907;0
1.1287136114805818;3.029319044846705;1.2739944167415376;0.796938522092749;0.4017800820646662;0.7461308685323367;0.1614272343438899;0.361394283260309;0.025030231987937693;1.5602933831991042;0.01567757724074635;0.0611807892321811;1.0787563252051406;1.163715209170099;0.64533597624321;3.147281230711691;0.28159634810157425;1
2.2014255982071913;1.4287833821568796;4.84627466444189;1.662385915932675;0.40767916138268345;-2.3062285351287013;0.16620229862568806;0.5299814712976613;0.015754933185296464;2.011018327118391;0.015677577240746456;0.0336494340776996;1.5381516495049377;2.365910496874761;1.3367231763300769;1.105867653323923;0.4534067690841323;1
1.5541887353387667;-4.34648249915513;2.415502625053915;2.3016309572434723;0.4326074169272826;-1.0830768848662604;0.1871491771804957;0.504393680545008;0.025322761730028138;-1.7142828386789528;0.03173753441419397;0.056592230039767606;0.8101036949087798;0.6562679965048573;1.0760011944871146;-2.8279093263153676;0.3151148856325992;1
1.5292133496652662;2.6133606534223546;2.338493468794464;1.4129707647385907;0.28485918924220677;-0.1405486782711396;0.08114475769572736;0.3415658624898117;0.07537990688437736;2.782221490577381;0.05990618945651065;0.16926685020903431;0.8034701546024169;0.6455642893368317;0.5567912140027327;3.1976364890654416;0.3454164295801602;1
1.5517668538212173;2.654281098713991;2.407980368618199;1.4246093174626884;0.12361346738772666;2.6178946979060775;0.015280289319616563;0.10954720084801384;0.08605024377196759;-4.568937173713833;0.13332313653512784;0.16926685020903431;0.9413311839962462;0.8861043979637747;0.6270922137745758;3.4015575625679446;0.39281180331446525;0
1.8207137727775071;-4.79166085162794;3.314998642381704;2.7781623065624084;0.1536820265763266;3.1105093095314515;0.023618165292606758;0.12498395988559619;0.09252529217505848;3.3681517873322804;0.05251351075762213;0.2069950035688793;1.0870063019180618;1.1815827004095805;1.768420553458169;-5.619377990548788;0.3644773135470632;0
1.67777968899813;-1.045075748070543;2.814944684814662;2.056541739427643;0.20469796415243569;-4.303917363789408;0.041901256528151846;0.30076633970280664;0.02096965208397568;3.357977917446018;0.012491077801570355;0.0469052717446722;1.0313394671548854;1.063661096511323;1.59800124136817;-5.054210119843008;0.33934830660090787;0
0.8685860855013614;3.252846779730458;0.7544417879265782;0.597182300810053;0.18228230178296695;1.5696600732998665;0.03322683754329663;0.17685152666358062;0.04608813671114983;1.715967010669905;0.03390435403283364;0.1111451004384622;0.7678358968723255;0.5895719645257284;0.46469866932239867;3.438378349492986;0.2207248609463459;0
0.9076165859771418;-3.6350298559537944;0.8237678671408024;1.2871866787482857;0.140407760680558;1.2038122226460413;0.019714339259328844;0.12442093582279234;0.05704438034239803;-2.7910350195428304;0.07851534618129892;0.12134189864382569;0.8155241680441175;0.66507966866405;1.2072667117141136;-4.435854432563797;0.25441713158179413;0
0.7886888519206323;-3.309801653674924;0.6220301051438851;1.1177907011739876;0.11272869488280854;-4.364235627082536;0.012707758649981344;0.16642327114528332;0.034918141045818446;3.7192825591829646;0.022432956051799728;0.07443662689915351;0.6688315127040511;0.44733559238598924;0.9941014283942637;-4.392942051568076;0.21704147808617552;0
1.21656273539052;2.0796404081641846;1.4800248891408643;0.8270514882748485;0.07815130751252262;1.9459080375843971;0.006107626865916874;0.06692108862225621;0.009615135556110243;0.8660215425713851;0.009432038339961226;0.022432956051799804;1.1491275218557737;1.3204940614863916;0.8202932975565771;2.0097785150101846;0.2981299277293877;0
1.4219791735685348;1.317813629193573;2.0220247700626532;1.481644295982604;0.05639291885443193;-0.07470516852005105;0.003180161296922544;0.06115201087580058;0.011777007643627891;-2.771603259048698;0.01567757724074645;0.0260018354236769;1.3464323585594407;1.812880096175938;1.3860340677994798;1.4078342604031509;0.3801752325163953;1
1.3873993915816434;1.5989857357993458;1.9248770717611141;1.352373668432139;0.1229146330214295;-0.3526232794911248;0.015108007010792688;0.1442656931905757;0.013290924430490146;-3.96253279407086;0.019756296522891823;0.027021515244213302;1.3334086538869852;1.777978638260702;1.3384910989913599;1.517340616651543;0.3748206805926931;0
1.6003046860453845;3.1921719660073187;2.5609750881788163;1.1696799965150544;0.20132725809408367;-0.6035159989237204;0.04053266485168178;0.22359902801663756;0.011266577644517566;1.374026488364855;0.009432038339961302;0.027021515244213302;1.5597067911667652;2.4326852744117273;1.0792736164785897;3.170770275706154;0.4945590630623096;0
0.45125820560702246;-1.2608754294430575;0.20363396812766973;0.5403523329794964;0.3202359299091504;0.5468605198640173;0.10255105080477828;0.33281134910332466;0.011131180377154503;1.0056579783792152;0.009432038339961223;0.027021515244213302;0.3927971450508922;0.15428959716013166;0.4173886063844612;1.2641237116743937;0.15763292501981532;0
0.5054371189619785;2.7026407951455234;0.2554666812245852;0.4394874121544219;0.42333184138892355;-2.040561127362725;0.17920984793373673;0.5359724077918173;0.009330441818571757;-3.9356720667837504;0.013383297644539622;0.0198837565004588;0.4253476013817348;0.18092058200119512;0.24631063980805168;3.918855094972578;0.16507163745803827;0
1.220560631493887;0.2211687582031434;1.4897682551527565;1.4249684517391763;0.6157617263159654;0.24545550437342278;0.3791625035956178;0.6292910188576717;0.013833958959126445;1.21413001807022;0.011089018048332795;0.0336494340776996;1.0501202621340167;1.102752564944416;1.1972593008714658;0.6134440778353358;0.516418380015286;0
1.3864102757610468;-5.597350346841023;1.922133452735822;2.2692416790831405;0.5317273504429388;-3.8821390839008743;0.2827339752090679;0.7915470580992139;0.020433918873927998;-1.6320193796080567;0.024727235648006524;0.0469052717446721;1.2192014996322533;1.4864522967055354;2.0376514199769042;-5.80821157784268;0.6953604923731782;0
1.2060421533910517;-2.986315461024784;1.454537675756125;1.6454843709377047;0.3443760829357445;3.8093638294316996;0.1185948864981668;0.22217983840576372;0.029756195353746823;0.6658983220021746;0.027786275109615524;0.0713775874375446;1.0436427418166017;1.0891901725464739;1.4260508528717366;-2.7900396543422907;0.6735480077124696;0
1.4120644804222262;-1.4474534349621493;1.9939260968700914;1.770000422217358;0.1545851706358142;3.0328309777633535;0.023896574980503793;0.12629530790493015;0.02210613173108902;0.10063377093744563;0.022942795962067872;0.052003670847354;1.2562061809073484;1.5780539689498259;1.5515695393304012;-0.9710201136904004;0.7499786986889904;1
2.224838891881073;0.010060678738367912;4.949908094826601;2.3537205910005348;0.45152446742448155;1.829898573606238;0.2038743446829617;0.44138298623796873;0.02356320996898426;-1.1511804065140616;0.02906087488528597;0.052003670847354;2.144141513491189;4.597342829876286;2.2590471913932717;0.17082165546990957;0.7191955688958668;1
2.0902026323816107;-3.5809232787558027;4.368947044415015;2.9673825091466015;0.5483978769840301;-3.9815296110490355;0.30074023148059137;0.7868348312969906;0.02927475725493149;2.4145143851417927;0.02166819618639755;0.0683185479759356;2.079940175167729;4.326151132276762;2.9665793385639256;-3.6871947222325403;0.4755428183179583;1
1.3327834098274276;-0.459768312231672;1.7763116175112248;1.5189364002925085;0.3866544224493949;0.4660855470973946;0.14950164239967514;0.38436368208921934;0.023102743574951946;1.7525383707199094;0.0183542367696544;0.05506271030896301;1.3436064059440085;1.805278174093776;1.5337961421977413;-0.5099577717393036;0.2646814058627217;1
0.9013038267491366;-3.4159062319451454;0.8123485881126377;1.2490186942098553;0.3739338783761985;0.30180065033587766;0.13982654539746564;0.37703167252773484;0.027106355375244848;-0.022534709861384172;0.031610074436626945;0.05914142959110841;0.9151519060926864;0.8375030112250771;1.2647644937065046;-3.3654651540607663;0.1712053169067212;1
1.2498827657208686;1.252210668172408;1.5622069280460475;1.0414820608464526;0.513431879100611;-1.330778921939359;0.2636122944767845;0.6109322131000108;0.028954837472481735;3.9080177067278967;0.01784439685938615;0.05914142959110841;1.2521893817475742;1.5679782477613724;1.042170412729294;1.3050574536345732;0.2643405577060677;1
0.6435191093334038;-2.6024988186327214;0.4141168440772573;0.838690677942092;0.4618016020314296;-0.38428916843694694;0.21326071963879492;0.49396412551792157;0.02815221309733572;-0.68971164217227;0.03543387376363823;0.05914142959110841;0.6174779718546626;0.3812790457257475;0.7594321334732799;-1.823255194183572;0.1504580922146165;0
1.0899323984430807;1.5460941273533155;1.1879526331758865;0.9559440523347189;0.3890030801266888;-2.341539214177759;0.1513233963480511;0.49981154754491497;0.015329148953169208;-5.9117002114520965;0.026001835423676983;0.027531355154481504;0.971677168746728;0.9441565202636575;0.9313960782387278;0.9889884903907102;0.2825602073124352;0
1.3186832262745438;-3.36031660648389;1.7389254512578398;1.838786491085918;0.3290839248466134;0.1403998240871136;0.10829622959245151;0.344833519000579;0.01258179125038569;0.07421248324464891;0.014530437442643006;0.027531355154481504;1.0661976243292628;1.1367773741253637;1.510911678275852;-3.791914286310247;0.3905266415999557;0
1.4455820459742126;-4.104973310331291;2.0897074516429908;2.172658101600047;0.21765485972287993;-1.4785459445228781;0.04737363796098654;0.26578948125208557;0.00634062679928585;2.703923900104911;0.0050983991026817554;0.014275517487508903;1.2472635222925508;1.5556662940416202;1.9261357872693852;-4.891198551465591;0.4295269874333075;0
1.230837645724586;2.4043970899337417;1.5149613101328416;0.7372945591304321;0.15895541391951074;0.340894192893197;0.025266823614322986;0.16623099448299472;0.017384469396070145;1.4999999999984794;0.017334556949117952;0.0387478331803813;1.0811789099722005;1.1689478353686753;0.7745455922524287;2.6319646185071583;0.4290488326087306;0
1.2406375967209162;2.5309367258567477;1.539181646397451;0.8056793205278683;0.09039130283074026;-0.7776308307883752;0.008170587627438592;0.10927871153106938;0.021556443004280963;-0.0130827836081302;0.023197715917201975;0.0499643112062812;1.0669525897854295;1.138387828849835;0.6753484411883068;2.5572198561072277;0.4179195641082968;0
1.4625929259899717;1.664222968052984;2.139178067155907;0.9671753813080652;0.04779216481509434;3.025174642022616;0.002284091017713141;0.04104194918635273;0.028196805209824555;1.4999999999998863;0.02498215560314062;0.0662791883348628;1.089969275898082;1.188033022401789;0.6936847522399057;2.3959044885088563;0.43002360583185123;0
0.7051941661950032;2.060581752663115;0.4972988120354658;0.6752846746793013;0.07617225029348897;3.690453305683473;0.005802211714773929;0.04145976376210192;0.029498839641523923;3.0746947341803654;0.021158356276129282;0.0662791883348628;0.37809874712079716;0.14295866257431653;0.3338173477919051;2.555445681170685;0.18540037413037105;0
1.0232201572120891;-2.578241600653662;1.0469794901251326;1.3541408414092635;0.07254785789813961;-4.201769714058518;0.005263191685608657;0.11044411367020501;0.07914186973358732;3.852696341680616;0.048944631385744855;0.1651881309268889;0.3558830431090299;0.12665274037254362;0.5056312697159293;-3.836782337935997;0.18971098840339537;0
0.9378171438468837;-0.5807180628266817;0.8795009952931266;1.1251258816470897;0.08416278781446293;-3.8259352114915064;0.007083374852702311;0.11958859202271643;0.08988377847327297;-5.929996096668145;0.15218721321505047;0.1621290914652799;0.25823056625785185;0.06668302534985081;0.1858612675475424;2.6844332592868696;0.15042684933997724;1
1.4040188975292833;1.5719293683647386;1.971269064619344;0.9977679557509724;0.15445460916062065;-1.014023605600336;0.02385622629096008;0.18779156961826327;0.10582218312744993;-5.267087348927635;0.1700316100744366;0.202916284286734;0.3860418119969055;0.14902828060985415;0.5196163489785828;-2.2327421482697165;0.19762072740793946;1
0.9370057960460149;-5.279070559490002;0.877979861823826;1.4786853904595132;0.15389301984102932;-2.3120703819697432;0.023683061555791446;0.20493458116175445;0.12180622132989319;-5.883670546577275;0.20521056388294073;0.2212705210563882;0.5412134104234223;0.2929119556221517;0.8454625936356102;-4.9309767551376975;0.2572815676457022;0
0.8411699909600471;2.734746130656614;0.7075669536917256;0.6960419174420203;0.22871949090783503;2.1465437905734177;0.05231260552113923;0.16137898385427696;0.1026129081453297;3.593702171840544;0.06870092790863672;0.2212705210563882;0.5204655616989469;0.27088440091460025;0.4690184544007199;2.5590631640775854;0.21928626254169645;0
0.24032337098995799;0.42234292968070264;0.05775532264397698;0.2759916990940168;0.3664604082429124;-0.8254834925054713;0.13429323080956204;0.45682430316096523;0.015776916184648344;-0.17478777248443755;0.017462016926684948;0.036198633629040404;0.13370060964480276;0.017875853019391923;0.12106675796172883;1.7057405025408325;0.05091183887236983;0
0.19450826704351268;-1.3127731164542684;0.03783346594827044;0.2503964793643121;0.5257757273646552;-1.0824200741621723;0.2764401154858322;0.6079593757941465;0.015666692732547456;1.931871550342903;0.013638217599673675;0.036198633629040404;0.25509763928447604;0.06507480556851267;0.18396170832285685;3.3099200929438766;0.09952213019403344;0
0.21132329878072964;3.803327146982589;0.04465753660756953;0.12427322291570952;0.5275491969006955;-1.895052301830324;0.2783081551505687;0.6521990909070264;0.013414216495281654;3.2524363989128346;0.01032425818293055;0.029060874885286005;0.2503243633121947;0.06266228686765564;0.15992824091505975;3.3041816844783938;0.0979661006403696;0
0.24450659636447072;2.7239611154701784;0.05978347566573821;0.1789561231415231;0.5654329579335399;-0.08709473244755372;0.31971442991747223;0.5839585888576889;0.0037233442609365167;-3.2999999999264755;0.00509839910268175;0.0081574385642908;0.29029884107247217;0.08427341712802046;0.19334048329911235;2.1098545692625823;0.11214397166906277;0
0.27575061707779297;2.8625000179978137;0.0760384028187836;0.23368489963668715;0.6417935166837389;-1.4240059689001754;0.41189891805728057;0.7743842903652463;0.017688334638429937;3.571462348384294;0.012491077801570275;0.037728153359844904;0.40490460513895177;0.16394773926273046;0.4075437557151842;0.38583000711766324;0.14903972114008274;0
0.18928367793697617;1.5947326013028214;0.03582831073334892;0.18866978499117204;0.8406200319439445;-0.5815975744637409;0.7066420381054384;0.9317819861556556;0.01657567880800306;2.3278928869031734;0.0140205975323748;0.037728153359844904;0.2800902263884484;0.07845053491833226;0.35365236346889484;-2.082051589338727;0.09361480229143075;0
0.23766686485867178;2.5461935965524063;0.05648553865175015;0.1669062481374639;0.8381171815533657;-2.5634209205174727;0.7024404100149574;1.0914935416372868;0.017553110137215142;1.7673755347508315;0.017844396859386075;0.037728153359844904;0.4809053608172225;0.23126996606274297;0.390452980746848;2.0770944942035516;0.14445386964165144;0
0.45455043697834663;-1.402993018494005;0.20661609975720588;0.5660168721650551;0.7166094145632642;0.14698007200672514;0.5135290530407043;0.7588307676449628;0.015695011256794296;-0.7809276389462756;0.017589476904251975;0.0367084735393085;0.38747886300246615;0.15013986927368392;0.492525935382798;-1.9226410288493874;0.10998113292269092;0
0.5013391200681481;-0.7514613644711599;0.251340913310705;0.6125362768614462;0.5279174759462164;-0.8167678302028172;0.278696861409424;0.5917932484871464;0.012609307502497539;-1.680547037991527;0.015550117263179274;0.0285510349750177;0.33239913353553235;0.11048918397517267;0.41029698130860437;-0.7506112776095524;0.08913926719518046;0
0.5323089338204223;-4.2310417020469;0.28335280102503474;0.7931276276462698;0.31838817786432605;1.4574658307254982;0.10137103180376573;0.21692291507131767;0.012960868582528604;-3.0135201972399273;0.017462016926684875;0.0285510349750177;0.18760243476496707;0.03519467352974373;0.13670696399263038;2.802590009876699;0.047754558627062585;0
0.7008219427516733;-1.324155963172828;0.4911513954422297;0.8959996658073424;0.3755708906031706;1.637667830677648;0.14105349386845875;0.2506474194069006;0.015432661229392219;0.8046753237086062;0.013893137554807748;0.0372183134495767;0.24357971826049551;0.05933107914786238;0.23363808321596524;0.906932586236211;0.06112790555668778;0
0.9960004075468062;-0.9118585649343327;0.992016811833404;1.1260317239714959;0.42590124629570025;-2.406592958349446;0.18139187159623074;0.5725729312949439;0.020117152721066144;-1.2412566451764313;0.024344855715305373;0.0453757520138675;0.4420443058947476;0.19540316837396918;0.3542796757057127;2.8360416326754;0.10260527455923726;0
0.8208605013185555;-2.1665817953231663;0.6738119626249501;1.0697055456583349;0.23926216543227513;2.6068013424292147;0.05724638380734139;0.19396380603484653;0.019883211792238627;-0.09377583212834928;0.022050576119098546;0.0453757520138675;0.5447115291321132;0.296710649969445;0.8208164564068055;-4.621505141035234;0.11794574828220959;0
0.4907758450237521;3.1013637320749226;0.24086093005877796;0.3817199147557364;0.11619926130844416;-0.7008242906319531;0.013502268328628086;0.12980227091868501;0.009762691014135527;-1.5177520661022719;0.011726317936168022;0.0224329560517997;0.42324712774682266;0.17913813114593521;0.26404157737989653;2.8906148409260766;0.08742524069679271;0
0.23294367358766618;0.3736970531906856;0.054262755064517165;0.2461703948407541;0.1367755976595766;-4.42916666758577;0.01870756411513437;0.20980870248336592;0.02080371751106644;1.4344362380399804;0.01707963699398385;0.0499643112062811;0.24554191957149346;0.06029083426685377;0.16893029910911128;1.6976507559567207;0.049741517506755616;0
0.951457161183071;2.7016620927834367;0.9052707295665483;0.8391797318825929;0.1304135918368087;3.734220669062058;0.017007704935777735;0.08942529258956267;0.023875536808336803;1.1962025671784762;0.019118996635056548;0.0581217497705719;0.7790974995080892;0.6069929137397571;0.713932300962588;2.024529183294927;0.17079093465573966;0
1.0017340347658104;-5.069813966117229;1.0034710764081896;1.5831716346165403;0.10442934006016112;3.652850665844614;0.010905487065400774;0.059788654553785126;0.02502374057674702;-0.7532835304717693;0.028296115019883772;0.0581217497705719;0.8236429038423324;0.6783876330498296;1.2791027681814144;-4.937051569326709;0.20118266342639884;0
0.9116522109032026;2.4013984148937446;0.8311097536446974;0.5861668786403991;0.2238402849286035;-0.4405598406746005;0.0501044731569184;0.27011038424538203;0.030241071653552054;1.6070252679320731;0.028678494952584725;0.0688283878862036;0.8061596354575381;0.6498933578410307;0.5730048121264919;1.8434915502418274;0.22921000525203275;0
0.7098687210850954;1.822657629426022;0.5039136011749888;0.47657115169058173;0.24075357551075752;-2.002125876209343;0.05796228412121402;0.32091781257033913;0.04782246721798462;0.0985951533932834;0.048052411542775425;0.1142041399000713;0.540090617053836;0.29169787462959335;0.4165728157243769;1.3420803732121591;0.1607082349234132;1
0.7945026407804378;0.5617299594407328;0.6312344462070892;0.8980814916182063;0.18181151387090824;1.7816704836002852;0.033055426576031464;0.12939293861571288;0.031526017259313005;1.7405663447648259;0.02969817477312118;0.0713775874375445;0.6540509676991035;0.42778266834813383;0.8492988074724028;-1.6238997321857802;0.20809028820318276;1
1.527416936591644;1.5623784869719302;2.333002498187002;0.9850159170324866;0.1681025168655086;-0.8512266044655359;0.028258456176518603;0.2073019419685227;0.029045963459969886;2.4799190677433636;0.027276435199347377;0.061690629142449306;0.9409399305484558;0.8853679529005328;0.6367330348202649;1.716234485465435;0.3440562293496632;1
2.0066549854305866;-2.530378416138886;4.026664230553428;2.6631663121106963;0.24235388805871566;-0.9824659606387236;0.05873540705717648;0.278491721705197;0.029309883056973542;3.2516221464248183;0.023835015805037173;0.061690629142449306;1.0682709009637203;1.1412027178458386;1.2014685654206845;0.7632823155914785;0.42687505017706096;1
1.4455690138735406;1.7829164814291083;2.089669773871321;1.3250346662838566;0.38719267943599484;0.7239001424730063;0.14991817100882504;0.3918160657159879;0.010002698697594325;1.5161827932767675;0.006500458855919223;0.024472315692872303;0.41974113475823527;0.17618262020813102;0.26072724378503054;3.832262891412359;0.21467881228230187;1
0.8856895065092849;-0.9060444638023224;0.7844459019406607;1.0125971020213442;0.4899631039145054;-2.482829130517672;0.24006384319753646;0.6390947670853279;0.010476558880408795;0.02546481061369832;0.011089018048332726;0.024472315692872303;0.47596297197772236;0.22654075069386612;0.27872177192485714;3.873707428272443;0.3154172220569889;1
1.0881891962569596;-4.681786814395865;1.184155726850368;1.670951800937376;0.43233129815549853;-0.5577874709648292;0.18691035136481857;0.5202698599143085;0.022438748939191636;-0.41948214390898286;0.026256755378810927;0.0499643112062811;0.5491254855684459;0.30153879890078145;0.9257989647393781;-5.922066591796786;0.42459169035737115;0
1.298403189841898;-5.778236259975736;1.6858508433916157;2.148011428181532;0.2284740488483807;2.987074983356653;0.052200390997172254;0.18420011010837817;0.026346114051811635;-5.666409099421862;0.04308147241766078;0.0499643112062811;0.5710272642577756;0.3260721365257195;0.9722387426681791;-5.964923107959886;0.4350351940008936;0
1.6220897703429291;-4.844667215915591;2.6311752230511765;2.526056515957857;0.09451214226646851;0.5495901525293014;0.008932545035797183;0.08967225351009556;0.032259882792214443;-3.6925083819004705;0.04716019169980618;0.06627918833486271;0.8496841139459259;0.7219630934920732;1.1761347702975533;-2.5016826140341735;0.5645580595508726;0
1.9432608271633065;1.0438934115428449;3.7762626423874184;1.74709613331428;0.08363074997953418;-4.168388974391034;0.006994102342139356;0.12200965569030281;0.03284545770882809;3.942901448757418;0.019118996635056527;0.0672988681553991;1.327815780621345;1.7630947472670722;1.3476155466489412;0.15486625246531815;0.5765556932614512;0
0.9558560265545708;2.1340559857659116;0.9136607435006923;0.7891551192708608;0.12949653070607253;1.6774884867536688;0.016769351464908783;0.09897083992546957;0.043897581430849854;1.8314114176284733;0.02957071479555415;0.1060467013357804;0.9427191336525642;0.8887193649546412;0.7916419940185295;2.179411794548999;0.35554304088891525;1
2.2019931991077226;2.339045038787093;4.848774048916663;1.5332610330322405;0.09683005673773205;3.7261189584456638;0.009376059887832409;0.05990058029032935;0.04488980448770357;-0.44896332788452753;0.048307331497909674;0.1060467013357804;1.1278788410037373;1.2721106799839335;0.9298213555303552;1.2797285778609169;0.44876205299530053;0
2.7702405439156057;-3.915998433276439;7.674232671153831;4.031092990290519;0.09732130727439509;3.685237237654519;0.009471436849597226;0.06045855033523667;0.03126937298252344;0.2273270078748535;0.03607117365147345;0.0678087080656674;1.1728068747279092;1.3754759654090456;0.9688907445594226;2.1110729562724497;0.5024120299582528;0
2.272541559215912;-5.55916406411766;5.16444513836349;3.6759460394459964;0.203778528939607;-0.7059684768813383;0.04152568885679025;0.25188725128964934;0.03265463929476186;-3.343278960608277;0.046777811767105125;0.0678087080656674;0.5549321416878676;0.3079496818782836;0.610687386516505;-0.39065940839934576;0.2808148817983453;0
1.9604984905091984;3.171649620151836;3.843554331288846;1.407230200144586;0.3121365206396118;-4.194402292076358;0.09742920751700278;0.470537658445755;0.024034234070565947;-5.890055247073055;0.04065973284388703;0.043336392372795005;0.7432786115109739;0.5524630943296812;0.8659840356349289;-1.0483733373443673;0.45634572332953854;0
1.8670194764262453;1.748067748391362;3.4857617253549313;1.6116345132634846;0.3459339224297116;0.7868993390494268;0.11967027868760573;0.3445533755074479;0.026594883972152566;1.896356769412579;0.016059957173447527;0.06423982869379011;0.9529368917328215;0.908088719625411;1.2776512431795033;-2.836018876697498;0.6673161729135293;1
1.4777080158070133;3.1714133165388176;2.1836209799803004;0.8681597609649936;0.24994367409068874;-0.7506924273177287;0.062471840217952435;0.2783562420994534;0.011581336485776318;0.15407727903993873;0.013765677577240724;0.0244723156928724;0.9617328579660686;0.9249300900915821;0.6546774765727832;3.4956962292034355;0.8489277845056376;0
1.3479578417453688;3.0330342242411135;1.8169903431228327;0.80135953136661;0.2644858862535986;-1.5070293424149952;0.06995278402735149;0.31660986532368307;0.051129088930533875;3.2850441258813206;0.03594371367390635;0.1131844600795349;0.9091854683348275;0.8266182158312195;0.6280314143022194;3.4378476328117884;0.821874897806934;1
1.4527745375843935;2.410297452601533;2.110553857053548;0.8888021126650649;0.20554983748707237;-1.1223887688662195;0.04225073569096186;0.26410639483334253;0.05296040036235972;-3.3403410643397464;0.07418170694401956;0.1131844600795349;0.9006714621560689;0.811209082742351;1.075563315372656;-0.582695153846922;0.717431719255496;0
1.8416577712033504;-4.165185251171247;3.391703346233692;2.7190133637657015;0.10635890516503793;3.977544056584776;0.011312216707905533;0.05883242828824442;0.04588181517677975;-2.6925461292939907;0.0622004690527174;0.09890894259202601;0.9736702907992324;0.9480338351850618;1.2923451979861957;-2.6128115587582315;0.5285212191925621;0
1.721007639051706;0.4365897862010186;2.9618672936743273;1.9058147265780951;0.08032989666858384;3.9623942079412657;0.006452892298785356;0.0426511568848712;0.04234639161715509;-2.4229778579795305;0.058631589680840195;0.08769246456612609;0.6986469014773005;0.4881074929438327;1.0896882071926226;-4.7142089922209465;0.34273998356277857;0
1.884493238936279;-2.522294183272898;3.5513147675965473;2.607026035358734;0.16832343410366873;-0.5133166656502368;0.028332778468452113;0.2074267523725214;0.02394258015071732;3.7353197481029383;0.01631487712858165;0.0499643112062812;0.6464381982069284;0.41788234410102004;0.5721197526649362;2.842609502253385;0.34644960752078824;1
2.0417146721121417;-0.5061419234774469;4.168598802317991;2.3821970969914545;0.1464785432074012;1.345168176782371;0.021455963620162496;0.12548834936816267;0.007782368472761529;2.3613623386995286;0.005353319057815824;0.018354236769654406;0.931054252392134;0.8668620208974757;1.2900285369838358;-3.268776936271909;0.39259801180847304;0
1.9712892969507916;0.13271304399872363;3.885981492272746;2.0892636725208433;0.10906381982748736;3.32647040411938;0.011894916795362627;0.07030267600384565;0.008093457666150813;2.8183421517561875;0.006118078923218126;0.018354236769654406;0.8944070868200198;0.7999640369538744;1.0558063249541048;-0.7307596451862484;0.3899838498002977;0
2.3365980569449;-5.0101354400377005;5.459690479718681;3.677557508969005;0.11205987565502967;3.6272484182424733;0.012557415731820712;0.06941851467565407;0.025271813462616092;1.775899314362972;0.025237075558274737;0.055062710308962995;0.8808680765508098;0.7759285682863233;1.0448625537483143;-0.6799510299410603;0.38225646755627657;0
1.9904091051571031;3.135378847326706;3.9617284058922997;1.4750468750320418;0.1237387084357385;3.6534448324199573;0.015311267965344702;0.08546940920247548;0.024773183671370307;-3.9306520022759184;0.035943713673906336;0.0520036708473539;0.82593182610327;0.6821633813702822;0.775320797531041;0.8123145611878915;0.31969564154094493;1
2.1542359731720904;2.4309374034447124;4.640732628108704;1.6227953608766534;0.2682365752264099;-0.486463346034693;0.07195086028919347;0.3303770932016682;0.06116591709386732;0.8058737493250892;0.06755378811053325;0.13255837666972559;1.0079200394937455;1.0159028060130735;0.8937184479685709;0.8160500229446424;0.37304233717299357;1
2.359124075873646;-4.090626197298988;5.565466405366685;3.4115030217165003;0.3008501164375405;-2.4292195653236064;0.09051079256048167;0.3963947691843026;0.06315158482376326;3.8270645828053382;0.039257673090649495;0.13255837666972559;1.5585384874862878;2.4290422169760455;1.924128493350166;-1.9011553808015726;0.7176560016246947;1
2.2109782592673333;-4.444510807566061;4.888424862952807;3.301250056076017;0.1814527000501162;3.047869323747026;0.03292508235547744;0.12575409564495965;0.05778685471137636;1.249626090227924;0.06067094932191292;0.1264402977465075;1.6962893070592928;2.8773974132436955;2.4594827518309677;-3.903305884198881;0.8510144972821103;1
2.1754794587893573;3.768801570139871;4.732710875614436;1.4247725863425886;0.13215391146245478;2.3698776986543457;0.017464656314826334;0.10009426995650117;0.04962565468654644;0.31002065699015624;0.049072091363311844;0.1182828591822167;1.650844926591823;2.7252889716539617;0.9152895971074331;3.7344671615405893;1.1165489721116322;1
1.5206150843676627;3.523042493587326;2.3122702348064736;1.0946882208749504;0.13351275657518044;-0.6936302167211164;0.01782565616830339;0.15185476931593767;0.03125274291616273;0.22093845356767794;0.03632609360660747;0.0672988681553992;1.0114423867926094;1.0230157018007306;0.5916798495131923;3.349218096477415;0.8757723898406626;1
2.4744082115045396;-3.4044974312315315;6.122695997161095;3.5775979549108534;0.15176278246750488;-0.49220453571172484;0.023031942142279205;0.16432404143414248;0.01495361412874733;-5.649607984672569;0.024344855715305376;0.0285510349750178;1.744991866386778;3.044996613756011;2.2831554266756697;-1.3891619738764014;0.8037549939158769;1
3.0108944655913668;-0.13569463384132874;9.065485482928722;3.1595165996909387;0.21240556993004897;-2.929411971110051;0.04511612613730892;0.283727145748374;0.011463842308894632;1.6001188204228463;0.01134393800346685;0.025491995513408798;2.4879093081827954;6.189692725742596;2.803668360810824;-0.8554090558754961;0.6846835820071934;1
2.9947795962450905;-0.16210598957344224;8.968704830085906;3.149867849684724;0.3164542287370674;1.3692945583210232;0.10014327888557217;0.27290328720945456;0.01375623285737948;0.181318681321601;0.01478535739777705;0.0316100744366269;2.608763167721974;6.805645265262787;2.8823813092073203;-0.68947781183976;0.7338396396045679;1
3.1033364954937186;-1.9652583430087542;9.630697404263236;3.850937116925065;0.3680815394031334;-3.318420961383442;0.13548401964938042;0.5127556988616828;0.02558698863925882;0.13148873097461333;0.02651167533394508;0.060161109411644695;2.7518020704882984;7.572414635143686;3.5690705918883636;-2.374786195581544;0.8273475087443013;1
3.277253073228567;-3.475691851859615;10.74038770598609;4.57470296521806;0.367961477775473;-0.10808498579059744;0.1353956491267099;0.40508601321563775;0.022293475180050353;0.6351692022198829;0.0239624757826042;0.0499643112062812;2.925621120474047;8.55925894056382;4.31499137217873;-4.384342898081119;0.8184256676045135;1
2.479515119517886;2.150323908138361;6.147995227917796;1.8878090968561294;0.18994581614822423;1.1898542833897991;0.036079413072214996;0.19482920471557158;0.023759123319097315;-2.326640511388547;0.03237483430202913;0.0499643112062812;2.197559785256057;4.829269009774647;1.5949018126754297;3.0576427903991146;0.9866206624540207;1
2.076926622497963;3.6428811224008335;4.313624195240796;1.5016096288927345;0.11165381341673215;-2.9206884856292152;0.012466574050498438;0.15008180116612718;0.02949443343178899;-5.8809114141045455;0.049454471296013026;0.0540430304884266;2.043628559482264;4.176417689131553;1.429057797526979;3.686401399664419;0.8539297995486094;0
2.0478315342758138;3.0237165146770266;4.193613992774433;1.7601946060672926;0.18945230254350104;-2.323725464668046;0.035892174939034245;0.25124212021267245;0.02909216400058549;2.737556520111877;0.01988375650045882;0.0672988681553991;2.017116490748225;4.068758937248434;1.6460328421219548;3.2075082316124224;0.8181271222818133;0
1.07442411120896;2.0756831487282135;1.154387170747164;0.6479520457407664;0.1972282801924489;-1.1092207547725401;0.03889899450767113;0.23595164175974936;0.03574065046361129;1.8667547224129937;0.03199245436932795;0.0820842255531762;0.5803547322882798;0.3368116152894009;0.41196862186804073;1.569783418719247;0.4614877398143042;1
1.8575836010616786;-1.755678364520298;3.4506168349332733;2.301381958175319;0.14098246288015204;-3.7440084129711018;0.019876054839753445;0.19990857053990724;0.012676982521827827;0.7371739329999443;0.012108697868869145;0.0300805547058223;0.7629655267712182;0.5821163950412824;1.0496468519686006;-3.1074260238940994;0.505407619465451;1
1.872649625985359;1.3040845362284266;3.5068166217031043;1.8862041625925923;0.18016371731865166;-4.085133627816431;0.03245896503807503;0.2603319351973993;0.029105191204401408;3.201011796948869;0.02077597634342815;0.0647496686040583;0.7317215569086489;0.5354164368448171;0.5911458143199091;2.6771011721998974;0.4401496815676211;0
0.6787326716951462;1.478905585253262;0.4606780396264311;0.5594907752945877;0.17073253781655492;-2.181158753566155;0.029149599469281362;0.2180638775599446;0.048014135766026665;-3.168384118171854;0.06742632813296617;0.10145814214336679;0.6928898806744079;0.4800963867409953;0.606568516890803;1.3143045956591006;0.45053065175949225;0
0.47853866677917606;0.6508551702843484;0.2289992556027913;0.44130180425991106;0.29478324303268794;1.5830247995270046;0.08689716037286876;0.28778036216847575;0.050095068386032365;-3.139004197039373;0.06908330784133775;0.10808606097685311;0.4984966293453887;0.24849888946871382;0.49274489626266327;0.21001880266471673;0.30179627838343054;1
1.22365139133803;3.0008687449532516;1.4973227275234968;0.9952578350874324;0.30727162406742214;-2.8610458418056943;0.09441585095703121;0.4197925648862801;0.04555203950165471;2.2850387743680045;0.030080554705822327;0.10808606097685311;0.37916637367438516;0.14376713892538348;0.5432074744277273;-3.619928212639051;0.2843541914269861;1
1.2914708119162535;-5.4236445143244385;1.667896858031627;2.0895500793036836;0.24688771440013765;1.5745454530865253;0.06095354352172394;0.2059766533194476;0.05145764146093067;1.8623584879800408;0.05200367084735377;0.1101254206179258;0.2630851190588498;0.06921377987020917;0.20007499815683383;3.4095968235938834;0.23309193792803787;1
1.2213436925535732;-5.817229011026291;1.4916804153403973;2.0365364303716698;0.21628685209265047;-0.46437672483660464;0.04678000238814806;0.2493189900136491;0.06814838943531291;-3.371042993985304;0.0938105434893443;0.1488732537983072;0.1976128432763455;0.0390508358277615;0.16672096362314204;2.942190640144293;0.18041541307812925;0
1.2642003877476968;-5.973534684053763;1.5982026203814268;2.156160735295378;0.22461696044841775;-0.7572508429861369;0.050452778921086065;0.27491010654172987;0.06992741376851934;-4.026173769520854;0.10069338227796469;0.1488732537983072;0.22030756459458287;0.0485354230175963;0.3529701989339563;-5.360782893449189;0.19034623533393263;1
3.151419412709032;1.659038465360025;9.93144431479934;3.272033755434869;0.11480949555533265;3.5427936642892774;0.013181220269669947;0.08548854011425155;0.06476572456329191;2.6329632308940774;0.048689711430610766;0.1488732537983072;2.1335200572591244;4.551907834726978;1.1848344314458272;3.8577928470349896;0.9359640698450583;1
3.890442599383723;-5.994820083708649;15.135543619099577;6.694803094335669;0.03266857952055694;-1.6147432312111611;0.0010672360878909526;0.042733710509053835;0.03610396205328188;0.7795814542700619;0.03313959416743144;0.0866727847455899;2.408984040176789;5.803204105826484;4.127379815649876;-5.986333136876494;0.7019426393469844;1
3.1843278396509813;2.9517324494136403;10.139943790376286;2.750242724396781;0.03293471352510011;-1.6574956800282887;0.0010846953549804117;0.042970426108159265;0.05587090994819709;0.1501116048493909;0.06258284898541855;0.124910778015703;1.985122305380863;3.940710567320633;2.1188761614169094;1.3127713112540977;0.4840129256877891;1
0.7862557312841956;-5.465522220843852;0.6181980749772452;1.2637238067138146;0.11367377631036099;2.807668161165438;0.012921727420657989;0.06884023326341959;0.045226325290213254;1.7452769633192506;0.03046293463852348;0.1096155807076577;0.77303601857281;0.5975846860109019;1.2336175780833258;-5.3537751812017245;0.15920606663036102;1
2.868847515726559;3.1239622545034678;8.230286068490448;1.8058891329966849;0.18552359076292574;-2.6760577827101066;0.03441900272956955;0.2469077468189662;0.04711239869826944;1.6198454107023483;0.03173753441419393;0.11471397981033951;1.800292953353784;3.24105471789529;1.2637849362595146;2.212690422660307;0.4720970081882387;1
2.601005489378955;-4.449469104040256;6.765229555779456;3.957672377106169;0.46146931054568413;2.434562783626074;0.21295392457550907;0.37265064438131745;0.05438639228873827;-0.3127781898881796;0.06672529825634743;0.11471397981033951;1.5770773527211466;2.48717297646594;2.55697331521377;-5.602651325728589;0.5559163291878381;1
2.225075487194588;-0.08034218996727205;4.950960923714234;2.3481186748709195;0.8025116676748261;-0.738205331896836;0.6440249767542305;0.9778966836676343;0.05807528470710889;2.0060137603520527;0.035115223819720695;0.1396961354134802;1.3915138512310556;1.9363107981678842;1.84376210546943;-2.331751486493838;0.5353706204905004;1
1.2219673310036179;0.4067870724067806;1.4932041580401056;1.2568782502714713;0.8868583752992121;-2.4011753188264393;0.7865177778383581;1.157380823899952;0.04725099129160404;3.6477313735884245;0.025938105434893555;0.1029876618741716;0.9454155622727023;0.8938105853874099;1.5195061809001924;-5.273499315400233;0.41304500717227205;1
0.8309139563307775;-1.7841739757248671;0.6904180028252652;1.0194272966818718;0.7188530153891024;0.7896124215729099;0.516749657734005;0.6928168127749288;0.07764265797721959;1.3389462517265507;0.05793055980422143;0.1896604466197613;0.7534589660406286;0.5677004135070131;0.42569434157154307;3.7562548359735004;0.2706116861888399;1
0.7892469526477612;0.8584262695726341;0.6229107522637775;0.7119610800526937;0.7237020811837037;0.35607776932708646;0.5237447023096241;0.756308898673645;0.08238188415091019;-0.5789871400827842;0.09330070357907624;0.1896604466197613;0.5516487813179535;0.30431637792958327;0.4178955802805375;3.462428283507755;0.1607902821193517;1
0.6108930458965963;2.141908360841409;0.37319031352482096;0.573540030915749;0.7906956088972431;-3.3142830716140352;0.625199545929382;1.0840112840475058;0.06116095891079222;1.776797931963408;0.042316712552258606;0.1478535739777709;0.7922675613785641;0.627687888812737;1.142663242133671;-3.825806870615674;0.20626975856725963;1
0.7733082150497382;0.5147859310742344;0.5980055954634121;0.7725613041293533;0.5887821212440495;1.9247120983751493;0.34666438629664253;0.5784525293477549;0.06110355638640728;1.332910593759138;0.04919955134087893;0.1478535739777709;0.715907746690411;0.5125239017713417;0.7680233831279857;1.0652434198490308;0.1672537172149986;1
0.6671919771510553;-0.6387583438529862;0.4451451343747343;0.7446054379557951;0.2629059444822119;1.4315622361688405;0.06911953564408387;0.2103268448948894;0.0435040154583296;-4.205462056721485;0.06347506882838792;0.0917711838482716;0.46386366353822867;0.21516949835110702;0.35023329512342727;1.3223494494434913;0.09653084010455168;1
0.47733998638673253;-0.11970256029789539;0.227853462603686;0.49716588222493985;0.2891983872403046;0.14816413248688676;0.08363570718239317;0.32655212357459806;0.040453100881580245;-0.6771639551867334;0.04703273172223922;0.0917711838482716;0.39202371509466255;0.15368259319662117;0.6025695746309303;-4.901937367757338;0.07642528078655847;1
1.407840151322023;3.314826941238895;1.982013891674416;0.990950902822441;0.3903888982441735;-1.997573830217739;0.15240349187229965;0.48628482309735244;0.06752684780000777;-0.30796378308936845;0.07226980728051387;0.1590700520036708;0.3120697082140551;0.0973875027848055;0.20873279377553544;3.160650657045192;0.05890744511881636;1
1.4541621351997402;-3.25730933920822;2.1145875154486675;2.0311160712005933;0.3159115930557531;-0.4356842817797695;0.09980013462702375;0.36312176704892885;0.046741272861733456;1.8542227224556669;0.037600693382277894;0.1106352605281941;0.07666645453047895;0.005877745250273996;0.10896570580147458;-3.791748731839224;0.014026028874460084;1
1.263375269444178;0.8558875473496101;1.5961170714431494;1.3910238034874287;0.16290960291816386;2.1633938986157712;0.026539538722953827;0.1497903108183225;0.047211606978924216;-0.20443064705854397;0.0506016110941164;0.1106352605281941;0.05128288172317519;0.002629933957833176;0.05010476168924782;0.7775381151754974;0.009336140035352875;1
1.537504195541744;1.8704982784651722;2.363919151308465;1.5368389869338472;0.11126687246383889;0.23167691110315403;0.012380316907884187;0.1221034639349714;0.04206719964257449;-3.385107863701064;0.0596512695013765;0.0887121443866625;0.21122503902868825;0.044616017112670874;0.1367708193493664;3.423388015212666;0.03785660435215235;1
1.6638287315295404;1.2150911967363864;2.7683260478631992;1.653477240219122;0.30584586017143395;1.1015488937068074;0.09354169018400432;0.32727644011701607;0.05020564221867551;0.2271082118601253;0.052258590802487986;0.1172631793616804;0.383336435411238;0.14694682271379425;0.2531048400612077;1.6705611180216433;0.0701660556814787;1
1.6958895078292664;-1.4017276675149777;2.8760412227653913;2.094671089587927;0.558404934227475;-0.20171746869616136;0.3118160705695906;0.6282319964161704;0.08038889097440252;-0.9279896130999852;0.09126134393800348;0.1876210869786886;0.6841458153719852;0.4680554966909984;0.7920457040370206;-1.0035266815310546;0.1325286379692066;1
1.6222067952036723;-0.43523527621702485;2.631554886404969;1.7819686397961316;0.8453218683430741;-0.6369923030905937;0.7145690610990255;0.9645989630039118;0.0773897966727896;1.4935081799847332;0.0587590496584072;0.1876210869786886;1.0870841927920063;1.1817520422182481;1.1317234276054338;-0.16679464631630125;0.2354278716945479;1
1.744765676292654;0.006783444280156203;3.044207265168962;1.8534168806674394;1.1639327539951883;-0.8318051542095759;1.3547394558228232;1.3363773398802241;0.0465331922315177;-5.410946748235093;0.07507392678698882;0.08922198429693069;0.7301373612190832;0.5331005662479661;0.9046688629139004;-1.7272297675601962;0.17991351309497378;1
1.2782251903539728;2.055988934578302;1.6338596372554497;0.8003632106358889;1.5135518622787905;-0.9368041699054377;2.2908392398075947;1.7435671270451278;0.06591344759444166;1.5475662401059278;0.04257163250739268;0.1611094116447434;1.352300734263587;1.8287172758898367;1.0406444770428553;2.466278435861005;0.43418120188397025;1
1.3036126699703023;2.246956538188286;1.6994059933071004;0.9671962776450187;1.8939254444502531;-1.0005588577134894;3.586953589136089;2.1861683244986048;0.07535116510708845;-0.21063573071833197;0.09075150402773519;0.1611094116447434;1.306313427134783;1.7064547699126216;2.137368040738948;-5.626033930323824;0.5540904839115813;1
2.1761247491916054;1.6894333803757462;4.735518924044227;1.5191168016192529;2.304938365967118;-1.0425622869796953;5.3127408709071675;2.6641809322406678;0.035338379346127366;-4.331704685651454;0.05315081064545726;0.0718874273478127;1.4872971189293844;2.2120527199756475;2.46933149935949;-5.787040800388157;0.5909341568479788;1
4.445158851471674;2.4693551872884445;19.759437214816973;2.818954634071021;2.746531019893239;-1.0719164091179518;7.543432643235796;3.1776049502713177;0.027078771491852855;-5.6826036476421535;0.04422861221576416;0.051493830937085705;4.103740632002931;16.840687174751817;4.185608955049672;1.8159355455002508;1.0040297450950484;1
4.445158851471674;2.4693551872884445;19.759437214816973;2.818954634071021;2.746531019893239;-1.0719164091179518;7.543432643235796;3.1776049502713177;0.027078771491852855;-5.6826036476421535;0.04422861221576416;0.051493830937085705;4.103740632002931;16.840687174751817;4.185608955049672;1.8159355455002508;1.0040297450950484;1
1.6000689867699265;2.6534882036112393;2.560220762422939;1.3206018279942442;0.7136161976858835;-0.8563338511496443;0.5092480775996578;0.819990841633641;0.027240277720388954;-1.6098074971841498;0.03313959416743133;0.0622004690527173;1.0494522303374019;1.101349983760147;0.7706604831771375;1.430851011192635;0.698605082376599;0
1.6000689867699265;2.6534882036112393;2.560220762422939;1.3206018279942442;0.7136161976858835;-0.8563338511496443;0.5092480775996578;0.819990841633641;0.027240277720388954;-1.6098074971841498;0.03313959416743133;0.0622004690527173;1.0494522303374019;1.101349983760147;0.7706604831771375;1.430851011192635;0.698605082376599;1
1.6000689867699265;2.6534882036112393;2.560220762422939;1.3206018279942442;0.7136161976858835;-0.8563338511496443;0.5092480775996578;0.819990841633641;0.027240277720388954;-1.6098074971841498;0.03313959416743133;0.0622004690527173;1.0494522303374019;1.101349983760147;0.7706604831771375;1.430851011192635;0.698605082376599;1
2.468540434577799;1.4228902202826657;6.09369187714555;1.851668335655128;0.5248496931725938;-0.6840828463749595;0.2754672004233658;0.5998187294654995;0.05446146736237343;1.7949233693509488;0.04894463138574477;0.1254206179259711;1.1030204580853924;1.216654130954909;1.5649221621301008;-3.300074750683388;0.46971469539565874;1
1.3471455520535645;3.5947398264904535;1.8148011384177032;0.9232935237855273;0.354288841083526;-0.31383036611139126;0.12552058291630794;0.4000968369890867;0.04466752428096866;-1.4134905450065993;0.053788110533292605;0.1019679820536351;1.0577368556880298;1.1188072558807998;0.913310930492435;2.7044807709108305;0.49633985907728106;1
1.6072773724410219;-5.923773332027496;2.5833405519609154;2.7263265718995737;0.2031145715465216;0.7335393480676373;0.04125552917452704;0.22082516420440235;0.03431744012363558;0.15308714297548853;0.03721831344957685;0.0785153461812991;1.1435431502176578;1.307690936409725;1.8244832190419178;-5.233637892591117;0.4191108550215948;1
1.9401378980087916;1.6302775177820443;3.7641350632899724;1.1965070006780363;0.07986276358311169;2.7395817822540707;0.00637806100713199;0.05659229810755528;0.029086206764114594;-2.4851578783246406;0.038237993270113166;0.0642398286937901;1.4766462572648413;2.1804841690942642;0.9597026597776175;1.5003389468720005;0.39443625447782826;1
2.1875121272478015;0.09070659929168023;4.785209306856203;2.5543820705246816;0.08033005624483508;2.7518040591517092;0.006452917936298368;0.05683574190217122;0.030126606677604147;-2.391780224537177;0.03900275313551545;0.0672988681553992;1.6691075095853947;2.7859198785543584;2.0924052882932394;-1.1077119469582435;0.4013617088462218;1
1.1600758624657344;-5.756267764725598;1.3457760066756173;1.9149095243966405;0.17001046202298284;-0.2130979353690865;0.028903557197268087;0.19428853599927853;0.029002676972219615;0.7720376909343081;0.02906087488528608;0.0672988681553992;1.0840684455779275;1.1752043946977437;1.7213465118387328;-5.37923171241078;0.2393261153338747;1
1.160097429256824;-5.7563431080780845;1.345826045368292;1.914969198241975;0.2510222176189788;-0.9416517272018226;0.06301215373834995;0.291759330017048;0.029002676972219615;0.7720376909343081;0.02906087488528608;0.0672988681553992;1.1595278928994128;1.3445049344117523;1.9346060953390642;-5.7488574311737795;0.2600664020179299;0
0.9307411105446807;3.915668558148937;0.8662790148579455;0.5073190191916743;0.31610061724223;-1.1457923798215361;0.0999196002209188;0.36877990434309016;0.057038304357895316;0.07625282144448775;0.06067094932191285;0.1325583766697256;0.9470897760394517;0.8969790438784586;0.48530429583349566;3.9760518129374063;0.2423205507511469;0
0.07493048183284884;2.26278924576021;0.005614577107702891;0.06416945798989282;0.36417785080838777;-1.2207365891182853;0.13262550701941633;0.42535025897740286;0.04415245021727472;-1.3714004299218647;0.05225859080248798;0.101967982053635;0.06029368263605003;0.0036353281658167216;0.0837570259317637;-2.4274358996104866;0.017681432128832615;0
0.6623194331322033;3.9759743257619604;0.43866703150456315;0.35946672684786396;0.3949534177866308;-1.2512930297116203;0.1559882022213409;0.4614703939199797;0.02675890612251732;1.2409025863821999;0.020903436320995176;0.06525950851432641;0.7258848542325067;0.5269088216041474;0.4185687021467346;3.9031491407572148;0.23942320636759495;0
0.9455280191656771;1.6889314846677959;0.8940232350273689;0.5958061430034336;0.36630103165144495;-1.7081596407084554;0.13417644578891288;0.4489708843358995;0.0306059690930791;1.4141535494176818;0.023197715917201947;0.07443662689915351;0.9392233209263148;0.8821404465718553;0.606479661637954;1.9183201521230817;0.29170984946936807;0
1.496728850955193;-2.006532169968395;2.2401972532816523;1.8653521367095363;0.314454504171709;-0.3042410632311636;0.09888163519387534;0.3380722031696122;0.0564634753071774;2.3282380917797614;0.03798307331497905;0.1335780564902619;1.503540315821587;2.2606334813008773;1.8930976015069259;-2.1098419354841553;0.5841649655930004;0
1.6785008907869983;1.2193487987231801;2.8173652403727467;1.7531171645148442;0.37565540567672867;0.566151736161066;0.1411169838141476;0.37963056200687884;0.06780679134718581;-4.433901071510176;0.10451718160497592;0.1335780564902619;1.629098331800334;2.6539613746746316;1.7315839926050764;1.3325433985626276;0.8498165672573322;1
1.6846574895557143;0.18735762170916104;2.8380708571161612;1.924630489940997;0.41807635493068823;-3.2971678193693865;0.1747878385521308;0.5726462206796997;0.06640195912018425;-3.660721254719915;0.09839910268175783;0.1335780564902619;1.638180097861811;2.683634033030533;1.962893606514235;-0.1328954724799729;0.8215122069733466;1
1.9116924536687627;1.0081011944837037;3.6545680374140943;2.048152226782161;0.3111997200650594;1.9437639111218274;0.09684526576857133;0.28752022251180576;0.06441156893762323;-4.004537059960795;0.0971245029060874;0.12847965738758022;1.88163781939126;3.540560883363496;2.0959066678084595;0.8367967756676755;0.8845956745720563;0
1.988760181606108;-2.8760440317005536;3.95516705994196;2.767721421528366;0.10228727727751162;1.9480528907096275;0.010462687092846546;0.07787812035292718;0.058980053127413556;1.890076220822447;0.05812174977057198;0.12847965738758022;1.9165954297666317;3.673338041402339;2.6752038532803675;-2.9379018985829095;0.629438624337543;0
1.154822332568859;0.28064557350272423;1.3336146197997802;1.2909945546714132;0.047831259361108776;2.017493789774763;0.002287829372069656;0.04395090241612931;0.021980349021752815;2.533739597249131;0.017844396859386172;0.0499643112062812;1.120431126149149;1.2553659084438502;1.267601572199705;0.1251312525111974;0.2970435782100443;0
1.0040937972518464;-0.792873400535969;1.0082043536796321;1.206554373658978;0.09910546370542059;3.5676118250348843;0.009821892936266436;0.06424965790802162;0.008173355532722257;-1.242168692935019;0.00994187825022945;0.018354236769654295;1.0060600826671855;1.012156889936304;1.2034477965593577;-0.7093617681445181;0.26226146614286383;0
1.0352189686447184;-2.5174051071642563;1.0716783130418344;1.38092580469936;0.2456370124141972;0.7797394301959404;0.06033754186777246;0.2687913386201961;0.014635158656477345;1.3077104345374853;0.011216478025899826;0.0356887937187723;1.0523987454266956;1.107543119375683;1.4032337933305814;-2.5785876060784094;0.329428345691595;1
0.5977926760998471;0.7291361094116375;0.35735608359861676;0.6006765323636012;0.3470251558986316;-2.048228030441992;0.12042645882646956;0.43737589020312545;0.017404394295900346;-1.6450130649476655;0.022942795962067872;0.0367084735393086;0.6152099012492862;0.37848322259515643;0.5880787217984977;1.0488030331517937;0.2213413668998898;0
0.26052365273236433;1.5368322978457183;0.06787257363301356;0.1735182325506397;0.33467112056830434;-1.2627682884142644;0.1120047589424445;0.40174399194027355;0.021662697215088803;-1.2399531777391655;0.025491995513408805;0.0499643112062812;0.2611624470120395;0.06820582372931634;0.1875125695405533;1.4002760206648652;0.10471483206198594;0
0.42791646681659196;-1.5425202886231268;0.18311250257279546;0.5140750239024694;0.22273925391691318;0.5269425494009372;0.049612775235463126;0.24208297156505082;0.02459239993733688;2.047066937053062;0.02345263587233607;0.0540430304884265;0.4333826625786721;0.18782053222377915;0.5072621079760693;-1.2489658558202255;0.16283403113449121;1
0.33217211381628753;-1.2596818561305199;0.11033831319718067;0.42734999896496895;0.1519274431601024;0.7492931647785515;0.023081947985166145;0.13661134606566416;0.0246188102545277;0.5868384493979022;0.027276435199347346;0.0540430304884265;0.3233492955258281;0.10455476691704929;0.3893380778122921;-0.5614995333199886;0.11756916381032742;1
0.8739201036604622;2.226269673079221;0.7637363475819131;0.5377557902213681;0.26186516613824784;1.591514227932226;0.06857336523661216;0.25894385363728223;0.023222447710871442;0.18631914935799898;0.0265116753339451;0.0509839910268175;0.7351734000726259;0.5404799281743453;0.4875111284709108;1.8599197762974349;0.3066032098853855;1
1.222990097213093;-3.6081846143514245;1.4957047778812906;1.7122545595464702;0.3662720474583126;-2.5457169000300546;0.1341552127493044;0.4818473506665869;0.0274541414602337;-0.8824308285636722;0.032374834302029046;0.062200469052717394;0.909525138580008;0.8272359777089829;1.3158148584487048;-3.562062818511789;0.4323624314806169;0
0.8866831097984441;2.57440903772185;0.7862069372018398;0.7659858533506513;0.27637203086372986;1.4759428955394363;0.07638149944374244;0.23193516308713236;0.03772355992787329;-1.021395394192254;0.04333639237279498;0.0876924645661262;0.6163967337712599;0.3799449334038775;0.4087042637441938;3.6991398093303083;0.38188303110391447;0
0.2948449148325311;-3.777870723853539;0.08693352380260251;0.42831957680412824;0.20804418378920606;0.6137879492225533;0.04328238240851695;0.19242016094942005;0.036862753563842575;1.092103554950306;0.03339451412256553;0.0876924645661262;0.07530175720712612;0.005670354638480971;0.06302933021534485;1.0647759905252876;0.05743306562486394;0
1.1641094894329158;2.9911210920253346;1.355150903387764;0.9478790659576356;0.2881912258050817;-2.9383994076077755;0.08305418263103559;0.3866110999966529;0.03686275356384258;0.35637927812507364;0.03645355358417457;0.0876924645661262;0.9124207958704018;0.8325117087367774;0.4873724724260631;3.9595925147937585;0.5257499914123503;0
1.0326121877088001;2.9518051879584064;1.0662879302047543;0.735346393020289;0.20910417119376165;1.763873861596906;0.04372455441062998;0.21286683698798348;0.02507907994623089;1.6579361529458012;0.019628836545324782;0.060161109411644806;0.8930866632855305;0.7976037881384825;0.5539306101695631;3.8166827935960974;0.504797254701862;0
1.0389587597567185;2.895500375229407;1.0794353044752185;0.7411270298502721;0.07547457688159247;-5.534636676626851;0.005696411755455411;0.12179812723311956;0.017404394295900374;-3.2002393058558756;0.023962475782604273;0.037728153359845;0.9547183242932841;0.9114870787413762;0.6200489609144892;3.2400023114007013;0.5605832434057667;0
1.051624229224448;2.869926044249052;1.1059135194919143;0.8066633911270249;0.13634181679209129;0.18557429955049365;0.018589091006168183;0.15883922343164092;0.01573911393946482;1.0269398343333442;0.014020597532374824;0.037728153359845;0.9528826813530544;0.9079854044225866;0.6096263166007347;3.2313416217939306;0.5583663617822556;0
0.6430647770961767;1.0218884856451815;0.41353230754175546;0.6352135138931732;0.15896968559391245;-2.7206974597923352;0.025271360937827374;0.21315870223306255;0.015586988189114056;1.0625008903114583;0.013255837666972602;0.037728153359845;0.2638780161221993;0.06963160739258768;0.41306521638630445;-5.147195002691074;0.22795061077981615;0
0.5774953612252256;1.8427520168423293;0.3335008922366538;0.5769034786121612;0.09479739841170122;0.8478660452011777;0.008986546745626814;0.09220393546942784;0.014823399943820101;1.1369751913144661;0.012745997756704423;0.0356887937187723;0.2364047460151246;0.05588720393847557;0.3917859770526333;-5.753341004067553;0.20804210727277503;0
0.6107667863014864;-3.773253762543723;0.3730360672490456;0.8976761252084374;0.04736621085562713;-1.3043579058913988;0.002243557930819729;0.05994288418706195;0.021972463694495764;1.7062989029857079;0.021413276231263375;0.04894463138574491;0.2455538910240286;0.06029671339704051;0.41771748109338225;-5.963764325227634;0.21774996294778615;0
0.5603144131119505;-2.5241629379147703;0.3139522415409895;0.7304415249587622;0.10143743544189643;-0.6333977965729769;0.010289553309028907;0.12520853851457514;0.01855144835185098;2.2467301320722726;0.013255837666972602;0.04384623228306311;0.20350761565751807;0.0414153496306081;0.2112125112305555;1.5179719212563487;0.19219639341653857;0
0.37911297220477785;-2.8832150785675488;0.14372664569394067;0.5091755267881474;0.23752517096051373;1.6036678717579829;0.056418206839821274;0.22194038150376694;0.015460707888112317;3.780325113753136;0.010324258182930604;0.0321199143468951;0.3366796913698216;0.11335321458087833;0.3039140208842205;0.830260210561617;0.34847526292315745;0
0.4737081030169144;-0.8687748955773333;0.2243993668638836;0.5660485008017802;0.39294525109105977;-1.4976242748371718;0.15440597035501602;0.4756873879416552;0.04767911879938462;2.679240153553149;0.03046293463852353;0.11114510043846221;0.32616098565167767;0.10638098856127387;0.2968451528684536;0.8654780247158573;0.3400762107569843;0
0.9209801070901521;1.0627087045120263;0.8482043576557879;0.9081469761905031;0.3986053026113291;-1.7612986185232185;0.15888618726986922;0.4907948217975714;0.03829657997770142;2.687073359138015;0.03403181401040068;0.0825940654634444;0.8518537790196083;0.7256548608299876;0.6972857769596954;1.8509312764498027;0.6242433337576692;1
0.8698173693865904;1.5947797483112058;0.7565822560866082;0.5686854980985068;0.4018800271929195;0.09304955051440977;0.16150755625658172;0.4044651715500246;0.03551935529200706;3.220448286400753;0.025109615580707574;0.07902518609156711;0.827235321584011;0.6843182772762022;0.6405190015257887;1.3788458451062464;0.5605939486201595;0
0.6311641398815352;3.6626922088853817;0.39836817147239806;0.3802732239909168;0.36172024532160607;-3.1319878759187745;0.13084153587552289;0.48987569684554044;0.03156069652399741;3.661252783940114;0.019373916590190676;0.0683185479759354;0.571017261694924;0.3260607131535692;0.36899637162766297;3.6628030149589854;0.33658053075145933;0
0.6196306562739613;-1.9857493402776;0.3839421501945;0.7965471894169038;0.31818704915872453;0.49882461042513704;0.10124299825233657;0.3266667367655106;0.004483500206747839;-2.0671819262729425;0.005608239012949923;0.0101967982053635;0.5460806711072315;0.2982040993569243;0.8049452141118374;-4.007411407754065;0.2848528807548575;0
0.45109403177751956;-4.73288074627056;0.2034858255052978;0.6849390362804231;0.24757847139759928;-0.44932439868449414;0.06129509949957188;0.2675297115851907;0.004434923473267325;2.6461992276252815;0.0033139594167431;0.0101967982053635;0.4961095019579808;0.24612463793299577;0.7711451633381528;-4.996488053735606;0.2634309407592211;0
0.6652762390854062;1.3860345975036452;0.4425924742916226;0.4914043794842713;0.231849213974414;-2.6290391267486974;0.05375405802055361;0.3035205253069957;0.02574901868259899;3.5727338383290785;0.0188640766799225;0.0540430304884265;0.6878160535382154;0.4730909235048852;0.5749327782651448;1.069713669771783;0.3016650942710046;0
0.9408022233953229;0.7553082929136465;0.8851088235455832;1.03842466464042;0.3247999654083096;1.2160502811653835;0.10549501752923911;0.28608166871713947;0.03480256506837534;-5.387409678793162;0.05633731008463332;0.06627918833486271;0.9850786419643369;0.9703799308543023;1.0556578512055075;0.8378515470275065;0.32603474579182384;0
1.1453757223502796;-3.1502228958709715;1.3118855453494247;1.5536755594274494;0.43596526314800255;-1.7019110206276427;0.1900657106717071;0.5545107109298906;0.0316306258167555;3.2699193191997793;0.02574691546854283;0.06627918833486271;1.2152121133793625;1.4767404805039366;1.6413886565772984;-3.1035585460336783;0.32458724767439207;0
0.8248165880302236;2.053142441225141;0.6803224038898197;0.7826596902759295;0.5524617988832338;-1.0759989795171592;0.3052140392252986;0.634707475931144;0.008045138084051922;-5.29017273915338;0.013000917711838478;0.015295197308045301;0.9628107312039642;0.9270045041215121;1.0490068201802805;1.0094634099927084;0.21716135016245422;0
0.37457150953378454;0.8788656166164461;0.14030381575441805;0.3362368848795301;0.5038909736970083;-1.842652211966879;0.25390611337331914;0.6240850699086637;0.017372004728664053;1.9939477165196404;0.010451718160497628;0.041806872641990504;0.5439370929887466;0.29586756112904833;0.390442341743241;1.5095335468866349;0.10689250354563842;0
0.3064348976364349;0.4092007516547014;0.09390234648945232;0.2946960922737283;0.35018721274655085;0.5720959038505935;0.12263108397119808;0.39646203162378146;0.017372004728664053;1.9939477165196404;0.010451718160497628;0.041806872641990504;0.2962063504339686;0.087738202037411;0.20350502595136888;3.7144463591330954;0.056221841235562585;0
0.3907270884746285;-3.508788747595732;0.15266765766786017;0.5546455734501352;0.1377501478227049;0.4682679862309822;0.018975103225177047;0.15307665809512283;0.019719669221794373;0.9955532042665602;0.021923116141531605;0.041806872641990504;0.34034566506745245;0.11583517173020652;0.5639102337670678;-5.783717160337683;0.06267170954996734;0
0.8064925143284303;1.720971260686353;0.6504301756677934;0.5577638029333833;0.1561417696905774;1.2244983228245143;0.02438025224210531;0.16302303640436033;0.02545117563852084;-0.05486320269811529;0.02651167533394518;0.060161109411644806;0.641512235288104;0.41153794802433974;0.41047549709799913;1.7834529919952988;0.11054476369208459;0
0.8052294273312308;1.7179461564541487;0.648394430640182;0.5408612284137311;0.14718668630914897;-0.8898931895277595;0.02166392062666782;0.1664872306583467;0.015055392128309754;-1.1866425385067405;0.018354236769654274;0.0336494340776996;0.6469425863282625;0.4185347100051014;0.4735103298148662;1.8074812392123327;0.11188562079956069;0
0.7531857852377208;-5.376439803399469;0.5672888270841621;1.2084607725824839;0.0877012388439965;1.4103828102215576;0.007691507294771721;0.06390566189120017;0.010998055597949355;-4.004942488156445;0.0158050372183134;0.023452635872336102;0.655007966879543;0.4290354366756725;1.0179067276982057;-5.0014222696291775;0.10497426650270893;0
0.9930990025531635;-3.722374888187561;0.9862456288720883;1.422200956571377;0.04869148584907446;3.558851122004839;0.002370860794190619;0.029736455243789983;0.011611223855435714;2.5844000502248186;0.010196798205363549;0.0254919955134088;0.8786747334787828;0.77206928725401;1.2445067014274978;-3.6244589981164648;0.1447670435266337;0
2.041872937995857;1.5183587941181909;4.169245094919833;1.7019529858509932;0.03511503097217691;3.2014967040821425;0.0012330654001769432;0.022828546511246994;0.017999105985283027;-2.5373282534536123;0.02370755582747015;0.0397675130009177;1.6293585910228816;2.65480941814007;1.4047896236122766;1.1613447666359331;0.31581802360600536;0
2.528028051719812;-2.674216249780587;6.390925830282267;3.435642078364701;0.1355136926191499;2.9244483245411352;0.018363960887277438;0.11778366781716887;0.020399968414135352;0.4357067588534189;0.02217803609666562;0.0458855919241358;2.0094771122251585;4.037998264556761;2.6211563168658385;-1.9593584735091945;0.45718127437234585;0
1.5065221416898156;3.5105534129265052;2.269608963401669;0.8611194601553152;0.2742119241358991;-0.166251182754241;0.0751921793383121;0.3182139352576909;0.026398681484653047;2.1407506454373966;0.020138676455592947;0.062200469052717505;1.1943311865047568;1.42642698305786;0.9649673664374041;3.267717660732938;0.36225578417778476;0
0.7025746755594969;2.2953399851870824;0.4936111747375323;0.44614607712436527;0.3114473487885292;-2.803995333594303;0.09699945106740376;0.41438352250006494;0.019901179291534787;1.30201352624875;0.016569797083715726;0.04792495156520861;0.3514200471632101;0.12349604954819282;0.5155617204355174;-3.7309223898731236;0.12341257452083475;1
1.0719519502465045;-3.106479129209875;1.1490809836372842;1.4517652541352652;0.24385945582261329;1.011544116848647;0.059467434194101075;0.2468576587307756;0.032739768567595154;-2.3090008293886353;0.042061792597124496;0.0734169470786173;0.6028165378978232;0.36338777836311764;0.8314106843712921;-2.4333948165250074;0.19815909615296362;0
1.3526455430308548;0.30497638150040096;1.8296499650812361;1.3256175745293044;0.16028466819930676;0.04502777734357544;0.025691174859761856;0.16221780432163801;0.04664594039776662;0.14634471971430685;0.0469052717446721;0.1111451004384623;1.0434628949099376;1.0888148130538273;1.0202930079060044;0.5429339006815237;0.2856299973141317;0
1.379775774954268;-2.6762024241159725;1.9037811891506509;1.8157152195976485;0.18412611062759518;-1.060139319162479;0.03390242461484542;0.21732836526903276;0.028708408842362452;-2.109623115169107;0.037218313449576775;0.0632201488732537;1.1922402775029457;1.4214368793003012;1.5745949878081564;-2.6688369804942234;0.26531395971443544;0
1.1248029694919432;0.22948331132659128;1.2651817201778932;1.3277452570055326;0.19864427698861953;-2.0682753013439523;0.0394595487803314;0.2491006697909246;0.016533807749503596;-1.617313599272416;0.020138676455592922;0.037728153359845;0.9884341042855904;0.9770019785148575;1.1653619052444952;0.15919970469303912;0.19210794878726364;0
0.5267591494534816;-5.610150900019331;0.2774752015329553;0.867626525511052;0.16893720891202096;-0.3653622759118793;0.028539780554983813;0.18716899271653875;0.03223838873949617;2.2162160452780135;0.028805954930151898;0.0723972672580809;0.4949858734551621;0.24501101492016975;0.8412273341111316;-5.959579872902213;0.09071712761393459;0
0.7959701929164607;-1.302709909541658;0.6335685480114676;1.0381994838063804;0.1546181879103669;-0.002358901557398596;0.023906784032685535;0.1590176541078312;0.03959282507971236;-4.149848400557076;0.057611909860303775;0.08361374528398069;0.807307305512474;0.6517450855338109;1.045289695777071;-1.2933216686037117;0.15370536865325343;0
0.9992295202103607;-1.497862237340179;0.9984596340598276;1.197127300002113;0.19755891142697;-0.8763172225183418;0.03902952348420937;0.23106118252853425;0.02976784047516055;2.663087141598229;0.019628836545324775;0.06933822779647181;1.015800229726483;1.0318501067123755;1.2163338003131337;-1.5075928236733187;0.21805017026220888;0
0.7777357867631818;-0.7815933242993616;0.6048729540121454;0.9179484559708682;0.23426413224098547;-1.7674454021377617;0.054879683654621925;0.2862054687107136;0.016721401864556628;1.3757215253344448;0.012491077801570327;0.040787192821454;0.8101032792259666;0.6562673230126644;0.9607177625024335;-0.9196245670608629;0.20280031528142184;0
0.6556296928516544;0.6030955243055285;0.42985029414875475;0.6069095455910469;0.21275912450311807;-1.2280069902505524;0.0452664450593333;0.2534679772791455;0.03177274979719487;-0.6429558436212819;0.03594371367390638;0.0734169470786172;0.687168086985797;0.47219997977171996;0.6511172065817554;0.47293575657548637;0.20386064516592217;0
0.3952244815026496;0.8175857725586297;0.15620239077903822;0.37035984878444994;0.21122352580706188;0.33292625321219305;0.044615377854366534;0.2066305182878837;0.027619335057385095;-2.7149870541270005;0.0387478331803813;0.057102069950035604;0.41383458871506434;0.17125906681696645;0.4244651773512502;0.02661336152471705;0.1350578941846972;0
