lat;lon;vel;class;acc_X;acc_Y;acc_Z;fb_tilt;tilt;acc
53.7250776;86.8446936;11.0;60.0;-0.0071377587437544;-0.9584990313041704;-0.0183542367696543;1.0969887433135102;2.427923163152554;0.9587013187736384
53.7251056;86.8445168;10.0;60.0;0.003059039461609;-0.9697155093300704;-0.0662791883348628;3.9100147853564784;-0.0974257398291267;0.9719827455073644
53.7250992;86.8443568;10.0;60.0;-0.0410421127765881;-1.0344651779341285;-0.0622004690527174;3.438247479611754;-2.17289503899586;1.0371458709987869
53.7250621;86.8441149;11.0;60.0;0.0479249515652085;-1.0135617416131335;-0.023452635872336;1.3240421848115118;-3.83110541036327;1.0149651379105276
53.7249454;86.8438702;11.0;60.0;-0.0774956663607627;-0.9839910268175792;-0.0836137452839808;4.842067384636279;-5.1046775299469775;0.9905731560882451
53.7248217;86.8437465;10.0;60.0;-0.1356174161313347;-0.951361272560416;-0.0560823901294993;3.339973300853696;-6.026232073762607;0.9626139355777845
53.7247175;86.8437191;13.0;60.0;-0.0591414295911083;-0.8942592026103804;0.0356887937187723;-2.2804155489441458;-6.628389717825781;0.8969230291081474
53.7246074;86.8436602;11.0;60.0;-0.1651881309268889;-1.0380340573060058;-0.0397675130009177;2.166714948872309;-6.9437711381521225;1.0518475544567119
53.7244997;86.8435525;10.0;60.0;-0.1498929336188436;-1.0247782196390334;-0.0193739165901906;1.0716741618822156;-7.004997010757254;1.0358637167308515
53.7244117;86.8434389;11.0;60.0;-0.1621290914652799;-1.01458142143367;-0.037728153359845;2.102958966540306;-6.844688011656796;1.028146252521336
53.7243759;86.8432495;11.0;60.0;-0.1723258896706434;-0.9972468644845518;-0.0428265524625267;2.4231753708780315;-6.495464816866376;1.0129321964331444
53.7244356;86.8430788;10.0;60.0;-0.1284796573875803;-0.9850107066381156;-0.095849903130417;5.511472264405756;-5.989948102401611;0.9979680949230092
53.724538;86.843002;13.0;0.0;-0.1519322932599164;-0.9982665443050882;-0.0678087080656673;3.841824142834765;-5.360758544278127;1.0120363314148237
53.7247261;86.8430621;16.0;0.0;-0.058121749770572;-0.9941878250229428;-0.0713775874375446;4.099521493691061;-4.6405168185116725;0.9984399477227696
53.7248705;86.8432321;18.0;0.0;0.0112164780258998;-0.99214846538187;-0.0571020699500356;3.2937549731072324;-4.242059897687249;0.9938536276190191
53.7250552;86.8433656;18.0;30.0;0.0254919955134087;-1.0370143774854697;-0.049454471296013;2.72950270166509;-3.614570704155645;1.038505852500601
53.7252264;86.8434856;18.0;0.0;-0.0224329560517997;-0.9952075048434792;-0.0683185479759355;3.926059217944956;-3.0379426399618863;0.9978019037923037
53.7254093;86.8436173;20.0;0.0;-0.0132558376669725;-0.9870500662791885;-0.0448659121035994;2.602327860081072;-2.1169038716067434;0.9881581354433567
53.7256204;86.8437004;18.0;0.0;0.0040787192821454;-0.9809319873559702;-0.0387478331803813;2.2620472798893325;-1.4529232810759525;0.9817054519280671
53.7257926;86.8438726;19.0;0.0;-0.0050983991026817;-0.9972468644845518;-0.0825940654634444;4.734488565628915;-0.9794302488261956;1.0006743136742644
53.7259824;86.8439344;19.0;0.0;-0.0499643112062812;-1.0288569389211788;-0.0703579076170082;3.907464295735791;-0.359294530861093;1.0324694999489428
53.7261489;86.8440497;19.0;0.0;-0.0295707147955541;-1.0054043030488429;-0.0856531049250535;4.867329639164231;-0.0540379407312985;1.0094794173958932
53.7263161;86.8441401;19.0;0.0;-0.0101967982053635;-1.0043846232283062;-0.078515346181299;4.469639748472197;0.198681730026063;1.007500424643621
53.7264899;86.8442883;19.0;30.0;0.0209034363209951;-0.9997960640358926;-0.0759661466299581;4.344132818400109;0.0944975376013339;1.0028957965539056
53.7267295;86.8444511;20.0;0.0;-0.0112164780258998;-0.9737942286122158;-0.0632201488732537;3.714267521603129;-0.1655240470135997;0.9759087028412659
53.7270407;86.8446343;23.0;0.0;0.0010196798205363;-1.0054043030488429;-0.0448659121035994;2.555113163083219;-0.3308291130742031;1.0064053867130054
53.7273442;86.8448098;27.0;0.0;-0.020393596410727;-0.99214846538187;-0.0479249515652085;2.7648948985518715;-0.6358879803688104;0.9935146084062835
53.7276674;86.845005;28.0;0.0;0.0152951973080452;-1.0105027021515245;-0.0418068726419904;2.3688389816746955;-0.6884543562946503;1.0114828069306607
53.727947;86.8451566;27.0;0.0;-0.0086672784745589;-0.9941878250229428;-0.0489446313857448;2.818332855209885;-0.4866356463674486;0.9954296208579949
53.7282397;86.8454237;25.0;0.0;-0.0091771183848271;-0.9992862241256244;-0.0632201488732537;3.619858238424071;-0.1497787336186472;1.0013261029518072
53.7285053;86.8456381;22.0;0.0;0.0076475986540226;-0.9870500662791885;-0.0764759865402263;4.430255541411404;0.0072458039452453;0.9900378253502359
53.7287405;86.8457709;19.0;0.0;-0.0071377587437544;-1.015601101254206;-0.0734169470786173;4.134569616905668;0.2182668029665129;1.0182762849968492
53.7289027;86.8458819;20.0;0.0;-0.0224329560517997;-1.0227388599979603;-0.0672988681553992;3.763880555607583;0.4397436495701354;1.0251961524128674
53.729166;86.8460684;21.0;0.0;-0.003059039461609;-0.9901091057407974;-0.0601611094116447;3.477120352911184;0.7653784711652143;0.9919398964044692
53.7293754;86.8462266;19.0;0.0;-0.0112164780258998;-1.009483022330988;-0.0805547058223717;4.562139362709727;1.0030981864716904;1.0127540878139867
53.7297204;86.846418;17.0;0.0;-0.0173345569491179;-0.9962271846640156;-0.0938105434893443;5.378631531490085;1.2775078340152262;1.0007844465208175
53.729867;86.8465902;14.0;30.0;0.0530233506678902;-0.9880697460997246;-0.095849903130417;5.532856163839533;1.5711789287193316;0.9941229817299942
53.7299789;86.8467277;12.0;30.0;0.0672988681553992;-0.9901091057407974;-0.1254206179259712;7.202963193159082;1.955661079771462;1.000287713773778
53.7300759;86.8468503;10.0;30.0;0.058121749770572;-0.9941878250229428;-0.1396961354134801;7.984968599488755;2.217730550220669;1.005635410807368
53.7301904;86.8469648;10.0;30.0;0.0540430304884266;-0.9992862241256244;-0.1182828591822167;6.74077970761481;2.3211531536729098;1.0077124796527732
53.730357;86.8472338;12.0;0.0;0.0479249515652085;-0.99775670439482;-0.1386764555929438;7.903750786597208;2.2554433627947224;1.0084871845904446
53.730425;86.8474298;12.0;0.0;0.0428265524625267;-0.99214846538187;-0.1254206179259712;7.198092176097767;2.200249605461454;1.0009610493702328
53.7304794;86.8476122;11.0;0.0;0.0295707147955541;-0.9788926277148976;-0.1437748546956255;8.351820436511229;2.112647109752298;0.9898365585342084
53.7305173;86.8477781;11.0;0.0;0.0489446313857448;-0.9895992658305292;-0.1244009381054349;7.156319944896401;1.9468849471775929;0.9985879416833155
53.7305873;86.8482065;18.0;0.0;0.0458855919241358;-0.9982665443050882;-0.0622004690527174;3.561652682758901;1.797980322895686;1.0012544528617233
53.7306572;86.8485324;22.0;30.0;0.0703579076170082;-0.9707351891506067;-0.0672988681553992;3.9554979543092017;1.8651054583082665;0.9756055454303781
53.7307819;86.8488875;21.0;30.0;0.0418068726419904;-1.0043846232283062;-0.0509839910268175;2.903411188070362;1.625762299281465;1.0065463989894319
53.7309317;86.8491141;18.0;30.0;0.014785357397777;-0.9870500662791885;-0.0815743856429081;4.723924147200173;1.3706315968900324;0.9905255274490145
53.7310838;86.8492406;14.0;0.0;-0.0020393596410727;-0.9880697460997246;-0.1142041399000713;6.593152000271623;1.1338568805544311;0.9946499724604807
53.7312343;86.8492887;11.0;0.0;-0.0122361578464362;-0.9906189456510656;-0.1147139798103395;6.604948693445872;0.7641430648836683;0.9973138504029705
53.7313377;86.8493153;9.0;0.0;-0.0285510349750178;-0.9972468644845518;-0.1091057407973896;6.241186333996477;0.5945386891187898;1.0036037729090908
53.7314392;86.8492888;10.0;0.0;-0.0479249515652085;-1.0074436626899157;-0.1223615784643621;6.917335164405167;0.4561750847310982;1.0159782922685359
53.7315528;86.8493256;10.0;0.0;-0.0091771183848271;-1.017640460895279;-0.1356174161313347;7.59057776943323;0.314631325452693;1.0266783384834535
53.7316784;86.8493232;10.0;0.0;0.0071377587437544;-0.9992862241256244;-0.1172631793616804;6.69270617655775;0.1959181967355103;1.0061682555920461
53.7318308;86.8492964;13.0;0.0;0.0346691138982359;-1.0003059039461608;-0.1040073416947078;5.932492767368887;0.1868306896013699;1.0062958690437094
53.7320123;86.8492731;15.0;0.0;0.0193739165901906;-0.986030386458652;-0.0774956663607627;4.492979709903728;0.1544279587504457;0.9892607593392861
53.7321752;86.8492568;17.0;0.0;0.037728153359845;-1.0003059039461608;-0.0693382277964719;3.9624218578666426;0.0858320730192135;1.0034157188620503
53.7323454;86.8492222;16.0;0.0;0.0509839910268175;-0.9941878250229428;-0.0825940654634444;4.74284757098753;0.1434954357798337;0.9989147002695735
53.7325046;86.8491254;15.0;0.0;-0.0448659121035994;-0.9962271846640156;-0.1091057407973896;6.24378499391484;0.2009501608446212;1.00318772730104
53.7326434;86.8489826;14.0;0.0;0.0091771183848271;-1.0013255837666972;-0.0968695829509534;5.525444861137872;0.3454747322631853;1.0060421762076666
53.7327649;86.8488481;12.0;0.0;0.0183542367696543;-1.0135617416131335;-0.1233812582848985;6.939362916440364;0.5028006677536835;1.021208703921588
53.7328571;86.8487611;10.0;0.0;-0.0132558376669725;-0.9931681452024064;-0.1254206179259712;7.196770889452452;0.5663896169184165;1.0011438524397849
53.7329284;86.8486276;10.0;0.0;-0.0020393596410727;-0.979912307535434;-0.1284796573875803;7.469621440793904;0.5553291840358409;0.9883012252393472
53.7330034;86.8484722;10.0;0.0;-0.0040787192821454;-0.9992862241256244;-0.1152238197206077;6.5774520814389135;0.3861143852787322;1.0059155642046889
53.7330525;86.8483165;11.0;0.0;0.0086672784745589;-0.9972468644845518;-0.1019679820536351;5.837955658004416;0.1549115362924414;1.0024838651093173
53.733094;86.8481788;12.0;0.0;0.0142755174875089;-0.9911287855613338;-0.0938105434893443;5.406391931661744;-0.0891313868484803;0.9956608247980768
53.7331212;86.8479244;13.0;0.0;0.0178443968593861;-1.0074436626899157;-0.1029876618741715;5.8359745186183885;-0.3335847577420616;1.0128512301871666
53.7331168;86.8477152;13.0;0.0;-0.0142755174875089;-1.00897318242072;-0.1091057407973896;6.171109103733199;-0.5782834884522378;1.0149555339613054
53.7331181;86.8474861;12.0;0.0;-0.0081574385642908;-0.9850107066381156;-0.0887121443866625;5.146119166857742;-0.7592473419136933;0.9890310816942661
53.7331285;86.8472405;11.0;0.0;-0.0071377587437544;-0.9819516671765066;-0.1203222188232894;6.985659795617867;-0.9815103580730108;0.989321717447446
53.7331467;86.8470283;11.0;0.0;-0.0249821556031406;-0.9727745487916796;-0.1284796573875803;7.521368963817731;-0.9978619794673934;0.9815403472287144
53.7331618;86.846813;11.0;0.0;-0.0254919955134087;-1.0054043030488429;-0.113184460079535;6.421044035369262;-0.9201967932069948;1.012076270064604
53.733178;86.8465988;13.0;0.0;-0.0142755174875089;-1.0003059039461608;-0.1029876618741715;5.877648186579761;-1.0892493023662198;1.0056948594714954
53.7331949;86.8463085;15.0;0.0;-0.0387478331803813;-1.017640460895279;-0.0825940654634444;4.636742632340276;-1.1238119608593962;1.0217217242855856
53.7332196;86.8460004;16.0;0.0;-0.037728153359845;-1.0084633425104517;-0.095849903130417;5.42562324601213;-1.1486303661999768;1.0137104767503426
53.7332306;86.8457298;18.0;0.0;-0.040787192821454;-1.0232486999082289;-0.0836137452839808;4.667798015747743;-1.31480256121386;1.0274691019016335
53.7332721;86.8450545;17.0;0.0;-0.0081574385642908;-0.9931681452024064;-0.07545630671969;4.344574669870891;-1.3638048994020535;0.9960638346373661
53.7332918;86.844767;17.0;0.0;-0.0122361578464362;-0.9839910268175792;-0.0948302233098807;5.504346141907472;-1.5188124161324414;0.9886257308351623
53.7333031;86.8444711;15.0;0.0;-0.0479249515652085;-0.979912307535434;-0.0978892627714897;5.697924445762862;-1.6036705632434038;0.9859549884289305
53.7332923;86.8442043;15.0;0.0;-0.0316100744366268;-0.9931681452024064;-0.0989089425920261;5.6844355222151135;-1.6085666829988046;0.9985815642076264
53.7332857;86.8439417;14.0;0.0;-0.0214132762312633;-0.9972468644845518;-0.0978892627714897;5.604882225926206;-1.5883157114396438;1.0022684993998225
53.7332863;86.8436863;13.0;0.0;-0.0061180789232181;-0.99214846538187;-0.1040073416947078;5.984369639845026;-1.656714789863201;0.9976038970331411
53.7332861;86.8434557;13.0;0.0;0.0081574385642908;-0.9824615070867748;-0.1121647802589986;6.512870566434237;-1.6854073350652907;0.9888771888569867
53.7332806;86.8432454;12.0;0.0;-0.023452635872336;-0.9982665443050882;-0.1070663811563169;6.120026958692048;-1.6461217735555016;1.0042655672590257
53.7332743;86.8430343;13.0;0.0;-0.023452635872336;-1.0074436626899157;-0.0866727847455898;4.915859679458755;-1.5302341816049914;1.0114370624210822
53.7332628;86.8427924;15.0;0.0;-0.0438462322830631;-1.0043846232283062;-0.0795350260018354;4.523389315051898;-1.3907296364223094;1.0084824162195392
53.7332561;86.8424273;18.0;0.0;-0.0438462322830631;-0.9982665443050882;-0.0713775874375446;4.085849981916694;-1.1767970899296103;1.0017750972911272
53.7332657;86.8417457;20.0;0.0;-0.0367084735393086;-1.0135617416131335;-0.0713775874375446;4.025633020231747;-1.2325662236704422;1.01673481108883
53.7332732;86.8413692;21.0;0.0;-0.020393596410727;-1.020699500356888;-0.0601611094116447;3.3724998108978497;-1.0597900254111374;1.0226743019598197
53.733291;86.8409774;21.0;0.0;-0.0469052717446721;-0.9952075048434792;-0.0672988681553992;3.8643433428971568;-1.0060000524870265;0.9985826054309294
53.7333367;86.8406391;20.0;0.0;-0.0142755174875089;-1.012542061792597;-0.0795350260018354;4.490908154723262;-0.8410041859549939;1.0157613093930349
53.7334025;86.8402953;19.0;0.0;-0.0122361578464362;-0.9819516671765066;-0.0703579076170082;4.097984189080928;-0.6362494003405067;0.9845450905843811
53.7334912;86.84;19.0;0.0;-0.0178443968593861;-1.01458142143367;-0.0734169470786173;4.138174620066025;-0.6326485681296203;1.017390746633753
53.7335872;86.839712;19.0;0.0;-0.0040787192821454;-1.012542061792597;-0.0764759865402263;4.319240117580312;-0.5808072329005164;1.0154342122301607
53.7336918;86.8394326;19.0;0.0;0.0101967982053635;-0.9880697460997246;-0.0764759865402263;4.425599314303062;-0.5751980691281874;0.9910773806159214
53.7338171;86.8391739;19.0;0.0;0.0219231161415315;-1.011522381972061;-0.0723972672580809;4.09286802969275;-0.5475305714344096;1.0143468423365969
53.7339337;86.8389577;18.0;0.0;0.0224329560517997;-1.0166207810747423;-0.0825940654634444;4.643596164708173;-0.5734538610986963;1.0202170502790182
53.7340608;86.8386752;16.0;0.0;-0.0091771183848271;-0.9931681452024064;-0.0999286224125624;5.745293059825651;-0.5816424527259503;0.9982248813388243
53.7341315;86.8384131;18.0;0.0;-0.0163148771285816;-1.00336494340777;-0.0734169470786173;4.184364968521628;-0.5633547812696318;1.0061796226289532
53.734167;86.8380902;21.0;0.0;-0.0305903946160905;-1.0074436626899157;-0.0576119098603038;3.27146067500612;-0.5745876928349452;1.0095531872539418
53.7341984;86.8376608;24.0;0.0;0.0367084735393086;-1.047211175690833;-0.0346691138982359;1.8949862141872744;-0.5792658463836224;1.0484277304515806
53.7342279;86.8372039;26.0;0.0;-0.0367084735393086;-0.9880697460997248;-0.0601611094116447;3.4818997984014604;-0.5240194384289023;0.990579978736094
53.7342387;86.8368051;25.0;0.0;-0.0142755174875089;-1.0186601407158151;-0.0764759865402263;4.293010768399797;-0.4481054106289847;1.0216265703279264
53.7342793;86.8363337;25.0;0.0;-0.0214132762312633;-1.0400734169470789;-0.061180789232181;3.365749050082669;-0.5270048849198049;1.0420913251774055
53.7345026;86.8355842;26.0;0.0;-0.0387478331803813;-0.9635974304068522;-0.0479249515652085;2.8449897837649103;-0.4739413491560285;0.9655662605152433
53.7347057;86.8352753;29.0;0.0;-0.023452635872336;-0.954420312022025;-0.0428265524625267;2.568466736420395;-0.4033632132970038;0.9556684946807682
53.734953;86.8348826;33.0;0.0;-0.0367084735393086;-1.00336494340777;-0.0316100744366268;1.8032475326891104;-0.4467561506345059;1.0045336821108353
53.7352795;86.8343899;32.0;0.0;-0.020393596410727;-1.020699500356888;-0.0040787192821454;0.2289072602687018;-0.5900683627773826;1.0209113598909294
53.7354999;86.8340471;30.0;0.0;-0.0101967982053635;-1.0074436626899157;-0.0122361578464362;0.6958303021406285;-0.5522732940981564;1.0075695667032407
53.7356996;86.833658;28.0;60.0;0.037728153359845;-0.9758335882532884;0.0061180789232181;-0.3589483129574071;-0.2928243744477193;0.9765818124504179
53.7358416;86.8332624;26.0;60.0;0.0214132762312633;-1.0166207810747423;-0.0295707147955541;1.6657383034900322;-0.1098172464757947;1.0172761513401833
53.7358607;86.8328463;21.0;60.0;0.023452635872336;-1.0339553380238604;-0.0917711838482716;5.070835387434512;-0.088834277253704;1.0382849403426349
53.7358263;86.8325047;18.0;60.0;0.0152951973080452;-1.0196798205363515;-0.0836137452839808;4.687240912505624;-0.0826725185491317;1.0232165645014513
53.7357816;86.8322296;17.0;0.0;0.0081574385642908;-1.00336494340777;-0.0774956663607627;4.416370290982188;-0.0358285240955046;1.0063862736386593
53.7357497;86.8318905;20.0;0.0;-0.0122361578464362;-0.986030386458652;-0.0509839910268175;2.959689812683932;0.1492110531816671;0.9874234218002246
53.7356912;86.8314992;26.0;0.0;-0.0122361578464362;-0.9992862241256244;-0.0520036708473539;2.9788088528693977;0.0405910795003242;1.0007132771516978
53.7356192;86.8310432;30.0;0.0;-0.0010196798205363;-1.0003059039461608;-0.037728153359845;2.1599779430015986;-0.0368256528348417;1.001017659570712
53.735575;86.8305382;33.0;0.0;-0.020393596410727;-1.0013255837666972;-0.0214132762312633;1.224825510236137;-0.1895720252866505;1.00176212340018
53.7355282;86.8299282;35.0;0.0;-0.0367084735393086;-1.0370143774854697;-0.0601611094116447;3.3181488587264267;-0.5320204608776011;1.0394064124426028
53.7354619;86.8291451;36.0;0.0;-0.0152951973080452;-0.9931681452024064;-0.0428265524625267;2.468837869657038;-0.8498160399223619;0.9942087413120575
53.7353967;86.8285167;37.0;0.0;0.0326297542571632;-0.9931681452024064;0.0061180789232181;-0.3527566229578782;-1.1940142276863877;0.993722846873001
53.7353299;86.8278611;36.0;30.0;0.0020393596410727;-0.979912307535434;0.0101967982053635;-0.596187175449874;-1.4675511378211097;0.9799674811649648
53.7352398;86.827259;36.0;0.0;-0.0540430304884266;-0.9722647088814113;0.0122361578464362;-0.7199302929351804;-1.6918575123929245;0.9738424086265043
53.7351396;86.8264932;36.0;0.0;-0.0356887937187723;-1.0461914958702967;0.003059039461609;-0.1674336491392516;-1.5201283762662643;1.046804515538053
53.7350826;86.8256938;34.0;0.0;-0.0142755174875089;-1.0003059039461608;0.0040787192821454;-0.2335968537436967;-1.4399188235780096;1.0004160773498518
53.7350163;86.8250899;35.0;0.0;-0.0203935964107269;-1.0079535026001831;-0.0214132762312633;1.2167772584739276;-1.3923429080049;1.0083871729536713
53.7349134;86.8243726;35.0;0.0;-0.0642398286937901;-1.01458142143367;0.0295707147955541;-1.6661201274954676;-1.3197230344394428;1.0170430883116475
53.7347801;86.8236505;34.0;0.0;-0.0520036708473539;-0.9870500662791885;0.0101967982053635;-0.5910577889504338;-1.358820846640128;0.9884716434056119
53.7346673;86.8230769;34.0;0.0;-0.040787192821454;-1.011522381972061;-0.0091771183848271;0.5193842769846039;-1.3191024128899644;1.0123859658403684
53.7345743;86.8225743;33.0;0.0;-0.0397675130009177;-0.99214846538187;0.0152951973080452;-0.8825069202454852;-1.3569700699017615;0.9930629262592425
53.7344977;86.8220113;31.0;0.0;-0.0316100744366268;-1.0186601407158151;-0.0040787192821454;0.2293009325664529;-1.2111316107439247;1.0191586309500773
53.734434;86.8213076;31.0;0.0;0.0040787192821454;-1.015601101254206;0.0132558376669725;-0.7477879870071664;-1.3469084040756194;1.0156957960196507
53.7343635;86.8206483;30.0;0.0;0.0142755174875089;-1.006423982869379;0.0112164780258998;-0.638464130855911;-1.2669937341557846;1.0065877175256541
53.734259;86.8201598;30.0;30.0;0.0142755174875088;-1.018150300805547;0.0458855919241357;-2.580184002950325;-1.1228384539241738;1.019283725454395
53.7340338;86.8196786;29.0;30.0;0.0112164780258998;-0.9962271846640156;0.0091771183848271;-0.5277530730882692;-0.9122127748596388;0.9963325912288252
53.7337524;86.8194228;26.0;30.0;0.0122361578464362;-1.011522381972061;0.040787192821454;-2.308894045567732;-0.6002810392889233;1.0124183166495602
53.7334836;86.8193332;23.0;30.0;-0.0601611094116447;-1.0298766187417152;0.0591414295911083;-3.281061905545658;-0.7468876718162504;1.0333261429048373
53.7332471;86.8193015;23.0;30.0;-0.0458855919241358;-0.99214846538187;-0.0193739165901906;1.117491811786513;-1.0723896502944978;0.9933979129985484
53.7329834;86.8192682;28.0;30.0;-0.0305903946160905;-1.0533292546140511;0.0193739165901906;-1.0532801935268583;-1.2661813414099703;1.0539514407754298
53.7326762;86.819089;35.0;30.0;-0.037728153359845;-1.021209340267156;0.0295707147955541;-1.6574953573698292;-1.198768353753653;1.0223337798284589
53.7323586;86.8188482;33.0;30.0;0.003059039461609;-1.012542061792597;0.0316100744366268;-1.7881010957160235;-1.497842175434247;1.0130399703010342
53.7319693;86.8185613;34.0;0.0;-0.0346691138982359;-1.015601101254206;0.0193739165901906;-1.0922231785597334;-1.78574176650875;1.0163773378875036
53.7315808;86.8182752;33.0;0.0;-0.0071377587437544;-1.0003059039461608;0.0275313551544814;-1.576509940809265;-1.9382441015259908;1.0007101601293313
53.7312535;86.8180247;33.0;0.0;-0.0530233506678902;-1.0329356582033242;0.0224329560517997;-1.2424998413170685;-1.857630077741589;1.0345389249425112
53.730948;86.8178216;31.0;0.0;0.023452635872336;-0.986030386458652;0.0061180789232181;-0.355401313471258;-1.8652711473563413;0.9863282313909857
53.7306576;86.817608;31.0;0.0;-0.0601611094116447;-1.0003059039461608;-0.0479249515652085;2.738020399583258;-1.8821888186646576;1.0032587211371318
53.7303598;86.8173358;32.0;30.0;-0.0795350260018354;-1.0003059039461608;0.0356887937187723;-2.036902219035228;-2.202111772742547;1.0040973119313483
53.7300965;86.8170469;31.0;30.0;-0.0571020699500356;-1.0186601407158151;0.0122361578464362;-0.6871258720292542;-2.5149069432848834;1.0203327164384106
53.7298716;86.8166428;31.0;30.0;-0.116243499541144;-0.9228102375853982;0.0091771183848271;-0.5653064037592592;-2.6269896739705985;0.9301481093244451
53.7295149;86.8155693;31.0;30.0;-0.058121749770572;-0.9381054348934434;0.0489446313857448;-2.980931491353422;-2.8216867229672866;0.9411777312040994
53.7293934;86.8150894;30.0;30.0;0.0122361578464362;-0.9401447945345162;0.0081574385642908;-0.4970888492851102;-3.1732378609352883;0.9402598056139169
53.7292646;86.8146278;31.0;30.0;0.0091771183848271;-0.9829713469970428;0.0112164780258998;-0.653733154095198;-3.5407877602234783;0.9830781748662389
53.7291313;86.8140849;34.0;30.0;-0.0764759865402263;-1.0257978994595698;-0.0142755174875089;0.7950990293523423;-3.7778373909927647;1.0287437472240124
53.7290127;86.8135823;35.0;30.0;-0.0122361578464361;-1.0089731824207198;0.0392576730906495;-2.22800750503925;-3.993344886014681;1.0098107601424784
53.7288498;86.8128818;30.0;30.0;-0.0081574385642908;-0.9534006322014889;0.011726317936168;-0.7046461267874657;-3.65551802230716;0.9535076380493598
53.7287233;86.8123969;29.0;30.0;-0.046395431834404;-1.0370143774854697;0.0214132762312633;-1.181748808164513;-3.7852361007773463;1.0382725478435966
53.7286361;86.8119001;26.0;30.0;-0.1468338941572346;-0.9982665443050882;0.0020393596410727;-0.1158034331512022;-4.151327104382215;1.0090096357022296
53.7286928;86.8114704;25.0;30.0;-0.1590700520036708;-1.020699500356888;0.003059039461609;-0.1696670953118693;-4.204069582602642;1.0330247379398418
53.72888;86.8112224;23.0;0.0;-0.1549913327215254;-1.017640460895279;-0.023452635872336;1.305164447599314;-3.715000233225079;1.0296428735242675
53.7291103;86.8111199;25.0;0.0;-0.0499643112062812;-1.0043846232283062;-0.0448659121035994;2.5545503506275726;-3.340360188980956;1.0066269685641611
53.7293851;86.8109851;30.0;0.0;-0.0295707147955541;-1.0339553380238604;-0.0285510349750178;1.5810838837077488;-2.892160377405815;1.0347720665923004
53.7296761;86.8108665;31.0;0.0;-0.0744366268991536;-1.0054043030488429;-0.0112164780258998;0.63743141401527;-2.308031100380041;1.008218445274911
53.7299848;86.8107144;32.0;60.0;-0.0254919955134087;-1.0084633425104517;0.0254919955134087;-1.4475554999515836;-2.223230646060674;1.009107524923813
53.7302992;86.810568;33.0;60.0;-0.0275313551544814;-0.9778729478943612;-0.0183542367696543;1.0748640095757802;-2.0481623146633567;0.9784326015355614
53.730633;86.8104154;30.0;60.0;0.0010196798205363;-0.9982665443050882;0.0489446313857448;-2.8069411866501435;-1.698951387945258;0.9994662126191388
53.7309362;86.8102578;29.0;60.0;-0.0010196798205363;-1.0003059039461608;0.0101967982053635;-0.5840343049496243;-1.1996032862322583;1.000358393732028
53.7311928;86.8100792;28.0;60.0;0.0081574385642908;-1.0400734169470789;-0.0214132762312633;1.1794160968785916;-0.960684470041157;1.0403258070637578
53.7314511;86.8097999;29.0;60.0;-0.1070663811563169;-0.9115937595594984;0.0183542367696543;-1.1455783368342238;-0.3985666902629409;0.9180431746106099
53.7316465;86.8094577;26.0;60.0;0.0;-1.0084633425104517;-0.0734169470786173;4.163833415590438;0.1953668219185974;1.0111322175193989
53.7317883;86.8090875;21.0;60.0;0.1611094116447435;-1.01458142143367;-0.0907515040277353;5.048426354197313;0.4874090872858551;1.031294108740168
53.7318314;86.808721;18.0;60.0;0.078515346181299;-0.9850107066381156;-0.0948302233098807;5.481824559293838;0.6725046182909733;0.9926749332136331
53.7318207;86.8084031;16.0;60.0;0.0285510349750178;-1.0013255837666972;-0.0723972672580809;4.133696493882956;0.5006450450144326;1.0043452845562126
53.7318156;86.8080908;15.0;0.0;0.0071377587437544;-0.9778729478943612;-0.0866727847455898;5.064983381030407;0.3774629957426647;0.9817324591960109
53.7318079;86.8078015;18.0;0.0;-0.0418068726419904;-1.012032221882329;-0.0622004690527174;3.5140398771092216;0.6293227097685263;1.0148033952833253
53.7317812;86.8074932;22.0;0.0;-0.0846334251045171;-1.012032221882329;-0.0387478331803813;2.185001668474292;0.6871628821637595;1.0163038076034054
53.7317715;86.8070739;25.0;0.0;-0.0254919955134087;-0.9702253492403384;0.0428265524625267;-2.526571815354885;0.8778831221554675;0.9715045978993707
53.7317695;86.8066623;21.0;30.0;-0.0091771183848271;-1.0003059039461608;0.0978892627714897;-5.588896722340252;0.8232535824051944;1.005126076040882
53.7317845;86.8062165;21.0;30.0;0.0275313551544814;-1.015601101254206;0.0622004690527174;-3.503417427269198;0.4245498415017754;1.017876451606862
53.7317689;86.8056889;22.0;30.0;0.0081574385642908;-1.0135617416131335;0.0887121443866625;-5.001913511124768;-0.0127326236211144;1.0174693078552584
53.7317344;86.805296;21.0;30.0;0.0183542367696543;-0.987050066279188;0.0504741511165493;-2.92684290008405;-0.2328832344117432;0.9885101675147718
53.7317263;86.8048015;22.0;30.0;-0.0173345569491179;-1.0349750178443968;0.061180789232181;-3.382532490235054;-0.4390601888427023;1.0369266432094915
53.7317298;86.804421;22.0;30.0;-0.0142755174875089;-1.0003059039461608;0.061180789232181;-3.499613667236697;-1.197141451884571;1.00227679851434
53.7317;86.803956;20.0;30.0;0.061180789232181;-1.0105027021515245;0.0887121443866625;-5.008016275132152;-1.6234074983876792;1.0162325740637748
53.7316474;86.8036218;21.0;30.0;-0.020393596410727;-1.012542061792597;0.0897318242071989;-5.063319990337769;-1.439449059422918;1.016714869542744
53.7315048;86.8029928;23.0;30.0;0.0438462322830631;-1.0135617416131335;0.0652595085143265;-3.680546341877121;-1.2975183752869142;1.0166064625010016
53.7314094;86.8026158;23.0;30.0;-0.0122361578464362;-1.00336494340777;0.078515346181299;-4.474061932529335;-1.2882177540772637;1.0065066282963513
53.7312992;86.8022752;22.0;30.0;-0.0774956663607627;-1.0003059039461608;0.037728153359845;-2.153532186752169;-1.02128402416576;1.0040123970002504
53.7312081;86.8019025;23.0;30.0;-0.0254919955134087;-0.9941878250229428;0.040787192821454;-2.3485076115697696;-1.251469741753671;0.9953506258386335
53.7311024;86.8014896;27.0;30.0;-0.1651881309268889;-1.012542061792597;0.0152951973080452;-0.8541390962789728;-1.7775536975073432;1.0260421475548724
53.7310999;86.8010263;27.0;0.0;-0.092790863668808;-0.9564596716630978;-0.023452635872336;1.3980645245632268;-1.7226000511475257;0.9612363257948819
53.731201;86.8005898;27.0;0.0;-0.0152951973080452;-0.9952075048434792;-0.0356887937187723;2.0535418434212342;-1.6460621789936545;0.9959646634065773
53.731449;86.7996602;28.0;30.0;0.0316100744366268;-1.0084633425104517;0.0132558376669725;-0.7527165508399565;-1.4664300966247947;1.0090457012571308
53.7314404;86.7991396;33.0;0.0;-0.0305903946160905;-0.9809319873559702;-0.020393596410727;1.190430329339425;-1.5168823256601671;0.9816207184220721
53.7314222;86.7985582;35.0;0.0;-0.0295707147955541;-1.026817579280106;0.0275313551544814;-1.5352282631581389;-1.4621842913190073;1.0276121563161944
53.7314311;86.7979271;35.0;0.0;0.0010196798205363;-1.0247782196390334;-0.0489446313857448;2.734435550571891;-1.470642088516798;1.0259468875799418
53.7314264;86.7972824;37.0;0.0;-0.0010196798205363;-1.011522381972061;-0.0010196798205363;0.0577577933401716;-1.5088962622552708;1.0115234098745836
53.73143;86.796646;35.0;30.0;0.0010196798205363;-1.0227388599979603;-0.0071377587437544;0.3998641533056768;-1.4379176978357204;1.0227642754304376
53.7314147;86.7960419;31.0;30.0;-0.0127459977567044;-0.9952075048434792;-0.0005098399102682;0.0293499364743511;-1.5525951882401083;0.995289253479777
53.731402;86.7953892;29.0;30.0;0.0086672784745589;-0.9911287855613338;0.0265116753339451;-1.5321792271337953;-1.3381320951697226;0.9915211849544378
53.7313481;86.7947977;25.0;30.0;-0.0876924645661262;-1.0003059039461608;-0.003059039461609;0.1745464747850902;-1.2630866053730692;1.0041470149005347
53.7313064;86.794372;20.0;30.0;0.0142755174875089;-1.047211175690833;0.0275313551544814;-1.5058287870639837;-1.3229612364003098;1.047670278478852
53.7312217;86.7941337;15.0;0.0;0.0683185479759355;-0.9839910268175792;-0.020393596410727;1.184456707409157;-1.1779180162130805;0.9865706582042757
53.7310901;86.7940533;18.0;0.0;-0.0622004690527174;-0.9839910268175792;-0.07545630671969;4.376383193863196;-1.5079861656266942;0.9888381533050128
53.7308907;86.7939051;21.0;0.0;-0.07545630671969;-1.023758539818497;-0.0652595085143265;3.6375452368555776;-1.7152567350489825;1.0286077996625382
53.730711;86.7937254;22.0;0.0;-0.0825940654634444;-1.0013255837666972;-0.07545630671969;4.294928521528365;-1.6596679980477052;1.0075556354759139
53.7305489;86.7934353;23.0;0.0;-0.0285510349750178;-1.0084633425104517;-0.0530233506678902;3.0085435393608884;-1.339334040121706;1.010259843060956
53.7303848;86.7931432;25.0;0.0;-0.0428265524625267;-1.0135617416131335;-0.113184460079535;6.3661886675592445;-1.3044449061832557;1.0207606181966318
53.7302295;86.7927575;27.0;0.0;-0.058121749770572;-1.0054043030488429;-0.0591414295911083;3.36086237760967;-1.2501047488997328;1.0088179514062994
53.7300775;86.7924007;23.0;0.0;-0.0509839910268175;-0.962577750586316;-0.0632201488732537;3.75242863729763;-0.9715493592892608;0.9659979712651527
53.729974;86.7920156;18.0;0.0;0.0081574385642908;-0.9850107066381156;-0.0805547058223717;4.675115773193442;-0.7292103102342946;0.9883327863760156
53.7298988;86.7917868;16.0;30.0;0.0193739165901906;-0.986030386458652;-0.1009483022330988;5.844369070213224;-0.4758779596215486;0.9913737092477223
53.7298148;86.7915748;15.0;30.0;0.0112164780258998;-1.0043846232283062;-0.095849903130417;5.45097406827643;-0.2130719408582731;1.009010150933519
53.7297409;86.7913217;15.0;30.0;0.0346691138982359;-1.00336494340777;-0.0744366268991536;4.240307896284941;0.1485838357961;1.0067194090422067
53.7296293;86.7910309;17.0;0.0;0.0265116753339451;-1.0196798205363515;-0.0836137452839808;4.686189239999629;0.2605409622914462;1.0234456818700606
53.7294998;86.790799;19.0;0.0;0.0214132762312633;-1.0135617416131335;-0.0652595085143264;3.6831595087265128;0.5608463416008511;1.0158861825580345
53.7293473;86.7904929;22.0;0.0;0.0214132762312633;-0.9850107066381156;-0.0591414295911083;3.435184665847117;0.9178147611781688;0.9870168839917361
53.7291479;86.7902423;28.0;0.0;0.0198837565004588;-1.0003059039461608;-0.0331395941674314;1.8971097378483124;0.954722280305222;1.0010521954142537
53.7289046;86.7899222;31.0;0.0;0.0132558376669725;-1.01458142143367;-0.0275313551544814;1.5542458150691647;0.9770390923350044;1.0150414540634591
53.7285456;86.7895632;34.0;0.0;-0.0122361578464362;-1.011522381972061;-0.0112164780258998;0.6352637522960164;0.7048523882302218;1.0116585699575624
53.7282026;86.7893226;35.0;30.0;0.0254919955134087;-1.0431324564086877;0.0346691138982359;-1.902990128688047;0.6888752656458892;1.044019688946031
53.7277774;86.7891278;31.0;30.0;0.0254919955134087;-0.9901091057407974;0.0214132762312633;-1.2385431653727883;0.5998170736022179;0.9906686688823129
53.7274575;86.7891151;29.0;30.0;-0.0112164780258998;-1.008463342510452;0.0122361578464362;-0.6951194131182296;0.4009342047472438;1.0085999435482345
53.7270797;86.7890957;28.0;30.0;0.0020393596410727;-1.0054043030488429;0.0387478331803813;-2.2070569568559986;0.262352184387497;1.0061527548802167
53.7266127;86.7890639;33.0;30.0;0.0081574385642908;-1.0186601407158151;0.0876924645661262;-4.920082027550732;0.0277362504843937;1.0224602654522943
53.7261698;86.7890562;33.0;30.0;-0.0050983991026817;-1.0054043030488429;0.0326297542571632;-1.8588215838896935;-0.0866860123301946;1.0059465726992773
53.7258391;86.7890327;33.0;30.0;-0.0132558376669725;-1.009483022330988;0.0336494340776996;-1.908987977157494;-0.2799478979186535;1.010130671755149
53.7255217;86.7890481;30.0;30.0;-0.0571020699500356;-1.0808606097685327;-0.0152951973080452;0.8096063397761647;-0.4916137276102297;1.082475979965595
53.7252218;86.7891578;29.0;30.0;-0.0356887937187723;-1.0196798205363515;-0.0142755174875089;0.8015977485592163;-0.5975461832756302;1.020404045859131
53.7249337;86.7893049;28.0;30.0;0.023452635872336;-1.060976853268074;-0.0305903946160905;1.6511080121120518;-0.8126119163339538;1.061676825377079
53.7246827;86.7895403;23.0;30.0;0.0020393596410727;-1.0217191801774244;-0.0469052717446721;2.6284944005332034;-0.8544387062150844;1.022797314548496
53.724487;86.789831;25.0;30.0;-0.0275313551544814;-0.974813908432752;-0.0326297542571632;1.91637099686139;-0.992415882744294;0.9757483448376753
53.7242952;86.7901512;27.0;30.0;0.0316100744366268;-1.0298766187417152;-0.0316100744366268;1.7572044245962983;-1.3738856186042456;1.0308463723769155
53.7241025;86.7905729;29.0;0.0;-0.0101967982053635;-1.009483022330988;-0.0061180789232181;0.3472251842082067;-1.4917996418900608;1.009553058515429
53.7239257;86.7909593;30.0;0.0;-0.0183542367696543;-0.99214846538187;-0.0254919955134087;1.4715668297588165;-1.5719097596459222;0.9926456050385011
53.7237444;86.7913668;32.0;0.0;-0.0265116753339451;-0.9992862241256244;0.0132558376669725;-0.7597341781727952;-1.5069030144780842;0.9997257343334287
53.7235467;86.7917835;28.0;0.0;-0.0795350260018354;-0.9778729478943612;0.040787192821454;-2.380577009270279;-1.8211685692545856;0.9819495494591232
53.7233629;86.7921629;22.0;0.0;-0.0163148771285816;-1.0054043030488429;0.0122361578464362;-0.6971855162417481;-1.90532805935016;1.005611113385136
53.723241;86.7924506;20.0;60.0;-0.0469052717446721;-0.9737942286122158;0.0091771183848271;-0.539319000670051;-1.6892232445763908;0.9749664218309013
53.7231484;86.792742;19.0;60.0;-0.040787192821454;-1.0166207810747423;0.0244723156928724;-1.3778620411768852;-1.3114827809985048;1.017732922650459
53.723022;86.7930252;21.0;60.0;-0.0071377587437544;-0.963087590496584;0.0152951973080452;-0.9098367935612356;-1.0675723558249888;0.9632354839960434
53.7227568;86.7936816;25.0;60.0;-0.040787192821454;-0.9824615070867748;0.0356887937187723;-2.0786167955967767;-0.9239457286663848;0.98395523170649
53.7226201;86.7940825;25.0;60.0;-0.0050983991026817;-0.92790863668808;0.0173345569491179;-1.0702200757141274;-0.6714741489657093;0.92808454279681
53.7224799;86.7944031;23.0;60.0;-0.0530233506678902;-0.9809319873559702;0.0540430304884266;-3.148852621287516;-0.1145544425774919;0.9838494237832109
53.722324;86.7946824;19.0;60.0;-0.023452635872336;-1.0329356582033242;0.0825940654634444;-4.5705002963808505;0.3136538920606377;1.036497891829537
53.7222046;86.7948958;14.0;60.0;0.0734169470786173;-1.0135617416131335;0.0846334251045171;-4.760766806223601;0.9412952301804204;1.0197353915723013
53.7220819;86.7949779;14.0;60.0;-0.0152951973080452;-1.0354848577546651;0.0326297542571632;-1.804686023088661;1.4869834288209545;1.0361117384542915
53.7219154;86.7950674;18.0;60.0;0.023452635872336;-1.0074436626899157;0.0591414295911083;-3.3587536971654397;1.5928634313216;1.0094505774516713
53.7217087;86.7951167;19.0;60.0;0.003059039461609;-1.009483022330988;0.0489446313857448;-2.7757907240676434;1.8222697200392128;1.0106734918055484
53.7215388;86.7951516;18.0;60.0;0.1213418986438258;-1.012542061792597;0.0917711838482716;-5.14222754735914;2.022444556398513;1.0239078246847249
53.7213705;86.7951113;17.0;60.0;0.1029876618741715;-0.9595187111247068;0.0173345569491179;-1.0290771316925589;1.3929077257652291;0.9651855274305294
53.7211908;86.7950596;16.0;60.0;0.0530233506678902;-0.9615580707657796;0.0438462322830631;-2.6068754218824965;1.4428266474638418;0.9640165409661176
53.7210197;86.7950165;18.0;60.0;0.0061180789232181;-1.012542061792597;0.1233812582848985;-6.9472850778078135;1.520860624452045;1.020049897154487
53.7208537;86.7949785;18.0;60.0;0.0489446313857448;-1.0135617416131335;0.0907515040277353;-5.110537801908962;1.205145581875113;1.0187928231424832
53.7206682;86.7948954;18.0;60.0;0.043846232283063;-0.974813908432752;0.0693382277964718;-4.064484082970079;0.9968161255005392;0.9782599030898248
53.720435;86.7947902;18.0;60.0;0.0244723156928724;-1.0625063729988784;0.0744366268991536;-4.006396923166251;0.9572285612656848;1.0653917112136395
53.720068;86.7947048;20.0;60.0;-0.020393596410727;-1.017640460895279;0.0953400632201488;-5.351199934468705;0.6862039428985389;1.0223002171967595
53.7198842;86.7946746;15.0;60.0;-0.0025491995513408;-0.9911287855613338;0.0244723156928724;-1.414418534931056;0.1631153129845154;0.9914341441679364
53.7197225;86.7945897;13.0;60.0;-0.1152238197206077;-0.9126134393800348;0.0356887937187723;-2.2218547447729424;-0.3661806003347574;0.9205506549697114
53.7195966;86.7945406;14.0;60.0;-0.078515346181299;-1.00336494340777;0.0183542367696543;-1.0447834358488073;-0.5682664481925568;1.00659959629092
53.7194807;86.7944247;12.0;60.0;0.0122361578464362;-1.0074436626899157;-0.0244723156928724;1.3914240657869748;-1.0184517700361804;1.0078151374574045
53.7193551;86.7943759;12.0;60.0;-0.0448659121035994;-1.0421127765881513;0.0132558376669725;-0.7280975850286446;-1.3574641893182204;1.0431623586141359
53.7192389;86.7943365;10.0;60.0;-0.0713775874375446;-1.052309574793515;0.0938105434893443;-5.082679090937883;-1.7768633852118163;1.0588912216371797
53.719136;86.7942848;11.0;60.0;0.1294993372081166;-0.9809319873559702;0.0050983991026817;-0.295230889405826;-1.6342489033490588;0.9894562323968075
53.719018;86.794218;15.0;0.0;-0.011726317936168;-0.9788926277148976;-0.0438462322830631;2.56447547165367;-1.5548535923780096;0.9799442714829949
53.7188252;86.7942044;15.0;0.0;-0.0836137452839808;-0.9972468644845518;-0.0050983991026817;0.2918964672942153;-1.4114767454751649;1.0007589923643427
53.7186877;86.7940925;15.0;30.0;0.0173345569491179;-0.9992862241256244;-0.0683185479759355;3.910487941277749;-1.5823187169425426;1.0017688698444418
53.7184768;86.7939584;20.0;30.0;0.0112164780258998;-1.0308962985622514;-0.0163148771285816;0.9066287886395316;-1.57134002535687;1.0310863993790127
53.7182034;86.7939922;22.0;30.0;-0.1040073416947078;-0.9911287855613338;-0.0550627103089629;3.162500541151764;-1.4502222841835166;0.9980910272922269
53.7180115;86.7939795;18.0;0.0;-0.0316100744366268;-1.0084633425104517;0.0275313551544814;-1.5630364644390138;-1.6463080729053636;1.0093341793033088
53.7178599;86.7938279;12.0;0.0;-0.0224329560517997;-0.9809319873559702;-0.003059039461609;0.1786297832930627;-1.461299035863731;0.9811932322727175
53.7177845;86.7936501;5.0;30.0;-0.0112164780258998;-1.0043846232283062;0.0040787192821454;-0.23265743017243;-1.1156176683763204;1.0044555324690858
53.71777475;86.79358915;0.0;30.0;-0.0152951973080452;-1.008463342510452;-0.0458855919241358;2.604890912291492;-1.204402880893717;1.009622574923062
53.7177733;86.7936133;0.0;30.0;-0.0203935964107269;-1.0082084225553176;-0.0463954318344039;2.634223088694238;-1.236157141057649;1.0094813807996394
53.71776835;86.79358275;0.0;0.0;-0.0219231161415315;-1.003874783318038;-0.0433363923727949;2.4712852154672333;-1.1258448016268194;1.005048877670674
53.71776315;86.79357755000001;0.0;0.0;-0.0173345569491179;-1.0048944631385746;-0.0443560721933312;2.5270214288871906;-1.2020203665122011;1.0060222810910333
53.7177636;86.7935012;9.0;0.0;-0.0662791883348628;-1.006423982869379;-0.0397675130009177;2.257903884885041;-1.380354819937814;1.0093877447201698
53.7177741;86.7932813;14.0;0.0;-0.0254919955134087;-0.9992862241256244;-0.020393596410727;1.1687591982693533;-0.8301126750434594;0.9998193328482236
53.7178251;86.7930507;16.0;30.0;-0.0759661466299581;-1.0189150606709494;-0.0193739165901906;1.0862914123539382;-1.1034755502455371;1.0219266631906285
53.7179437;86.7927853;14.0;0.0;-0.0163148771285816;-0.9758335882532884;-0.0836137452839808;4.896713354392942;-1.6137960442403017;0.9795451115591478
53.7181108;86.7926452;14.0;90.0;-0.0112164780258998;-1.0706638115631693;-0.0836137452839808;4.46522013818968;-1.944765846898461;1.0739823393197365
53.7182711;86.7926007;11.0;90.0;-0.0183542367696543;-0.9635974304068522;-0.0560823901294993;3.330314656576558;-2.225045581008138;0.9654025690750581
53.7185259;86.7928043;11.0;90.0;0.1080860609768532;-1.026817579280106;-0.0948302233098807;5.247670126961109;-2.7537047744016183;1.036836394494884
53.718714;86.7927108;8.0;0.0;-0.0254919955134087;-1.026817579280106;-0.0866727847455898;4.823370900032751;-3.18984617725582;1.0307843395053438
53.7187278;86.792571;6.0;0.0;-0.0601611094116447;-0.9982665443050882;-0.0632201488732538;3.617153075360804;-3.561456710202453;1.002073969219847
53.718708;86.7925;1.0;0.0;-0.0805547058223717;-1.015601101254206;-0.0367084735393086;2.0635553101248507;-4.051562804052308;1.0194518966231174
53.7187063;86.7925239;1.0;0.0;-0.1040073416947078;-1.0043846232283062;-0.0326297542571632;1.8508411447314932;-4.495835446377727;1.0102824849351537
53.7187077;86.7924997;2.0;0.0;-0.0836137452839808;-0.968695829509534;-0.0428265524625267;2.522062545839105;-4.873836452484763;0.9732404544126823
53.718706;86.7925236;2.0;60.0;-0.1080860609768532;-1.041093096767615;-0.0244723156928724;1.3393713535726022;-5.1651276376795465;1.0469748454237315
53.7186922;86.7925354;5.0;60.0;-0.1412256551442847;-1.009483022330988;-0.0336494340776996;1.890752999346474;-5.349270817268198;1.0198690810389281
53.7186796;86.7926252;6.0;60.0;-0.1957785255429795;-1.0135617416131335;0.0122361578464362;-0.6791141718070801;-5.405827806556843;1.0323692937531967
53.7186853;86.7926821;2.0;60.0;-0.0734169470786173;-1.009483022330988;0.0662791883348628;-3.746585584256636;-5.31436042085161;1.0143169875828655
53.7186985;86.7927209;2.0;60.0;-0.0825940654634444;-1.0013255837666972;0.040787192821454;-2.324664741018581;-5.0544304754586165;1.0055537277807443
53.7187103;86.7926559;1.0;60.0;-0.0367084735393086;-1.0003059039461608;0.1152238197206077;-6.56647878472943;-4.605599785683987;1.0075891732894606
53.7187135;86.7926591;3.0;60.0;-0.0305903946160905;-1.015601101254206;0.1733455694911797;-9.681752183261706;-3.9474301668338505;1.030742477815747
53.7187429;86.7927141;1.0;60.0;-0.0662791883348628;-0.9992862241256244;0.1244009381054349;-7.08083223914031;-3.05948343421433;1.009178617458321
53.7187413;86.7927381;4.0;60.0;-0.0275313551544814;-0.9952075048434792;0.1223615784643621;-7.006730328314285;-1.9213214031315493;1.003079413156165
53.7187587;86.7927555;3.0;60.0;-0.0224329560517997;-1.0013255837666972;0.1091057407973896;-6.216942696171523;-0.5125058888916332;1.0075019726521066
53.7260002;86.8454114;1.0;60.0;-0.0275313551544814;-1.0043846232283062;-0.0550627103089629;3.136771381763165;-0.9768895009408112;1.006269521033345
53.7259999;86.8453855;1.0;60.0;-0.0224329560517997;-1.00336494340777;-0.0560823901294993;3.19838155100442;-1.069075738441684;1.0051814172872162
53.7259614;86.8453214;5.0;60.0;-0.040787192821454;-1.009483022330988;-0.0458855919241358;2.6004433898125696;-1.1114904820573266;1.011348137398289
53.7259215;86.8452815;1.0;60.0;-0.0132558376669725;-0.9870500662791885;-0.0805547058223717;4.665239578514131;-1.1084145969085704;0.9904204214393665
53.7259161;86.8452761;1.0;60.0;0.0071377587437544;-1.01458142143367;-0.0474151116549403;2.6756290360364785;-1.0641289481162468;1.0157138382101036
53.7259309;86.8452909;1.0;60.0;0.0122361578464362;-1.0013255837666972;-0.0530233506678902;3.030935480101749;-0.9829144008011876;1.0028031332124017
53.7259371;86.8452971;1.0;60.0;0.0163148771285816;-1.00336494340777;-0.0601611094116447;3.4308571811306026;-0.8690518200842248;1.0052993305284939
53.72594725;86.84530725;1.0;60.0;0.0015295197308044;-1.00336494340777;-0.0565922300397674;3.228197644129547;-0.7268220710861891;1.0049608099777616
53.7259224;86.8452568;5.0;60.0;-0.0693382277964719;-0.9992862241256244;-0.0458855919241358;2.622784396758215;-0.560506018927913;1.0027393654920662
53.7258972;86.845206;4.0;60.0;-0.0101967982053635;-0.9870500662791885;-0.0723972672580809;4.194744735860335;-0.3743845287302276;0.9897540969058067
53.7258703;86.8451535;4.0;60.0;-0.023452635872336;-1.0196798205363515;0.003059039461609;-0.1718413771178467;-0.1727384656139645;1.0199540775254707
53.7258345;86.8450665;4.0;60.0;-0.0010196798205363;-0.9850107066381156;-0.07545630671969;4.3805599588203;0.040151305300044;0.9878971536361628
53.7257804;86.8450124;5.0;60.0;0.0295707147955541;-1.001835423676965;0.0122361578464362;-0.6994563902631754;0.2600039188909674;1.0023464305649854
53.7257196;86.8450028;6.0;60.0;-0.0489446313857448;-1.015601101254206;-0.0050983991026817;0.2872935722849717;0.4825385100379802;1.0167925882320605
53.7256417;86.8449761;8.0;60.0;0.0367084735393086;-0.9788926277148976;0.0795350260018354;-4.641830058129625;0.6681015928241719;0.9828042068414623
53.7255369;86.8449993;9.0;60.0;0.07545630671969;-1.0247782196390334;0.061180789232181;-3.407385676615591;0.8469229628527707;1.0293722080187495
53.7254536;86.8449928;9.0;60.0;0.0061180789232181;-1.0247782196390334;0.0662791883348628;-3.700477291539004;0.9727899481937328;1.0269375643838266
53.725372;86.844988;8.0;60.0;0.0122361578464362;-1.0135617416131335;0.0295707147955541;-1.671011513710258;1.1237645922471675;1.01406683941159
53.7251934;86.844963;10.0;60.0;-0.0091771183848271;-0.9972468644845518;0.0693382277964719;-3.977186674426776;1.2851988039932425;0.9996966130082039
53.7251076;86.844954;7.0;60.0;-0.040787192821454;-0.9442235138166616;-0.0091771183848271;0.5563341247296438;1.696136518593058;0.9451485907752214
53.7250408;86.8450152;7.0;60.0;0.0224329560517997;-1.015601101254206;0.0244723156928724;-1.3800175926270408;1.9650867308265831;1.0161435570928696
53.7249692;86.845046;7.0;60.0;0.1498929336188436;-1.0054043030488429;0.07545630671969;-4.245296111227425;2.097255403181458;1.0193131797253328
53.7249273;86.8450041;3.0;60.0;0.0989089425920261;-0.962577750586316;-0.0693382277964719;4.098615374282924;2.311887258372454;0.9701271538733673
53.724895;86.8449462;5.0;60.0;-0.0249821556031406;-1.0135617416131335;-0.0025491995513408;0.1440600166479539;2.196915927446646;1.0138727783005028
53.7248831;86.84490869999999;5.0;60.0;0.0254919955134087;-1.0031100234526358;-0.0382379932701131;2.182322215349732;2.075800060910725;1.0041621906423923
53.7248816;86.8449072;5.0;60.0;0.0173345569491179;-1.0003059039461608;-0.0367084735393086;2.1013391149193468;2.0594709810199374;1.0011293125085061
53.72487805;86.84492925;5.0;60.0;0.0270215152442132;-1.0043846232283062;-0.0356887937187723;2.0342989948149737;1.6943247472389165;1.0053816805873583
53.7248734;86.8449502;4.0;60.0;0.0244723156928724;-1.0043846232283062;-0.0356887937187723;2.034431156862296;1.0349983152662618;1.0053163957729623
53.7248727;86.8449239;2.0;60.0;0.0244723156928724;-1.0054043030488429;-0.037728153359845;2.148400375690364;0.3917380513678823;1.0064095192218947
53.724839;86.8448902;4.0;60.0;0.0091771183848271;-1.0043846232283062;-0.0978892627714897;5.566345408267846;0.0437382906276622;1.0091853143230245
53.7247873;86.8448129;6.0;60.0;0.0132558376669725;-1.0319159783827878;-0.0142755174875089;0.7925134247612631;-0.940214861483026;1.0320998469496523
53.7247148;86.844766;9.0;60.0;0.0254919955134087;-0.9952075048434792;0.0015295197308045;-0.0880280953317461;-1.744457288282927;0.9955351118683088
53.7246366;86.8446622;10.0;0.0;-0.061180789232181;-1.015601101254206;-0.023452635872336;1.3204672509080595;-2.6651862717196644;1.0177124898364907
53.7245765;86.8444997;10.0;0.0;-0.0326297542571632;-0.9931681452024064;-0.0397675130009177;2.2917241000133064;-3.704332497934312;0.9944994321757802
53.724541;86.8443618;9.0;30.0;-0.0183542367696543;-0.971754868971143;-0.0346691138982359;2.0428999682822826;-4.426061645225394;0.9725463232335049
53.7245086;86.8441502;10.0;30.0;-0.171306209850107;-0.9992862241256244;-0.0938105434893443;5.28640059775984;-4.609890078010821;1.018194084313115
53.7244662;86.8439798;12.0;30.0;-0.0734169470786173;-1.0319159783827878;-0.0571020699500356;3.159317694009858;-4.686949540983462;1.0360990690820204
53.7244328;86.8437672;13.0;30.0;-0.1254206179259712;-0.9809319873559702;-0.0846334251045171;4.891561588917502;-5.055012891253346;0.9925324739594104
53.7243898;86.8435962;13.0;30.0;-0.205975323748343;-1.0043846232283062;-0.0764759865402263;4.265781489317286;-5.194687251069771;1.0281356339938823
53.7243513;86.8433529;12.0;30.0;-0.1091057407973896;-0.99214846538187;-0.0703579076170082;4.03209597908564;-5.327309514591414;1.0006062538275435
53.7243796;86.8431764;12.0;30.0;-0.130519017028653;-0.9615580707657796;-0.078515346181299;4.625856638453583;-5.294311061904362;0.9735470183031238
53.7244605;86.8430781;5.0;30.0;-0.0856531049250535;-1.009483022330988;-0.095849903130417;5.404640418730882;-5.278284746370734;1.0176343305372115
53.7245158;86.8430822;9.0;30.0;-0.15091261343938;-1.0196798205363515;-0.0571020699500356;3.1707496115165896;-5.153630979134926;1.0323672794585892
53.7246071;86.8430967;7.0;0.0;-0.0101967982053635;-1.0028551034975015;-0.020393596410727;1.1649196398193629;-4.7775235270144405;1.0031142667110209
53.7246549;86.8431445;5.0;0.0;-0.0453757520138676;-1.0054043030488429;-0.0652595085143265;3.710020153692324;-4.245674631860836;1.0085413104635252
53.7247085;86.8431981;8.0;0.0;-0.0183542367696543;-1.009483022330988;-0.0938105434893443;5.3083358087742605;-3.642045789539608;1.0139986530817822
53.7248226;86.843261;13.0;0.0;-0.0061180789232181;-1.0003059039461608;-0.0836137452839808;4.778053102311826;-3.1571937681504907;1.0038130257969713
53.7249949;86.8433309;18.0;0.0;-0.0265116753339451;-0.9870500662791885;-0.0764759865402263;4.428797091160511;-2.547536575310032;0.990363205489816
53.7251934;86.843427;20.0;0.0;-0.0224329560517997;-1.0135617416131335;-0.0662791883348628;3.740465619657245;-1.8492857442963104;1.01597419868095
53.7254184;86.8435496;24.0;0.0;-0.037728153359845;-1.0074436626899157;-0.0509839910268175;2.895086458098822;-1.648061889940428;1.009438217223342
53.7256412;86.8436956;26.0;0.0;-0.0418068726419904;-0.9865402263689202;-0.0530233506678902;3.073749548962652;-1.2085452669651704;0.9888482737812683
53.7258946;86.843821;26.0;0.0;-0.0469052717446721;-1.0023452635872334;-0.0652595085143265;3.721027775151388;-0.9559431726014082;1.0055619997815815
53.726147;86.843971;25.0;0.0;-0.0285510349750178;-1.0054043030488429;-0.0723972672580809;4.116998207158286;-1.067291231507868;1.0084117901401748
53.7263591;86.8441575;22.0;0.0;-0.0397675130009177;-1.0319159783827878;-0.0632201488732537;3.5032399250672164;-0.9837184714789724;1.03461530471743
53.726571;86.844267;22.0;0.0;0.0050983991026817;-0.9931681452024064;-0.0795350260018354;4.578537250131243;-1.1363206896909823;0.9963607673324513
53.7267948;86.8444396;24.0;0.0;0.023452635872336;-0.9850107066381156;-0.0713775874375446;4.143453550792005;-1.1692851241111115;0.9878718936732053
53.7270352;86.8446032;26.0;0.0;-0.0254919955134087;-0.9982665443050882;-0.0499643112062812;2.8643919334728105;-1.33789453679978;0.9998411712409109
53.727364;86.844804;29.0;0.0;-0.037728153359845;-0.971754868971143;-0.0520036708473539;3.0609721764328244;-1.3007560376264884;0.9738764401640834
53.7276447;86.8450079;30.0;0.0;-0.0096869582950953;-1.005914142959111;-0.0606709493219129;3.4514105499355554;-1.536789102666253;1.0077887002034682
53.7279933;86.8452541;29.0;0.0;-0.0316100744366268;-1.0186601407158151;-0.058121749770572;3.264020190852741;-1.3607446560475314;1.020806454175054
53.7282538;86.8454634;27.0;0.0;-0.0305903946160905;-1.0186601407158151;-0.0530233506678902;2.978333567354817;-0.9945721916637622;1.020497785515472
53.7285071;86.8456143;24.0;0.0;-0.0224329560517997;-1.015601101254206;-0.0825940654634444;4.64823572778024;-0.6758336795145552;1.0192009684236756
53.7287319;86.8457879;21.0;0.0;-0.0193739165901906;-0.9788926277148976;-0.0662791883348628;3.8727336127788745;-0.4078643364322135;0.9813251530685173
53.7289404;86.8459452;22.0;0.0;-0.0081574385642908;-1.0043846232283062;-0.0723972672580809;4.122683638812255;-0.1091859837825028;1.0070235247936539
53.7291322;86.8460346;22.0;0.0;-0.0112164780258998;-1.023758539818497;-0.0856531049250535;4.782246799225022;0.133510274252976;1.0273966184555547
53.7293617;86.8462129;21.0;0.0;-0.0045885591924135;-0.9901091057407974;-0.0672988681553991;3.888438181030846;0.2828025230677784;0.9924042693385098
53.7295602;86.8463858;20.0;0.0;-0.0050983991026817;-0.9829713469970428;-0.0764759865402263;4.448638095539857;0.4590637298500367;0.9859549884289301
53.7297377;86.8464865;18.0;0.0;0.0254919955134087;-1.006423982869379;-0.0968695829509534;5.496103151984396;0.5922336023733579;1.0113964560107038
53.7298784;86.846576;15.0;0.0;0.0265116753339451;-0.9809319873559702;-0.1040073416947078;6.050214224437171;0.8610112649807903;0.9867866840779447
53.7300042;86.8467018;12.0;0.0;-0.0183542367696543;-0.9952075048434792;-0.1427551748750892;8.161605100120392;1.2647352557989535;1.005561482783523
53.730099;86.8468478;11.0;0.0;0.0428265524625267;-0.9901091057407974;-0.1294993372081166;7.444705014694111;1.566728404379528;0.9994599707862284
53.7301763;86.8469507;11.0;30.0;0.1254206179259712;-0.9972468644845518;-0.1029876618741715;5.850383388141484;1.8030667665294915;1.0103653292861505
53.7302692;86.8471204;12.0;0.0;0.0509839910268175;-0.9941878250229428;-0.1244009381054349;7.122985132350126;2.081503350953269;1.0032369571374373
53.7303917;86.8472941;13.0;0.0;0.0163148771285816;-0.9758335882532884;-0.133578056490262;7.793476816019594;2.267193432501485;0.9850687612317857
53.7304704;86.8474496;12.0;0.0;0.0142755174875089;-0.9931681452024064;-0.1040073416947078;5.977769871076953;2.2573679719882707;0.9987012977716231
53.7305318;86.8476646;12.0;0.0;0.0387478331803813;-1.0008157438564291;-0.1284796573875803;7.309914048333556;2.15396505010682;1.0097725338359635
53.7305791;86.8478399;12.0;0.0;0.0132558376669725;-0.9768532680738248;-0.1091057407973896;6.372429088038055;1.954546791961553;0.9830168295882385
53.7306286;86.848043;14.0;0.0;0.0163148771285816;-0.971754868971143;-0.0173345569491179;1.0218129622332794;1.741603326636217;0.9720463916138296
53.730676;86.8482696;12.0;0.0;0.0326297542571632;-1.006423982869379;0.0479249515652085;-2.724881396959533;1.4611011455409697;1.0080926223021744
53.7307058;86.8484274;9.0;0.0;0.037728153359845;-1.0023452635872336;-0.0061180789232181;0.349468110166524;1.2361617739984427;1.0030737120877087
53.7307291;86.8485531;9.0;0.0;0.0367084735393086;-1.0013255837666972;-0.0520036708473539;2.9709832089028687;1.0170014397595752;1.0033468086942336
53.7307703;86.8486967;11.0;0.0;0.0387478331803813;-1.012542061792597;-0.0999286224125624;5.632220686356946;0.6884357284510136;1.0181986795575069
53.7308471;86.8489015;14.0;0.0;0.023452635872336;-1.0227388599979603;-0.1111451004384623;6.200603217873053;0.4019890919121501;1.0290277135387385
53.7309558;86.849087;13.0;0.0;0.0005098399102681;-1.0135617416131335;-0.1142041399000713;6.428746942314971;0.0211175491417087;1.019975612242223
53.7311468;86.8492524;12.0;0.0;-0.0163148771285816;-0.986030386458652;-0.1488732537983073;8.584650027121581;-0.1493574431861357;0.9973391318563684
53.7312674;86.8493218;11.0;0.0;-0.0270215152442133;-0.9931681452024064;-0.1345977363107984;7.715089028069384;-0.0696724689332979;1.002611428994739
53.7313756;86.8493532;10.0;0.0;-0.0509839910268175;-0.9992862241256244;-0.1121647802589986;6.396102425392637;-0.1263639691763154;1.006853148676022
53.7314721;86.8493473;9.0;0.0;-0.0224329560517997;-0.9850107066381156;-0.1325583766697257;7.6626003006148675;-0.193088578527693;0.9941433764474089
53.7315628;86.8493356;10.0;0.0;-0.0101967982053635;-0.9875599061894564;-0.1458142143366982;8.398653352531644;-0.3038672085185358;0.9983187507550869
53.7316687;86.8493135;11.0;0.0;0.0035688793718772;-0.9972468644845518;-0.1264402977465075;7.225894079241493;-0.3309887646207936;1.0052368847781434
53.7317794;86.8492962;13.0;0.0;0.0061180789232181;-1.0084633425104517;-0.1070663811563169;6.060157198745708;-0.4354355922380147;1.0141493746243564
53.7321023;86.8492095;17.0;0.0;0.0142755174875089;-1.020699500356888;-0.0774956663607627;4.341376221740494;-0.5171174321226967;1.0237367038125749
53.7322765;86.8491789;18.0;0.0;-0.0101967982053635;-0.9952075048434792;-0.0876924645661262;5.03533498176412;-0.5117588945895188;0.9991155692571835
53.7324599;86.8491063;17.0;0.0;-0.0336494340776996;-1.0079535026001836;-0.0938105434893443;5.314274899751966;-0.4410822682602274;1.0128686814624557
53.7326431;86.8489567;14.0;0.0;0.0229427959620679;-1.008463342510452;-0.0948302233098807;5.370594793900348;-0.29948182089339;1.013171977665644
53.7327822;86.8488398;13.0;0.0;0.0183542367696542;-0.9972468644845518;-0.1241460181503008;7.094983537670696;-0.2478432238200913;1.0051121432727004
53.7328805;86.8486821;11.0;0.0;-0.003059039461609;-0.9880697460997246;-0.1356174161313347;7.81525655484879;-0.0724507066618275;0.9973380893348762
53.7329626;86.8485338;11.0;0.0;-0.0163148771285816;-0.9829713469970428;-0.1213418986438258;7.036258624855366;0.0084588274102002;0.990566858217753
53.7330355;86.8483507;12.0;0.0;0.0081574385642908;-0.99214846538187;-0.113184460079535;6.507958102293861;0.0142394919156058;0.9986169651908713
53.7330835;86.8481171;13.0;0.0;0.0061180789232181;-0.986030386458652;-0.0989089425920261;5.728082394064477;-0.0626912749004036;0.9909976452213104
53.7331124;86.8478644;14.0;0.0;-0.0193739165901906;-0.9982665443050882;-0.113184460079535;6.467421054877836;-0.3209800538028898;1.0048493240911107
53.7331263;86.8475199;14.0;0.0;-0.0112164780258998;-1.0043846232283062;-0.116243499541144;6.601406496247921;-0.5180240025176817;1.0111512408845396
53.7331385;86.8473017;13.0;0.0;-0.0096869582950953;-0.9957173447537474;-0.1203222188232894;6.889875987138953;-0.6769852628199315;1.003007629156939
53.7331533;86.8470093;12.0;0.0;-0.0050983991026817;-1.0013255837666972;-0.1223615784643621;6.96688982368512;-0.7221587735757062;1.0087870311732885
53.733158;86.8467324;12.0;0.0;-0.0061180789232181;-1.0013255837666972;-0.1091057407973896;6.21837527957119;-0.7045607776253299;1.007270777035835
53.7331743;86.8464159;15.0;0.0;-0.0122361578464362;-1.0257978994595698;-0.0856531049250535;4.77273047045572;-0.7201751495946287;1.0294403860728463
53.7332033;86.8460609;17.0;0.0;-0.0183542367696543;-0.9850107066381156;-0.078515346181299;4.55663136886985;-0.7310911068128303;0.9883054334491366
53.7332321;86.8457569;18.0;0.0;-0.0356887937187723;-1.0084633425104517;-0.0815743856429081;4.621693881124084;-0.8675862359625902;1.0123864793533504
53.7332978;86.8451058;19.0;0.0;0.0071377587437544;-0.991638625471602;-0.0836137452839808;4.819584587327439;-0.8542560423754452;0.9951830834210891
53.7333147;86.8447899;18.0;0.0;-0.0346691138982359;-0.986030386458652;-0.0856531049250535;4.96157648927572;-0.9226209703020896;0.9903506070385325
53.733307;86.8445006;17.0;0.0;-0.029060874885286;-1.015601101254206;-0.1009483022330988;5.674110006505168;-0.9189423924881056;1.0210194371517123
53.733317;86.844229;16.0;0.0;-0.0275313551544814;-0.9972468644845518;-0.0825940654634444;4.732755123429612;-1.102444866997227;1.0010399911545451
53.7333232;86.843928;15.0;0.0;-0.0214132762312633;-0.9962271846640156;-0.1070663811563169;6.132733308843083;-1.0769504285742073;1.0021927668050976
53.7333405;86.8436637;13.0;0.0;0.0010196798205363;-0.9982665443050882;-0.0897318242071989;5.136375827214327;-1.0191635821600946;1.0022918404842527
53.7333558;86.8431414;13.0;0.0;0.0040787192821454;-0.9901091057407974;-0.1050270215152442;6.055024997784534;-0.9286597091675016;0.9956723117924831
53.7333418;86.842897;14.0;0.0;0.0061180789232181;-0.968695829509534;-0.095849903130417;5.650760758582118;-0.8858657876122785;0.9734455531404853
53.7333182;86.842643;16.0;0.0;-0.0122361578464362;-0.9972468644845518;-0.0856531049250535;4.908694452720979;-0.7447433216589956;1.0009932500603664
53.7332987;86.8423419;19.0;0.0;-0.0295707147955541;-1.0054043030488429;-0.0683185479759355;3.885672845762283;-0.5866842315455689;1.0081565670867743
53.7332839;86.8419943;21.0;0.0;-0.0076475986540225;-1.012032221882329;-0.0637299887835219;3.603186032067931;-0.4816562248306688;1.01406568592158
53.7332762;86.8415002;22.0;0.0;-0.0326297542571632;-0.9992862241256244;-0.0764759865402263;4.37402822145863;-0.3157795658588221;1.0027393654920662
53.7332883;86.8411283;22.0;0.0;-0.0275313551544814;-0.986030386458652;-0.0744366268991536;4.315463637684709;-0.12843740464501;0.9892192426153894
53.7333859;86.8403811;20.0;0.0;-0.0214132762312633;-0.9839910268175792;-0.078515346181299;4.561046506824357;-0.1023992831446497;0.9873507628206095
53.7334652;86.8400508;20.0;0.0;0.0142755174875089;-0.9911287855613338;-0.0805547058223717;4.646062626047821;-0.2738517693582967;0.9944994321757803
53.7335795;86.8396787;21.0;0.0;-0.0183542367696543;-1.0079535026001836;-0.0774956663607627;4.395763279102782;-0.4572241300489224;1.0110948124266455
53.733736;86.8393232;21.0;0.0;0.0356887937187723;-1.0013255837666972;-0.0815743856429081;4.654453037658303;-0.557791623917394;1.0052765764185676
53.7338743;86.8390519;20.0;0.0;0.0101967982053635;-0.9839910268175792;-0.0825940654634444;4.797779463725913;-0.7300210650212334;0.9875039722456485
53.7340078;86.838827;19.0;0.0;0.0132558376669725;-0.9952075048434792;-0.0713775874375446;4.101941448636981;-1.0752379212733754;0.9978519203355983
53.734115;86.8385502;18.0;0.0;-0.0173345569491179;-0.974813908432752;-0.0672988681553992;3.9486776505949504;-1.3904958144165294;0.9772879721932312
53.7341801;86.8382313;20.0;0.0;0.0050983991026817;-0.9992862241256244;-0.078515346181299;4.4925232476295225;-1.217312407177589;1.0023789757305503
53.734193;86.8378602;23.0;0.0;-0.0244723156928724;-1.0227388599979603;-0.0428265524625267;2.397138866713272;-0.9855237909107656;1.0239276261441161
53.7342014;86.8373822;27.0;0.0;-0.0305903946160905;-1.041093096767615;-0.061180789232181;3.361723473511752;-0.7026819029227359;1.0433377676241877
53.7342194;86.8369138;27.0;0.0;-0.0163148771285816;-1.0257978994595698;-0.0254919955134087;1.4233784400533882;-0.5568040251599164;1.0262442923527721
53.7342503;86.8364071;26.0;0.0;-0.0479249515652085;-1.0227388599979603;-0.061180789232181;3.4196412880264;-0.4307723598277851;1.025687411302063
53.7343338;86.8359786;27.0;0.0;-0.0764759865402263;-0.9620679106760476;-0.0458855919241358;2.7220651415199435;-0.2938457420407823;0.966192904556903
53.7345431;86.8355479;27.0;0.0;-0.0713775874375446;-0.9819516671765066;-0.0530233506678902;3.0827336144090323;-0.184341587613015;0.9859692248621025
53.7347916;86.8352332;28.0;30.0;0.0275313551544814;-0.896298562251453;-0.0876924645661262;5.585328120945464;-0.2953002426527908;0.9009989215045405
53.735076;86.8348264;29.0;30.0;0.0050983991026817;-0.9972468644845518;0.0224329560517997;-1.2886279502622646;-0.146878899837095;0.9975121753216359
53.7353051;86.8344155;28.0;30.0;-0.0173345569491179;-0.9952075048434792;-0.0326297542571632;1.877592853336008;-0.0642823778336325;0.9958931496020488
53.7355668;86.833986;29.0;30.0;0.003059039461609;-1.0013255837666972;-0.0010196798205363;0.0583457152142459;0.1843784364063081;1.0013307756056842
53.7358058;86.8335594;25.0;30.0;0.0815743856429081;-1.0421127765881513;0.0152951973080452;-0.8383116652517666;0.3329237893874129;1.045412532248383
53.7358956;86.8331116;25.0;30.0;0.133578056490262;-0.9982665443050882;-0.0418068726419904;2.37695466592347;0.4182024266698098;1.0080312521219974
53.7358638;86.8326446;23.0;0.0;0.0163148771285816;-1.017640460895279;-0.0672988681553992;3.78310551405354;0.4478493206239128;1.0199938335705145
53.7358005;86.8322997;20.0;0.0;0.0091771183848271;-0.9788926277148976;-0.0780055062710309;4.555930385768818;0.6388236689233937;0.9820386220027326
53.7357467;86.8319387;20.0;0.0;-0.0265116753339451;-0.9962271846640156;-0.058121749770572;3.3377785617102003;0.7532302461565923;0.9982733143728706
53.7356966;86.8315558;27.0;0.0;-0.0132558376669725;-1.011522381972061;-0.0672988681553992;3.806081948290665;0.8239797221556212;1.0138453452660732
53.7356181;86.8309397;32.0;0.0;0.0101967982053635;-1.0003059039461608;-0.023452635872336;1.3430103193053329;0.9169832279628692;1.000632750959385
53.735551;86.8303862;34.0;0.0;-0.0265116753339451;-1.0043846232283062;-0.0173345569491179;0.988418793164932;0.6986055863979689;1.0048839869214263
53.7355036;86.8297756;36.0;0.0;-0.0336494340776996;-1.0105027021515245;-0.0509839910268175;2.886759643560008;0.3227028503657431;1.0123474516243445
53.7354427;86.8291515;36.0;0.0;0.0336494340776996;-0.9758335882532884;0.0020393596410727;-0.1196690961715091;-0.2637299381947295;0.97641570827429
53.7353802;86.8285002;35.0;0.0;-0.0050983991026817;-0.9707351891506067;0.0132558376669725;-0.7823409352557273;-0.6305573956587182;0.9708390795394094
53.7353067;86.8278891;35.0;0.0;-0.0224329560517997;-1.0217191801774244;-0.0520036708473539;2.9130370011186795;-1.0235488089219758;1.0232876929003154
53.7352461;86.8272653;35.0;0.0;-0.023452635872336;-0.9901091057407974;-0.0101967982053635;0.5898835116927112;-1.1358577909167265;0.9904393177241313
53.7351872;86.82672;35.0;0.0;-0.0137656775772407;-1.0278372591006424;-0.0193739165901906;1.0797552854436523;-1.2355416348787174;1.028111994735362
53.7351221;86.8260917;37.0;0.0;0.0183542367696543;-1.0298766187417152;-0.0367084735393086;2.0410377720636035;-0.814034800301488;1.0306940573554553
53.7350292;86.825282;38.0;0.0;0.0122361578464362;-1.0135617416131335;-0.0540430304884266;3.051894170515375;-0.2682390760282592;1.015075256700243
53.7349218;86.8243042;38.0;0.0;-0.0152951973080452;-0.9850107066381156;-0.023452635872336;1.3637631902022411;-0.2730508529704557;0.9854085758616942
53.7348176;86.8236368;39.0;0.0;-0.0305903946160905;-1.041093096767615;-0.0081574385642908;0.4487356798430955;-0.1299595910633824;1.0415743622919493
53.7346774;86.8230102;36.0;0.0;-0.040787192821454;-1.0023452635872336;0.037728153359845;-2.153807806607205;-0.1628598800773824;1.003883975412477
53.7345415;86.8224391;34.0;0.0;-0.0571020699500356;-1.0054043030488429;0.0076475986540226;-0.4351102461496902;-0.1886575288479896;1.0070535957668199
53.7344752;86.821912;31.0;0.0;-0.0101967982053635;-0.9992862241256244;0.0163148771285816;-0.9353095119272103;-0.2605611872287672;0.9994714141167866
53.7344045;86.8213293;31.0;0.0;-0.0188640766799224;-1.012542061792597;0.0015295197308045;-0.0865344336589558;-0.3595644916475153;1.0127189243411998
53.7343443;86.8206547;31.0;0.0;0.0295707147955541;-0.9992862241256244;0.0214132762312633;-1.2270418679732629;-0.3485090725537219;0.9999529555432716
53.7342224;86.8199952;31.0;0.0;0.0734169470786173;-0.971754868971143;0.0229427959620679;-1.348640178860378;-0.121417074856433;0.9747943092642801
53.7340317;86.8195741;32.0;30.0;0.095849903130417;-1.0196798205363515;0.0265116753339451;-1.4828209690029228;0.0721329039391863;1.024517939944523
53.7337202;86.8193394;31.0;30.0;-0.0061180789232181;-0.9534006322014889;0.0734169470786173;-4.403301054697142;0.0371106151046133;0.9562427748695693
53.7334501;86.8192485;22.0;30.0;0.0020393596410727;-0.9890894259202612;0.1172631793616804;-6.761224271279942;-0.2046823450355027;0.9960184258782702
53.7332147;86.8192435;22.0;30.0;-0.0938105434893443;-1.0344651779341287;0.0428265524625267;-2.360997299006319;-0.4286979728425528;1.0395925817472345
53.732964;86.819172;29.0;30.0;-0.0703579076170082;-1.1032935658203324;0.0214132762312633;-1.109632273329626;-0.431040664413688;1.105742038607443
53.732644;86.8189544;34.0;30.0;0.0137656775772407;-1.0217191801774244;0.0397675130009177;-2.228748062399904;-0.5156722465178663;1.02258546445364
53.732307;86.8187198;33.0;30.0;-0.0336494340776996;-1.0339553380238604;0.0438462322830631;-2.4269644443642697;-0.6686634875524128;1.0354315127168987
53.7320117;86.8185013;32.0;0.0;-0.020393596410727;-1.0084633425104517;-0.0112164780258998;0.6371069493552248;-0.9214092324756662;1.0087318877388687
53.7317098;86.8182506;33.0;0.0;-0.0163148771285816;-0.9788926277148976;-0.0224329560517997;1.3126162656097966;-1.0848518579590816;0.979285550453758
53.7313951;86.8180383;35.0;0.0;0.0285510349750178;-0.9819516671765066;-0.0112164780258998;0.6541640293168074;-1.1069400264944838;0.9824306833808536
53.731049;86.817769;35.0;30.0;0.0112164780258998;-0.9992862241256244;-0.0101967982053635;0.5845936981831964;-1.3345139539050006;0.9994011916143557
53.7307402;86.8175114;34.0;0.0;-0.0402773529111858;-0.9737942286122158;-0.0020393596410727;0.1198884801639176;-1.8985862075724425;0.9746289672607408
53.7304096;86.8172832;33.0;30.0;-0.0509839910268175;-0.9707351891506067;0.014785357397777;-0.8714089818428469;-2.3203152707786074;0.9721855695234666
53.7301252;86.8169732;32.0;0.0;-0.0948302233098807;-0.9819516671765066;0.0061180789232181;-0.355325368312776;-2.493559810657845;0.9865390406939978
53.7298371;86.8164547;31.0;0.0;-0.0672988681553992;-1.0003059039461608;0.0010196798205363;-0.0582737282984993;-2.450437506645039;1.002567742784237
53.729676;86.8159608;33.0;0.0;-0.0173345569491179;-0.9829713469970428;-0.0152951973080452;0.8913213351223052;-2.7669551314951497;0.983243153519258
53.7295226;86.815449;33.0;0.0;-0.0142755174875089;-0.9809319873559702;-0.0091771183848271;0.535958814172436;-2.8590980558344565;0.9810787805877358
53.7293694;86.8149118;31.0;30.0;-0.0530233506678902;-1.00897318242072;0.0076475986540226;-0.433671554363435;-3.228374963118813;1.0103944003830476
53.729192;86.8142992;33.0;30.0;-0.0285510349750178;-0.9727745487916796;-0.0040787192821454;0.2401290650425879;-3.623145895598112;0.9732019935891947
53.7289686;86.8134614;34.0;30.0;-0.0336494340776996;-0.99214846538187;0.0142755174875089;-0.823869183749544;-3.709795738370556;0.9928215610938782
53.7287839;86.8127647;33.0;30.0;-0.020393596410727;-0.9952075048434792;0.0193739165901906;-1.115014260459464;-3.5084637209316654;0.9956049543445387
53.7286353;86.8121553;29.0;30.0;-0.0795350260018354;-1.0482308555113695;0.0652595085143265;-3.55227014811171;-3.4410347258928784;1.0532675587232059
53.7285931;86.8117035;25.0;30.0;-0.1876210869786886;-0.9962271846640156;0.0112164780258998;-0.6339201012344049;-3.311701671791255;1.0138027841360275
53.7286841;86.8113593;23.0;0.0;-0.1254206179259712;-0.9829713469970428;-0.0040787192821454;0.2358285788212185;-3.0010553079939406;0.9909488565859975
53.7289048;86.811196;23.0;0.0;-0.0448659121035994;-0.9697155093300704;-0.061180789232181;3.606243141872168;-2.4533226526854226;0.9726788823014708
53.7291566;86.8110894;27.0;0.0;-0.0316100744366268;-1.0003059039461608;-0.037728153359845;2.158902429005795;-1.9117787166750944;1.0015161066260387
53.7294507;86.8109739;30.0;30.0;-0.0305903946160905;-1.0013255837666972;-0.0693382277964719;3.95936385893538;-1.470563975734308;1.004189467571952
53.7297245;86.8108125;31.0;30.0;-0.0305903946160905;-0.9432038339961252;0.0132558376669725;-0.8047618901546879;-1.387768045225019;0.9437928596572509
53.7300494;86.8106766;33.0;0.0;0.0244723156928724;-1.012032221882329;0.003059039461609;-0.1731350962214707;-1.3537227077141476;1.0123326874530343
53.7303852;86.8105516;34.0;0.0;-0.0040787192821454;-0.9850107066381156;0.0061180789232181;-0.3558667798470689;-1.1762631646788355;0.9850381510542692
53.7307281;86.8104081;33.0;90.0;0.003059039461609;-1.0359946976649332;0.0734169470786173;-4.053536619854172;-0.8164972447968009;1.038597332670669
53.7310576;86.8102768;28.0;90.0;0.0469052717446721;-1.0257978994595698;0.0112164780258998;-0.6258157957051564;-0.5896394329471955;1.0269309832858353
53.7313078;86.810015;27.0;90.0;0.0632201488732537;-1.009483022330988;0.0112164780258998;-0.6353489627534362;-0.3661886326736961;1.0115228959234526
53.7315293;86.8096989;26.0;90.0;-0.0520036708473539;-1.0217191801774244;-0.0458855919241358;2.568115977825861;-0.1310516955294848;1.024070286879888
53.7316862;86.8093438;25.0;90.0;0.0091771183848271;-0.974813908432752;-0.0713775874375446;4.187639191467151;0.1446532345376443;0.977466692815766
53.7317902;86.8085518;19.0;0.0;0.0142755174875089;-0.9992862241256244;-0.092790863668808;5.304571439097611;0.3647958698113229;1.0036866505574273
53.7318034;86.8082834;17.0;0.0;0.037728153359845;-1.0003059039461608;-0.0642398286937901;3.671895884148925;0.1597330904766836;1.003076303486478
53.7317952;86.807968;18.0;0.0;-0.0214132762312633;-0.99214846538187;-0.0815743856429081;4.69919354881994;0.1458172865868547;0.9957266121539456
53.7317626;86.8076538;22.0;0.0;-0.0729071071683491;-1.0069338227796472;-0.0545528703986948;3.0930128990706285;0.3231711470894701;1.0110426229403129
53.7317514;86.8071818;26.0;0.0;-0.0734169470786173;-1.011522381972061;-0.0071377587437544;0.4032374981587382;0.2528947780701632;1.014208324235539
53.7317537;86.8067489;28.0;0.0;-0.0265116753339451;-0.9962271846640156;-0.0020393596410727;0.117247536995195;-0.2279737438772912;0.9965819742401268
53.7317365;86.8061173;28.0;0.0;0.0061180789232181;-1.020699500356888;0.0326297542571632;-1.830976875352691;-0.7626858704062442;1.0212392480615862
53.7317224;86.8054888;28.0;30.0;0.020393596410727;-0.9850107066381156;0.0897318242071989;-5.20401529179125;-1.0513850020825062;0.9892996468420653
53.7317093;86.8048869;27.0;30.0;-0.0193739165901906;-1.0008157438564291;0.0774956663607627;-4.426894309021665;-1.1628899590616657;1.0039985458653016
53.7317035;86.8044203;24.0;30.0;-0.0152951973080452;-0.9880697460997246;0.0428265524625267;-2.4815580463464717;-1.4348262488934953;0.9891157059788768
53.7316606;86.8040446;23.0;30.0;0.0112164780258998;-0.9972468644845518;0.0479249515652085;-2.7511876229567407;-1.7627248792319092;0.9984607749361529
53.7315977;86.8036233;23.0;30.0;0.0132558376669725;-1.0105027021515245;0.0591414295911083;-3.3492267586152686;-1.891858585518736;1.0123186933875448
53.7315366;86.8032294;24.0;30.0;0.0275313551544814;-1.006423982869379;0.0759661466299581;-4.314963956535085;-2.364399521958517;1.0096623516033025
53.7314605;86.8028461;26.0;30.0;-0.0101967982053635;-0.9635974304068522;0.0050983991026817;-0.3031324722782915;-2.504655163727028;0.963664867188661
53.7313412;86.802394;27.0;0.0;-0.0326297542571632;-1.0023452635872336;0.0367084735393086;-2.0962726997663017;-2.5483978967146435;1.0035478266272264
53.7312107;86.8019563;28.0;0.0;-0.1070663811563169;-0.9941878250229428;0.0744366268991536;-4.257323751025386;-2.37182253863505;1.0027030731088256
53.7310952;86.801508;29.0;30.0;-0.1560110125420618;-0.979912307535434;0.0346691138982359;-2.001087033794592;-2.06015976013281;0.9928592619058892
53.7310833;86.8009841;28.0;0.0;-0.1147139798103395;-0.945243193637198;-0.0152951973080452;0.9202842137339914;-2.0063626190389368;0.9523013889216315
53.7311946;86.8005834;26.0;0.0;-0.0152951973080452;-1.0043846232283062;-0.061180789232181;3.4853880635233856;-1.974740476510958;1.006362510931936
53.731335;86.8001862;27.0;0.0;-0.0020393596410727;-1.015601101254206;0.0112164780258998;-0.6327577120580373;-1.8270928893545435;1.0156650851711932
53.7315128;86.7992376;32.0;0.0;-0.0142755174875089;-1.041093096767615;0.0112164780258998;-0.6172085759720659;-1.659190683759304;1.0412513797906942
53.7314366;86.7986494;35.0;0.0;-0.1040073416947078;-1.026817579280106;0.003059039461609;-0.1698230341930827;-1.4038132561313552;1.032076172560671
53.7313954;86.7980194;36.0;0.0;-0.058121749770572;-1.0105027021515245;-0.0050983991026817;0.2886011855982412;-1.338100085279162;1.0121856759139283
53.7314068;86.7973652;37.0;0.0;0.0229427959620679;-1.00336494340777;-0.0020393596410727;0.1164242440578063;-1.3895136229829663;1.0036292844143102
53.7314126;86.7966798;37.0;0.0;0.0254919955134087;-1.0166207810747423;0.0050983991026817;-0.2872482210348109;-1.217292908814214;1.0169531198741095
53.7314133;86.7960149;37.0;0.0;0.0540430304884266;-0.9972468644845518;0.0122361578464362;-0.7019505383266506;-0.8969530372203831;0.9987851027260498
53.7313923;86.7953539;37.0;0.0;0.0367084735393086;-0.9941878250229428;0.0061180789232181;-0.3523448712405848;-0.5247727886120778;0.9948841009600798
53.7313236;86.7947732;35.0;0.0;0.0469052717446721;-0.9901091057407974;-0.023452635872336;1.3553873358707738;-0.2003268784284519;0.991496934900781
53.7311909;86.7942565;32.0;0.0;0.0438462322830631;-1.00897318242072;-0.0142755174875089;0.809834478058851;0.1892044570250833;1.0100263191269583
53.7309862;86.7937958;28.0;0.0;-0.0397675130009177;-1.0135617416131335;-0.0244723156928724;1.3820674005974571;0.4633725149784899;1.0146367593318795
53.7307831;86.7934903;23.0;0.0;-0.023452635872336;-0.9931681452024064;-0.0346691138982359;1.998689497260256;0.1733006410853226;0.9940497664768285
53.7306082;86.7932386;21.0;0.0;-0.0418068726419904;-0.9982665443050882;-0.0560823901294993;3.21267379457;-0.0660481916511125;1.0007143161569958
53.730443;86.7929966;22.0;0.0;-0.0550627103089629;-1.0003059039461608;-0.0576119098603038;3.2912967178036707;-0.1909449657212549;1.003475428545147
53.7302804;86.7926804;25.0;0.0;-0.0351789538085041;-0.9972468644845518;-0.0627103089629856;3.5959867534954224;-0.0846097374918493;0.9998357116874572
53.7301116;86.7923324;24.0;0.0;-0.0418068726419904;-0.986030386458652;-0.1014581421433669;5.8695693905824085;-0.1041784979484635;0.9921176806342511
53.7299837;86.7919997;21.0;0.0;-0.0173345569491179;-0.9901091057407974;-0.0825940654634444;4.767797703905053;-0.4848554833650628;0.9936993045107979
53.729893;86.7917042;18.0;0.0;0.0361986336290404;-0.9941878250229428;-0.0876924645661262;5.037415267273773;-0.8022329024597356;0.9987040306527958
53.7297783;86.7913591;16.0;30.0;0.0183542367696543;-1.0186601407158151;-0.1080860609768532;6.055794225028824;-0.7822942804769777;1.0245428038242486
53.7296511;86.7910783;17.0;0.0;-0.0040787192821454;-0.9584990313041704;-0.1029876618741715;6.1326653913422575;-1.0341017135440298;0.9640246301108308
53.7295062;86.7907798;18.0;0.0;0.0193739165901906;-0.9911287855613338;-0.0825940654634444;4.762736048446679;-1.0324131470180562;0.9947529330753982
53.7293182;86.7904382;23.0;0.0;0.0224329560517997;-0.980422147445702;-0.0469052717446721;2.73833562959644;-0.7031692140233987;0.9817998417379712
53.7288747;86.7899179;31.0;0.0;-0.0101967982053635;-1.00336494340777;-0.0295707147955541;1.6880193784163284;-0.6777189637938603;1.003852385327065
53.7285873;86.7896561;33.0;0.0;-0.0764759865402263;-1.0003059039461608;0.0142755174875089;-0.8152425153292118;-0.514996684617871;1.003326601055899
53.7283151;86.7893327;30.0;30.0;-0.0020393596410727;-1.0043846232283062;0.0428265524625267;-2.441584747670695;-0.510075179391334;1.0052993305284936
53.7277736;86.7890216;24.0;30.0;-0.0285510349750178;-1.0023452635872336;0.0152951973080452;-0.8738775544322551;-0.38278271310266;1.0028684520387494
53.7275229;86.7889757;23.0;30.0;0.0214132762312633;-0.9758335882532884;0.0244723156928724;-1.436238033069892;-0.3760154037239758;0.9763752427205518
53.7272786;86.7889874;23.0;30.0;-0.0356887937187723;-0.9646171102273886;0.020393596410727;-1.2103189966175203;-0.5058669011394991;0.9654924951107091
53.7270397;86.7889789;25.0;30.0;-0.0163148771285816;-1.0298766187417152;0.0652595085143265;-3.625322331107349;-0.6785169871720679;1.0320711353865684
53.7267839;86.7890047;26.0;30.0;-0.0101967982053635;-0.9656367900479248;0.0295707147955541;-1.7539239302459155;-0.8500096308942778;0.9661432668922456
53.7264979;86.7889747;30.0;30.0;-0.0178443968593861;-1.0635260528194148;0.0509839910268175;-2.744194845324287;-0.9998128388644508;1.0648969221788287
53.7261676;86.7889516;33.0;30.0;-0.0622004690527174;-1.06760477210156;-0.0356887937187723;1.911379858314809;-0.8778734784960467;1.0700105316124244
53.7258403;86.7888803;33.0;30.0;0.0392576730906495;-1.0166207810747423;-0.0183542367696543;1.033544795441682;-0.7920701320000335;1.0175440311932
53.7254251;86.7889003;31.0;30.0;0.020393596410727;-1.0737228510247785;0.0305903946160905;-1.6316228376009003;-0.9419702997823766;1.0743520986297326
53.7251267;86.7890883;30.0;30.0;-0.1009483022330988;-1.1124706842051597;-0.0397675130009177;2.0389116263840648;-0.8166555248256157;1.1177490943990602
53.7248081;86.7893841;27.0;30.0;0.0254919955134087;-0.9299479963291526;-0.1274599775670439;7.801517116680983;-0.8586867582225834;0.9389883724483774
53.7245373;86.7898045;27.0;30.0;0.0152951973080452;-1.0314061384725195;0.0346691138982359;-1.924972216089064;-0.9269332468476558;1.0321019876920958
53.724241;86.7902762;27.0;0.0;-0.0061180789232181;-1.0186601407158151;0.003059039461609;-0.1720557775672116;-1.1206151749671187;1.0186831062186623
53.7238631;86.7910247;27.0;0.0;-0.0397675130009177;-1.0349750178443968;0.0010196798205363;-0.0564074016936584;-1.0617335720260337;1.0357392444043163
53.7236995;86.7913731;26.0;0.0;-0.0356887937187723;-1.0288569389211788;0.003059039461609;-0.1702512536792722;-1.161864137411616;1.029480280765876
53.7235327;86.7917439;24.0;0.0;-0.0244723156928724;-1.0105027021515245;-0.0214132762312633;1.213601195616934;-1.1843669113736544;1.0110257829006444
53.7233759;86.7920223;22.0;30.0;-0.0040787192821454;-1.023758539818497;0.0101967982053635;-0.5706516960512799;-1.264860776287822;1.0238174439302763
53.7231685;86.7926853;18.0;30.0;-0.0224329560517997;-1.009483022330988;0.0560823901294993;-3.179046877319593;-1.455952922201621;1.0112885069921271
53.7230762;86.792977;19.0;30.0;-0.0142755174875089;-1.0013255837666972;0.0244723156928724;-1.399883278316736;-1.216818888196515;1.0017263145892819
53.7229314;86.7933186;21.0;30.0;-0.0418068726419904;-0.9350463954318344;0.0489446313857448;-2.9934050296071257;-0.9828419041238796;0.9372593841363535
53.7228054;86.7936534;25.0;30.0;-0.0520036708473539;-1.0523095747935147;0.0127459977567043;-0.6931098847724676;-0.98078250987952;1.053670861057912
53.7226366;86.7939966;25.0;30.0;0.0081574385642908;-1.0247782196390334;0.0265116753339451;-1.4819013855644063;-0.5037287907307564;1.0251535554147435
53.7224883;86.7943603;24.0;30.0;-0.0458855919241358;-0.9809319873559702;-0.0040787192821454;0.2379745011500351;-0.0412631692777304;0.9820130789940347
53.7223163;86.7946747;20.0;30.0;0.0254919955134087;-1.0013255837666972;0.0978892627714897;-5.581677749551034;0.0920518151633574;1.0064219166467503
53.7221733;86.7948645;14.0;30.0;0.0254919955134087;-1.0186601407158151;0.0774956663607627;-4.349101758828836;0.6919575315036364;1.021921671373652
53.7220584;86.79498;12.0;30.0;-0.0020393596410727;-1.012542061792597;0.0846334251045171;-4.777957182828348;1.3278708751707464;1.0160749984779032
53.7219333;86.7950085;14.0;30.0;-0.0132558376669725;-0.9982665443050882;0.0825940654634444;-4.729320954441293;1.44177688317022;1.001765237149331
53.7217891;86.7950435;15.0;30.0;0.0142755174875089;-0.9850107066381156;0.020393596410727;-1.185954063690884;1.5641825582198046;0.985325216040785
53.7216344;86.795068;15.0;30.0;0.0601611094116447;-0.9523809523809524;0.061180789232181;-3.668328848739121;2.044677156004953;0.9562384255585855
53.7214744;86.7950616;15.0;30.0;0.0499643112062812;-1.047211175690833;0.0825940654634444;-4.504508257229836;2.218877624750012;1.0516508253863899
53.7213221;86.7950629;15.0;30.0;0.1356174161313347;-1.0186601407158151;0.0846334251045171;-4.708050701777641;2.182651808975433;1.0311272387471033
53.721001;86.7949978;15.0;30.0;0.0305903946160905;-1.0023452635872336;0.0428265524625267;-2.4454141945799037;1.97614475697594;1.0037260150431264
53.7208167;86.7949415;17.0;30.0;0.0326297542571632;-0.9850107066381156;0.0479249515652085;-2.783961603785412;1.9790203909422637;0.9867155588299651
53.7206607;86.7948623;16.0;30.0;0.0683185479759355;-1.009483022330988;0.0683185479759355;-3.8628800694997296;1.7843115507010725;1.01409606072087
53.7204922;86.7948218;17.0;30.0;0.0254919955134087;-0.9635974304068522;0.0683185479759355;-4.054040638222126;1.3162266284462814;0.9663525618114147
53.7203138;86.7947458;18.0;30.0;0.0280411950647496;-0.9952075048434792;0.1244009381054349;-7.122218790420313;1.0722116535968966;1.0033443475292794
53.720126;86.794686;19.0;30.0;0.0101967982053635;-0.9850107066381156;0.1121647802589986;-6.496036496851164;0.6702199586605074;0.9914287694110506
53.7197311;86.7945471;17.0;30.0;-0.0387478331803813;-0.948302233098807;0.0112164780258998;-0.6770954788144101;0.0585648804582181;0.9491598017487173
53.7195748;86.794442;14.0;30.0;-0.0907515040277353;-1.06760477210156;0.0499643112062812;-2.669894516668322;-0.5319151428301242;1.072619325432671
53.7194343;86.7943015;13.0;30.0;0.0469052717446721;-0.9554399918425616;-0.061180789232181;3.659489098508564;-1.104176849065896;0.9585451327405654
53.719284;86.7941512;15.0;30.0;0.0142755174875089;-1.0655654124604874;-0.0214132762312633;1.1511402124695789;-1.797165690205346;1.0658761499492244
53.7190722;86.7940418;18.0;30.0;-0.1172631793616804;-0.8626491281737534;0.0591414295911083;-3.8863122531645993;-2.412985617467357;0.8725891818416193
53.7188908;86.7939884;15.0;30.0;-0.0846334251045171;-1.020699500356888;-0.0361986336290404;2.024176331130933;-2.8127935995405413;1.0248417574193256
53.718738;86.793938;15.0;30.0;-0.023452635872336;-1.0329356582033242;-0.0305903946160905;1.6958821808444469;-3.1900363943038696;1.0336546194740597
53.7183617;86.7938177;20.0;30.0;0.003059039461609;-1.0003059039461608;0.0285510349750178;-1.6349020326059769;-3.277174111852433;1.0007179526670429
53.7181817;86.7937657;17.0;30.0;-0.0795350260018354;-1.0594473335372694;-0.0428265524625267;2.308346192699893;-3.4181564291383166;1.0632913930321115
53.7179401;86.7936009;15.0;30.0;-0.0866727847455898;-1.0370143774854697;-0.0397675130009177;2.188484153316679;-3.446999673362;1.0413896704967884
53.7178569;86.7933897;8.0;0.0;-0.0428265524625267;-1.017640460895279;-0.0254919955134087;1.433696416113159;-3.3361293505427687;1.018860178376914
53.7178369;86.7932673;6.0;0.0;-0.0836137452839808;-1.0003059039461608;-0.0142755174875089;0.8147801798111817;-3.2386666703672717;1.0038958861702225
53.7178267;86.7931547;6.0;0.0;-0.1366370959518711;-1.026307739369838;-0.0856531049250535;4.729172235786641;-3.041688399822382;1.038900248466565
53.7178078;86.7930334;9.0;60.0;-0.0214132762312633;-1.0400734169470789;0.0107066381156316;-0.5896637125850497;-2.823918364962049;1.0403489189395392
53.7177506;86.7928994;7.0;0.0;-0.0173345569491179;-0.9676761496889976;0.0316100744366268;-1.8706566859825255;-2.7140459015227947;0.968347465710235
53.7176615;86.7929127;4.0;0.0;-0.0499643112062812;-0.9952075048434792;-0.003059039461609;0.1758919917757619;-2.800861441504042;0.9964656380495663
53.7176255;86.7929791;1.0;0.0;-0.0316100744366268;-0.9901091057407974;-0.0122361578464362;0.707687208639016;-2.364726690326316;0.9906891347115772
53.7176198;86.792999;1.0;0.0;-0.0285510349750178;-1.0003059039461608;-0.020393596410727;1.1674725550637175;-1.887525470283533;1.0009210567483602
53.717622;86.7930268;1.0;0.0;-0.0326297542571632;-1.0084633425104517;-0.020393596410727;1.1578971740347723;-1.9750771919294403;1.0091971625132519
53.71762815;86.79303295;1.0;0.0;-0.0323748343020291;-1.0084633425104517;-0.0152951973080452;0.8684816718012646;-2.130055070707765;1.009098799000439
53.7176325;86.7930117;2.0;60.0;0.0071377587437544;-0.9992862241256244;0.0173345569491179;-0.9937813569418732;-1.966018829785902;0.9994620514015297
53.7176675;86.7930211;4.0;60.0;-0.0326297542571632;-0.9972468644845518;-0.0316100744366268;1.8145456184276096;-1.7082564718184972;0.9982811259324911
53.7177107;86.7930131;2.0;60.0;-0.0458855919241358;-0.99214846538187;-0.0448659121035994;2.5864456503318163;-1.7125024064620398;0.9942218137692996
53.7177404;86.7929916;3.0;60.0;-0.0254919955134087;-0.9676761496889976;-0.023452635872336;1.3878695902957592;-1.7439611625689044;0.968295925139386
53.7177601;86.7929601;1.0;60.0;-0.0305903946160905;-1.012542061792597;-0.0530233506678902;2.9962805152096794;-1.60327194247697;1.0143907900104485
53.717753900000005;86.7929539;1.0;60.0;-0.0336494340776996;-1.0074436626899157;-0.0112164780258998;0.6375266322030453;-1.6649086962280728;1.0080678683933575
53.7177484;86.7929484;1.0;60.0;-0.0336494340776996;-1.009483022330988;-0.0112164780258998;0.6362402363688714;-2.056193343798012;1.0101059677912814
53.7177511;86.7929511;1.0;60.0;-0.0397675130009176;-1.009483022330988;0.0010196798205363;-0.0578296500938244;-2.0935904613052982;1.0102665327584204
53.7177648;86.7929136;3.0;60.0;-0.0275313551544814;-1.0196798205363515;0.003059039461609;-0.1718242047431684;-2.1754436679730285;1.0200560129954217
53.7177854;86.7929342;2.0;60.0;-0.0469052717446721;-1.0079535026001831;0.0410421127765881;-2.329178585336803;-2.253897597625468;1.0098786179252361
53.7178225;86.7928689;3.0;60.0;-0.0713775874375446;-0.9635974304068522;0.0571020699500356;-3.3820949862936494;-2.326497841491467;0.9679232481285236
53.7178692;86.7928388;4.0;60.0;-0.061180789232181;-1.017640460895279;0.0734169470786173;-4.119002540713562;-2.390789990799916;1.022118018988303
53.7179119;86.7928303;4.0;60.0;-0.0071377587437544;-0.9850107066381156;0.0316100744366268;-1.838005419676298;-2.44431963677971;0.9855436249083512
53.7179521;86.7928193;5.0;60.0;-0.0458855919241358;-1.009483022330988;0.0887121443866625;-5.017028207479157;-2.484632370659739;1.0144118022195987
53.7180088;86.7928248;5.0;60.0;-0.0361986336290404;-0.9819516671765066;0.0764759865402263;-4.450288062424748;-2.509273783668895;0.9855901756128818
53.7180626;86.7927762;7.0;60.0;-0.0265116753339451;-0.9865402263689202;0.0846334251045171;-4.901530662272933;-2.5157894670360714;0.9905187044261077
53.7181338;86.792745;7.0;60.0;-0.0367084735393086;-0.9758335882532884;0.1060467013357805;-6.197812071112833;-2.5017250119901604;0.9822650390078407
53.7181988;86.792682;7.0;60.0;-0.0622004690527173;-1.00336494340777;0.0892219842969307;-5.071848288595487;-2.464626009760053;1.00924262221328
53.7182792;86.7926344;6.0;60.0;-0.0571020699500356;-1.026817579280106;0.0978892627714897;-5.437351391611181;-2.4020380515746425;1.033052416519695
53.718339;86.7926174;6.0;60.0;-0.0275313551544814;-0.9931681452024064;0.0448659121035994;-2.585559948705841;-2.31150672866282;0.994562160063572
53.7183754;86.792577;3.0;60.0;-0.0397675130009177;-0.9768532680738248;-0.0356887937187723;2.0906088943270795;-2.190577632253479;0.9783135757178733
53.7261174;86.844991;5.0;0.0;-0.0173345569491179;-1.0625063729988784;0.0285510349750178;-1.5390427513920275;-3.208405168345868;1.0630312512461704
53.7260609;86.8449345;6.0;0.0;-0.0555725502192311;-0.9758335882532884;-0.0662791883348628;3.879328865387911;-2.423571529694792;0.9796593444190106
53.7260004;86.8448996;8.0;0.0;-0.0132558376669725;-0.9855205465483838;-0.0285510349750178;1.659273928536723;-1.8853407880287247;0.9860231368986344
53.7259407;86.8447887;9.0;0.0;-0.0224329560517997;-0.9819516671765066;-0.0433363923727949;2.5263318555302154;-1.5693335504157715;0.9831634437324404
53.7258749;86.8446717;10.0;60.0;-0.104517181604976;-0.9727745487916796;-0.0336494340776996;1.9698115738761288;-1.4511704239240353;0.9789517089424037
53.7258047;86.8445247;10.0;60.0;-0.0836137452839808;-1.015601101254206;-0.003059039461609;0.1719952133678582;-1.506472015621621;1.0190418112087443
53.7257161;86.8444361;10.0;60.0;0.0020393596410727;-0.9737942286122158;0.0285510349750178;-1.679391470576232;-1.710858932576633;0.9742148224413086
53.7256475;86.8443931;8.0;0.0;-0.037728153359845;-1.023758539818497;0.0316100744366268;-1.7673319724692007;-2.039951781857173;1.0249410510917856
53.7255733;86.8443445;9.0;0.0;-0.023452635872336;-0.9941878250229428;-0.0642398286937901;3.6960239235914143;-2.4693711705313506;0.9965371107710026
53.7254821;86.8443813;11.0;0.0;-0.0346691138982359;-1.0257978994595698;-0.0479249515652085;2.6733713550392237;-2.974737705667264;1.0275018632473043
53.7253466;86.8443226;14.0;60.0;-0.040787192821454;-0.9564596716630978;-0.0356887937187723;2.134972305481224;-3.5316719943330237;0.9579939397580949
53.7251994;86.8443034;12.0;60.0;-0.1019679820536351;-0.8973182420719894;-0.0672988681553992;4.261826667052162;-4.115794643596725;0.9055973909935108
53.7250825;86.8442633;10.0;60.0;-0.0968695829509534;-1.020699500356888;-0.0601611094116447;3.3581167683784336;-4.702726260526479;1.0270494365976413
53.7249774;86.844235;13.0;60.0;-0.0316100744366268;-1.0492505353319057;-0.0622004690527174;3.3910375398476877;-5.268087452190492;1.051567772923152
53.7248376;86.8441208;15.0;60.0;-0.0275313551544814;-0.9850107066381156;-0.0305903946160905;1.7781063513030984;-5.386156194782206;0.9858700928373525
53.7246797;86.8440141;14.0;60.0;-0.040787192821454;-0.9518711124706842;-0.0101967982053635;0.6131876439685626;-5.643123398689986;0.9527991312695836
53.7245482;86.8438826;14.0;60.0;-0.1519322932599164;-1.0655654124604874;0.0346691138982359;-1.8448658020397404;-5.669881984146283;1.0769006534614949
53.7244517;86.8437093;11.0;60.0;-0.1998572448251249;-1.0257978994595698;-0.0101967982053635;0.5590115043110895;-5.518178223119604;1.0451355048692952
53.7243726;86.8434254;9.0;60.0;-0.1570306923625981;-0.9829713469970428;-0.1142041399000713;6.544806153220763;-5.648366590357275;1.0019650158220959
53.724371;86.8432446;11.0;60.0;-0.133578056490262;-0.99214846538187;-0.07545630671969;4.310426085981766;-5.72534661715041;1.0039399029618712
53.724429;86.8430722;11.0;60.0;-0.1723258896706434;-0.9972468644845518;-0.0805547058223717;4.551001752410482;-5.406063606294463;1.0152273546379538
53.7245353;86.8430249;13.0;0.0;-0.1417354950545528;-1.0186601407158151;-0.0387478331803813;2.157603589892493;-5.257408721058181;1.029203005931142
53.7247106;86.8431234;15.0;0.0;-0.0688283878862037;-1.0196798205363515;-0.0897318242071989;5.017714081433479;-4.835267101673036;1.0259318123850198
53.7249565;86.8433181;18.0;30.0;-0.0295707147955541;-0.968695829509534;-0.0695931477516059;4.10728285650663;-4.461981598912741;0.9716425492415722
53.7252283;86.8435131;20.0;0.0;-0.0081574385642908;-0.9972468644845518;-0.0601611094116447;3.4521946194006667;-4.060273353628825;0.9990931946589569
53.7254434;86.8436514;23.0;0.0;-0.0254919955134087;-0.9880697460997246;-0.0571020699500356;3.3064344356210533;-3.766337853046779;0.9900466208140951
53.7257139;86.8437683;25.0;0.0;-0.0193739165901906;-0.9880697460997246;-0.0662791883348628;3.836885739197415;-3.4374370656755016;0.9904797335675002
53.7259976;86.843924;24.0;0.0;-0.0479249515652085;-1.015601101254206;-0.0560823901294993;3.157207345931756;-2.8715961904448157;1.0182767955393666
53.7262357;86.8440597;22.0;0.0;-0.0193739165901906;-0.9829713469970428;-0.07545630671969;4.388766086014073;-2.317067014995704;0.986053584692536
53.726436;86.8442344;21.0;0.0;-0.0178443968593861;-0.9906189456510656;-0.0657693484245946;3.797802735857859;-1.7760117938494626;0.9929601830759881
53.7266888;86.8443592;21.0;0.0;-0.0530233506678902;-1.0043846232283062;-0.0591414295911083;3.3651952024089025;-1.533335842348987;1.0075205485684133
53.7269068;86.8445004;23.0;0.0;-0.040787192821454;-1.0217191801774244;-0.0601611094116447;3.367136945026003;-1.533195275353041;1.024301243446635
53.7271394;86.8446818;26.0;0.0;-0.0316100744366268;-1.0339553380238604;-0.040787192821454;2.257963396941189;-1.5458626194037617;1.0352422097906262
53.7273846;86.8449014;27.0;0.0;-0.0520036708473539;-1.0043846232283062;-0.037728153359845;2.148340803618661;-1.532445759969295;1.0064374132130673
53.7276532;86.845042;28.0;0.0;-0.0061180789232181;-1.011522381972061;-0.058121749770572;3.288520960970453;-1.815057609187972;1.0132093060747793
53.7279295;86.8452159;27.0;0.0;-0.0520036708473539;-1.0105027021515245;-0.0734169470786173;4.149986912861985;-1.8140935729850092;1.0144999462570103
53.7281888;86.8453984;26.0;0.0;-0.0214132762312633;-0.9850107066381156;-0.0662791883348628;3.848596780630274;-1.6155085266997602;0.9874702787410893
53.7284149;86.8455477;23.0;0.0;-0.0112164780258998;-1.006423982869379;-0.0693382277964719;3.9409577118100936;-1.3196304578229008;1.008872059533777
53.7286175;86.8456735;20.0;0.0;-0.037728153359845;-0.986030386458652;-0.0652595085143265;3.783785079326144;-0.8921235516473939;0.988907548776565
53.7288083;86.8458131;20.0;0.0;-0.0367084735393086;-0.9850107066381156;-0.0723972672580809;4.200716306266773;-0.6381122923095892;0.9883496185701414
53.7289974;86.8459766;21.0;0.0;-0.0397675130009177;-1.0084633425104517;-0.0856531049250535;4.850972054601416;-0.3887343216673861;1.0128752256131714
53.7292011;86.8461291;21.0;0.0;-0.0091771183848271;-1.0054043030488429;-0.0744366268991536;4.234078601850553;-0.0274532872214395;1.0081978196341739
53.7294009;86.8462521;19.0;0.0;0.0112164780258998;-1.0074436626899157;-0.0662791883348628;3.763802267647068;0.5544513720296405;1.0096838483801285
53.7295874;86.8463618;18.0;0.0;0.0183542367696543;-0.9880697460997246;-0.0897318242071989;5.188207415816727;1.088032507039028;0.9923056492031689
53.7299475;86.8466451;12.0;0.0;0.0275313551544814;-0.9870500662791885;-0.1233812582848985;7.122274804026135;1.4585664383063754;0.9951124276956635
53.7300437;86.8467669;10.0;0.0;0.0479249515652085;-0.9870500662791885;-0.1315386968491893;7.581938545252341;1.7652864984732868;0.9969288154592889
53.7301346;86.8468578;11.0;0.0;0.0550627103089629;-0.9788926277148976;-0.1254206179259712;7.289843318977974;2.00260827232862;0.9884295675778211
53.7302225;86.8469969;11.0;0.0;0.1040073416947078;-0.9809319873559702;-0.1040073416947078;6.018918579609122;2.0166480130252022;0.9918984918180552
53.7303297;86.8471553;13.0;0.0;0.0316100744366269;-0.9972468644845518;-0.1193025390027531;6.818589163381611;2.191761516612084;1.0048550150855906
53.7304204;86.8473228;12.0;0.0;0.0224329560517997;-0.9972468644845518;-0.133578056490262;7.627270578399576;2.137942497414898;1.006403320452197
53.7305005;86.8475309;11.0;0.0;0.0265116753339451;-1.0003059039461608;-0.1223615784643621;6.971587232281156;2.1440525528804466;1.0081106716441646
53.7306071;86.8479447;14.0;0.0;0.0127459977567043;-0.99214846538187;-0.0968695829509533;5.576008639352128;2.1464789575074907;0.996947718749336
53.7306685;86.8482365;21.0;0.0;0.061180789232181;-1.0079535026001831;-0.0520036708473538;2.948044873821096;2.037923696557461;1.011146742148067
53.7308041;86.8487049;23.0;30.0;0.0917711838482716;-1.0217191801774244;-0.0693382277964719;3.866863956864415;1.811470088265728;1.0281730511744105
53.7309908;86.8490452;19.0;0.0;0.0367084735393086;-0.9819516671765066;-0.0876924645661262;5.099675940851507;1.4776590021803226;0.9865427294557435
53.7311499;86.8492043;14.0;0.0;-0.0152951973080452;-1.0013255837666972;-0.1029876618741715;5.871618196856803;1.1627630061929872;1.0067240566633529
53.7312987;86.8493275;12.0;0.0;-0.0142755174875089;-0.9952075048434792;-0.1172631793616804;6.7193698916581335;0.8281041561100986;1.0021938042765628
53.7314068;86.8493588;10.0;0.0;-0.0214132762312633;-0.99214846538187;-0.1264402977465075;7.261003766418824;0.5411845801458706;1.0004020465056944
53.7315267;86.8494019;10.0;0.0;-0.0173345569491179;-0.9972468644845518;-0.1320485367594575;7.541705786251232;0.2665669471124458;1.0061006965752515
53.7316796;86.8493756;11.0;0.0;-0.0091771183848271;-0.9941878250229428;-0.1254206179259712;7.189797409393397;0.1016365858327325;1.0021097656078555
53.7319251;86.8493139;14.0;0.0;0.020393596410727;-1.0013255837666972;-0.0892219842969307;5.090778393587216;-0.0045037056134474;1.0054995703440963
53.7321217;86.8492545;16.0;0.0;0.0020393596410727;-1.00336494340777;-0.0846334251045171;4.82145274582097;0.0239287368928049;1.0069300796442346
53.7323358;86.8492126;16.0;0.0;0.0122361578464362;-1.009483022330988;-0.0907515040277353;5.136648240144223;-0.1092166827019376;1.0136279058000746
53.7325045;86.8491253;15.0;0.0;0.003059039461609;-1.00336494340777;-0.1050270215152442;5.975635168727432;-0.2296669318040038;1.0088514472559718
53.7327947;86.8488779;12.0;0.0;-0.0010196798205363;-0.9880697460997246;-0.130519017028653;7.52491298450169;-0.258320300803427;0.9966534386187791
53.7328944;86.8487472;11.0;0.0;-0.0163148771285816;-0.99214846538187;-0.1366370959518711;7.840310397761792;-0.3970957020020416;1.0016458698389772
53.7329674;86.8486154;10.0;0.0;-0.0081574385642908;-1.0074436626899157;-0.1407158152340165;7.951151662812355;-0.3888191036317584;1.0172562204061357
53.7330271;86.8484703;10.0;0.0;-0.0050983991026817;-0.9952075048434792;-0.1152238197206077;6.604139831701704;-0.2036869128250444;1.0018685043463542
53.7330772;86.84829;12.0;0.0;-0.0040787192821453;-1.0031100234526358;-0.1009483022330987;5.746584654859567;-0.1000983135865855;1.0081849606227398
53.7331254;86.8480054;13.0;0.0;0.0112164780258998;-1.0043846232283062;-0.0938105434893443;5.3356724715262285;-0.1215959086443724;1.0088184667354867
53.7331473;86.8477713;14.0;0.0;-0.0020393596410727;-1.0054043030488429;-0.1101254206179259;6.250873681863676;-0.1739320213262074;1.0114195864442956
53.7331669;86.8474581;13.0;0.0;-0.0010196798205363;-1.0008157438564291;-0.0948302233098807;5.4127798813756245;-0.3053774942701998;1.005298942678662
53.7331724;86.8472076;11.0;0.0;-0.0152951973080452;-1.0013255837666972;-0.1356174161313347;7.712197223521256;-0.5238817126125384;1.0105834707358659
53.7331713;86.8470017;11.0;0.0;-0.023452635872336;-0.9890894259202612;-0.1254206179259712;7.224762805392815;-0.6223519560673187;0.9972854405823665
53.7331701;86.8468469;12.0;0.0;0.0020393596410727;-0.9850107066381156;-0.0989089425920261;5.734070025323174;-0.6925850394891584;0.9899662772560176
53.7331906;86.846381;15.0;0.0;-0.0010196798205363;-1.0013255837666972;-0.1121647802589986;6.39141399739377;-0.7795101940915705;1.0075886573315536
53.7332075;86.8460907;16.0;0.0;-0.0101967982053635;-0.9901091057407974;-0.0968695829509534;5.587584830702615;-0.8252855670267998;0.9948888038698466
53.7332257;86.8457761;17.0;0.0;-0.0387478331803813;-1.0278372591006424;-0.0662791883348628;3.686948271676464;-0.8749354544519448;1.0307006144259465
53.7332455;86.8454887;18.0;0.0;-0.0224329560517997;-1.012542061792597;-0.0744366268991536;4.203485228542276;-0.9422559023838166;1.015522267525705
53.7332648;86.8451752;18.0;0.0;-0.0132558376669725;-0.99214846538187;-0.0948302233098807;5.459299227014835;-1.1069060141212412;0.9967582785434264
53.7332695;86.8448215;17.0;0.0;-0.0152951973080452;-0.99214846538187;-0.0887121443866625;5.108863827650215;-1.3047616489142988;0.9962240536053985
53.7332733;86.8445181;16.0;0.0;-0.0214132762312633;-1.0043846232283062;-0.0999286224125624;5.680513101804513;-1.444200478926963;1.0095705668023882
53.7332932;86.844154;15.0;0.0;-0.0356887937187723;-1.011522381972061;-0.1080860609768532;6.095423969014049;-1.5667497215630928;1.0179065850091673
53.7332998;86.8438022;14.0;0.0;-0.0367084735393086;-1.0013255837666972;-0.092790863668808;5.290832449047083;-1.5584402724659745;1.006285536572849
53.7332947;86.8435155;13.0;0.0;-0.0305903946160905;-0.9855205465483838;-0.1172631793616804;6.782259166607444;-1.6774699805020508;0.9929436908233029
53.7332882;86.8433042;13.0;0.0;-0.0061180789232181;-1.0084633425104517;-0.1009483022330988;5.716224528954032;-1.7395500404200022;1.0135217332651572
53.7332811;86.8430411;13.0;0.0;-0.0418068726419904;-0.9982665443050882;-0.1172631793616804;6.693835445572074;-1.7907105170689646;1.0059992849465331
53.733268;86.8428488;15.0;0.0;-0.0224329560517997;-0.9931681452024064;-0.0560823901294993;3.2311332941617823;-1.8865025245407645;0.9950032344895404
53.7332575;86.8425823;17.0;0.0;-0.0326297542571632;-1.00336494340777;-0.0831039053737126;4.732237244342905;-1.9091780676377796;1.0073292260283742
53.7332602;86.8422778;18.0;0.0;-0.0351789538085041;-1.011522381972061;-0.0764759865402263;4.321010141148932;-1.870408474367084;1.0150190463921323
53.7332594;86.8419186;20.0;0.0;-0.0428265524625267;-1.0054043030488429;-0.0734169470786173;4.172687053790156;-1.7562474499089331;1.0089905719595695
53.7332699;86.8415451;20.0;0.0;-0.0443560721933312;-1.009483022330988;-0.0560823901294993;3.1767712366980216;-1.6748161854026005;1.0120121876724426
53.7332795;86.8411707;21.0;0.0;-0.0326297542571632;-1.0074436626899157;-0.0836137452839808;4.741968686704975;-1.5158235298064722;1.0114339784471202
53.7333307;86.8408123;20.0;0.0;-0.0122361578464362;-1.01458142143367;-0.0683185479759355;3.852013111955488;-1.2355164540757937;1.0169526086670653
53.7333798;86.840503;19.0;0.0;-0.0214132762312633;-1.0003059039461608;-0.0632201488732537;3.6155040471259454;-1.03504396730408;1.0025304070660694
53.7334344;86.840148;19.0;0.0;-0.020393596410727;-1.0166207810747423;-0.078515346181299;4.4153986440249655;-0.8162205293025769;1.0198521318669447
53.733537;86.8397898;19.0;0.0;-0.040787192821454;-1.020699500356888;-0.0825940654634444;4.622568812509655;-0.7926375748651008;1.0248477178473077
53.7336779;86.8394443;19.0;0.0;-0.003059039461609;-1.006423982869379;-0.0672988681553992;3.825615774414825;-0.688908717120684;1.0086762258882132
53.7338454;86.8391254;19.0;0.0;-0.0050983991026817;-1.0084633425104517;-0.0703579076170082;3.99086226191548;-0.970459294659166;1.0109275651722067
53.7340174;86.8387854;17.0;0.0;-0.011726317936168;-0.986030386458652;-0.1019679820536351;5.903705081479739;-0.8411813780936155;0.9913581083121423
53.7341268;86.838562;16.0;0.0;0.0012745997756704;-0.997246864484552;-0.0632201488732537;3.6273906626540686;-0.802203034733383;0.9992495787101514
53.7342079;86.8382335;19.0;0.0;0.020393596410727;-1.0054043030488429;-0.07545630671969;4.29116314308668;-0.5738987184780289;1.0084380821783105
53.7342139;86.8377787;22.0;0.0;0.0224329560517997;-1.0421127765881513;-0.0560823901294993;3.079748710927909;-0.4336240336217462;1.0438618256877321
53.7342207;86.8372479;26.0;0.0;0.0071377587437544;-1.023758539818497;-0.0499643112062812;2.7940231495845222;-0.2046871911640389;1.0250019160204058
53.7342688;86.8368352;26.0;0.0;-0.0040787192821454;-1.0023452635872336;-0.0774956663607627;4.420954303887124;-0.021755917532731;1.0053448372033558
53.7343034;86.8363578;25.0;0.0;-0.0132558376669725;-1.00336494340777;-0.0693382277964719;3.952835645317051;0.0382271912109585;1.0058452747445235
53.7343735;86.8359671;25.0;0.0;-0.0448659121035994;-0.971754868971143;-0.0509839910268175;3.000130687495554;0.1689225229321078;0.9741251679219842
53.7345272;86.8356344;26.0;0.0;-0.0285510349750178;-1.015601101254206;-0.0305903946160905;1.7245739478771087;0.2057751476531006;1.0164627542166358
53.7347133;86.8352829;29.0;0.0;-0.0448659121035994;-0.9880697460997246;-0.0550627103089629;3.186378043958119;0.28406233805046;0.9906193392484476
53.7352235;86.8344619;36.0;0.0;-0.0025491995513408;-0.9737942286122158;-0.0397675130009177;2.338520217348335;0.2466381530157151;0.9746092310188176
53.7354872;86.83406;35.0;0.0;-0.0346691138982359;-1.00336494340777;-0.0122361578464362;0.698277712044838;0.1501948672710282;1.004038286459739
53.7357439;86.8336767;28.0;30.0;0.1121647802589986;-1.0594473335372694;0.0285510349750178;-1.535114540751984;0.1677860093732626;1.0657507926658671
53.7358773;86.8332469;26.0;30.0;0.0326297542571632;-1.020699500356888;-0.058121749770572;3.2574168882110244;0.2363415550509535;1.0228735545941523
53.7358942;86.8327774;23.0;30.0;0.037728153359845;-0.9911287855613338;-0.0713775874375446;4.11615714310387;-0.0622462770814623;0.9944116064852787
53.7358177;86.8323937;20.0;0.0;0.0010196798205363;-0.9890894259202612;-0.0652595085143265;3.774866750505274;-0.2318880400664201;0.9912405034429029
53.7357746;86.8320946;19.0;0.0;0.0183542367696543;-0.979912307535434;-0.0632201488732537;3.6907404194710502;-0.3842595443299924;0.9821210697721396
53.7357286;86.8317158;22.0;0.0;-0.0183542367696543;-1.0227388599979603;-0.0571020699500356;3.195135530611688;-0.5146217435871732;1.0244961201243774
53.7356673;86.8312961;27.0;0.0;-0.0295707147955541;-1.0023452635872336;-0.0448659121035994;2.56178891607105;-0.4353253907227428;1.0037845409639305
53.7355834;86.830649;30.0;0.0;-0.0112164780258998;-0.962577750586316;-0.0214132762312633;1.2742916430185185;-0.3800119448852219;0.9628812303197493
53.7355334;86.8301126;33.0;0.0;-0.0418068726419904;-0.9890894259202612;-0.020393596410727;1.180135474636871;-0.6082395615344607;0.9901826123710409
53.7354742;86.8295158;35.0;0.0;-0.0061180789232181;-1.015601101254206;-0.0326297542571632;1.840161890156336;-0.8507656546682126;1.0161435570928694
53.7354106;86.8289146;36.0;0.0;-0.0397675130009177;-1.023758539818497;-0.0010196798205363;0.0570244845951321;-1.1024212501164978;1.0245311330987046
53.7353409;86.8283073;35.0;0.0;-0.0152951973080452;-1.0298766187417152;-0.0020393596410727;0.1134443305466483;-1.3730719991050009;1.0299922096206873
53.7352727;86.8276503;35.0;0.0;-0.0326297542571632;-1.0227388599979603;-0.040787192821454;2.28260584303593;-1.693294401242313;1.0240718098410213
53.7351993;86.8270649;36.0;0.0;-0.0479249515652085;-0.968695829509534;-0.0509839910268175;3.009113909133065;-1.928772811873379;0.9712197374604341
53.7351397;86.8264421;38.0;0.0;-0.0897318242071989;-1.0054043030488429;-0.040787192821454;2.313911171688657;-1.6762379074268314;1.0102243354636313
53.7350788;86.8257412;38.0;0.0;0.0071377587437544;-0.9697155093300704;-0.0112164780258998;0.662679704743289;-1.4811692303359525;0.9698066436225664
53.7350289;86.8251025;36.0;0.0;-0.0163148771285816;-1.0084633425104517;-0.003059039461609;0.1737758566709032;-1.427112747957796;1.008599943548234
53.7349695;86.8244543;35.0;0.0;0.0071377587437544;-1.0135617416131333;0.0096869582950953;-0.5475652293869478;-1.3012971057545053;1.013633162846768
53.7348547;86.8237507;33.0;0.0;0.0224329560517997;-1.0084633425104517;0.0163148771285816;-0.9266186439599708;-1.1421703164164836;1.008844748175008
53.7347407;86.8231759;33.0;0.0;-0.0489446313857448;-0.9911287855613338;-0.0305903946160905;1.765676795097625;-1.0638441791758064;0.992807946559927
53.7346168;86.8226168;34.0;0.0;-0.0632201488732537;-0.9870500662791885;-0.0071377587437544;0.4134745510725585;-1.12133591970939;0.9890983612185346
53.7345126;86.8220262;35.0;0.0;0.0132558376669725;-1.009483022330988;-0.0010196798205363;0.0578695160355587;-0.8349527320759347;1.0095705668023882
53.7344513;86.8214017;35.0;0.0;-0.0173345569491179;-1.0349750178443968;0.0091771183848271;-0.5079568430303218;-0.6977610754290368;1.0351608541325743
53.7343947;86.8208331;35.0;0.0;-0.0040787192821454;-1.009483022330988;0.0142755174875089;-0.8101827302642428;-0.4167265044266416;1.0095921942670836
53.734279;86.820231;35.0;0.0;-0.0265116753339451;-1.0339553380238604;0.0423167125522585;-2.342868459045016;-0.652498677748069;1.0351604774711398
53.7338101;86.8194037;31.0;0.0;0.0326297542571632;-0.9829713469970428;0.0275313551544814;-1.6034551557257684;-0.8156330970137637;0.9838980360772684
53.7335089;86.8192561;26.0;30.0;-0.0224329560517997;-0.9850107066381156;0.0418068726419904;-2.429720517982632;-0.8297276374166406;0.9861526982719488
53.7332638;86.8192414;21.0;30.0;-0.0214132762312633;-0.9534006322014889;0.0509839910268175;-3.0602594952097117;-1.053235113044601;0.9550029639860693
53.7330301;86.8191869;26.0;30.0;-0.0601611094116447;-1.0492505353319057;0.0448659121035994;-2.444463779216871;-1.542510605590547;1.0519310790393155
53.7327267;86.8190115;36.0;0.0;0.0096869582950953;-1.041093096767615;0.0081574385642908;-0.4489099088276594;-1.554873412713746;1.0411701191938443
53.7323695;86.8187823;39.0;0.0;-0.0336494340776996;-1.0003059039461608;-0.0010196798205363;0.058372445938197;-1.725850254502862;1.0008722324204182
53.7319298;86.8184194;39.0;0.0;-0.0183542367696543;-1.041093096767615;0.0622004690527174;-3.4185620182456637;-1.6171812302893387;1.0431110259674936
53.731452;86.8181208;37.0;0.0;-0.0214132762312633;-1.041093096767615;-0.0040787192821454;0.2244206505291985;-1.2055274442733934;1.041321276305791
53.7309909;86.8177877;37.0;0.0;0.0163148771285816;-1.0217191801774244;0.0050983991026817;-0.2858682680928722;-1.4426736113047849;1.0218621492312743
53.7306439;86.8175431;38.0;0.0;-0.0764759865402263;-0.9870500662791885;-0.0275313551544814;1.5929402067309535;-1.8886104635020016;0.9903910265020041
53.7302876;86.8172124;37.0;30.0;-0.0866727847455898;-1.012542061792597;0.0397675130009177;-2.2409448795231284;-2.161294154629549;1.0170226416383448
53.7299867;86.8168347;35.0;30.0;-0.1284796573875803;-1.0329356582033242;-0.0346691138982359;1.907646032646186;-2.603806207194307;1.04147253627201
53.7297874;86.8163538;36.0;30.0;-0.0081574385642908;-0.9758335882532884;-0.0101967982053635;0.5986592758707909;-2.637505259998606;0.9759209550270245
53.7296104;86.8157672;36.0;30.0;0.0015295197308045;-0.92790863668808;-0.0101967982053635;0.6295977531512691;-3.0566029985005585;0.9279659218767567
53.7292881;86.8146513;35.0;30.0;-0.0622004690527174;-0.9992862241256244;0.0622004690527174;-3.5549124731031903;-3.0966078782395168;1.003150414657744
53.7291714;86.8140994;36.0;0.0;-0.0275313551544814;-1.0716834913837054;0.0285510349750178;-1.5255696362269826;-3.24095494857567;1.0724171962530047
53.7290056;86.8134984;36.0;0.0;0.0081574385642908;-1.047211175690833;0.0601611094116447;-3.287864850607486;-3.374236735796992;1.0489695655172018
53.7288416;86.8129504;32.0;0.0;-0.0509839910268175;-1.0257978994595698;0.0101967982053635;-0.5688197050802642;-3.718841552016346;1.0271147319410472
53.7286609;86.8123601;29.0;60.0;-0.0214132762312633;-1.0563882940756602;0.07545630671969;-4.084780522198322;-3.359266670992922;1.0592961863817012
53.728611;86.811875;27.0;60.0;-0.0866727847455898;-0.9982665443050882;0.0346691138982359;-1.9815948769627345;-3.397711429604844;1.0026216697004244
53.7286661;86.8114437;22.0;60.0;-0.1967982053635158;-1.0247782196390334;0.0265116753339451;-1.4553665940919294;-3.309205703191078;1.0438404102207675
53.7288304;86.8112496;17.0;0.0;-0.0887121443866625;-0.9850107066381156;-0.0336494340776996;1.948667451077879;-3.065730228753952;0.9895697151626809
53.7290165;86.8112309;19.0;0.0;-0.0591414295911083;-0.9788926277148976;-0.0489446313857448;2.857203987263364;-2.575560264247484;0.9818981934142376
53.729235;86.8111422;25.0;0.0;-0.0356887937187723;-0.9839910268175792;-0.0418068726419904;2.431268578545249;-2.266791254407329;0.985525162263612
53.7295077;86.8110053;29.0;60.0;0.0101967982053635;-1.0074436626899157;0.0295707147955541;-1.681189922841484;-1.8813548415747787;1.0079291321125872
53.7297625;86.8108505;28.0;60.0;-0.0978892627714897;-1.0278372591006424;0.0122361578464362;-0.678988321728818;-1.7863939715961734;1.0325606338226874
53.7300512;86.8106784;30.0;60.0;0.0132558376669725;-1.0003059039461608;-0.0254919955134087;1.4596930159617478;-1.6265211769232213;1.0007184721673996
53.7303934;86.8105854;32.0;60.0;-0.0152951973080453;-1.049760375242174;-0.0127459977567043;0.6955668331307276;-1.2225453127453323;1.0499491649351869
53.7307787;86.8104075;31.0;60.0;-0.0101967982053635;-1.055368614255124;0.0224329560517997;-1.2176411170446004;-0.9959401534441132;1.055656252842583
53.731095;86.810263;30.0;60.0;0.0101967982053635;-1.061486693178342;0.0183542367696543;-0.990560711619684;-0.6752150455524943;1.0616943310085671
53.7313674;86.8099978;27.0;60.0;0.0723972672580809;-1.0308962985622514;0.0132558376669725;-0.7348906061697881;-0.1587621943099746;1.0335203239066184
53.7315685;86.8096613;25.0;60.0;-0.0606709493219129;-0.9666564698684612;-0.003059039461609;0.1809590808217173;0.0142759012208922;0.968563396248591
53.7317142;86.809295;22.0;60.0;0.0346691138982359;-0.93912511471398;-0.0672988681553991;4.096099025422562;0.4476881528485498;0.9421714632698407
53.7317875;86.8088563;18.0;0.0;0.0458855919241358;-1.0003059039461608;-0.1019679820536351;5.8143715092490735;0.6827832637965701;1.0065360690903553
53.7317968;86.8085328;15.0;0.0;0.0254919955134087;-1.00336494340777;-0.0968695829509534;5.512745769982825;0.5497305289259636;1.0083525016560553
53.7318196;86.8082996;14.0;0.0;0.0152951973080452;-0.9870500662791885;-0.1029876618741715;5.955912074829681;0.7008392812328603;0.9925261885213664
53.7318072;86.8080312;15.0;0.0;-0.0081574385642908;-0.9992862241256244;-0.0795350260018354;4.550532211670308;0.9503033084011068;1.002479586770868
53.7317762;86.8073602;23.0;0.0;-0.0601611094116447;-0.986030386458652;-0.0081574385642908;0.4731179376694797;0.8464845616827175;0.9878976798785231
53.7317637;86.8069381;25.0;0.0;-0.0458855919241358;-0.9845008667278474;0.0489446313857448;-2.8430451035361624;0.5714856303202843;0.9867841816099392
53.7317411;86.8060451;25.0;0.0;0.0428265524625267;-1.0074436626899157;0.0193739165901906;-1.1007122547282366;-0.0733366819024565;1.0085396351824463
53.731744;86.8056128;22.0;0.0;0.0010196798205363;-1.0288569389211788;0.023452635872336;-1.305821711989187;-0.0294519863115037;1.0291247089845599
53.731726;86.8052364;21.0;0.0;-0.0015295197308045;-1.012542061792597;0.0509839910268175;-2.882546113686331;-0.368293117417808;1.0138259878651923
53.7317112;86.8048632;21.0;0.0;0.0061180789232181;-0.9829713469970428;0.0418068726419904;-2.435338833149133;-0.5705617381169538;0.9838790141612916
53.7317044;86.8044724;21.0;30.0;-0.0101967982053635;-1.0105027021515245;0.0530233506678902;-3.0035311514215337;-0.7133547975730905;1.0119442482000793
53.7316699;86.8040283;21.0;30.0;0.0550627103089629;-1.0023452635872336;0.0458855919241358;-2.617129022631485;-0.7346891389784835;1.0049046805784905
53.7316371;86.8036371;22.0;30.0;0.0168247170388497;-1.026307739369838;0.0601611094116447;-3.3543312573219537;-1.357225501524905;1.0282071805232178
53.7315691;86.8031339;24.0;30.0;0.0081574385642908;-1.0339553380238604;0.0693382277964719;-3.836457079479917;-1.4839394555662624;1.0363097870163733
53.7313088;86.8022336;28.0;0.0;-0.0265116753339451;-1.006423982869379;0.0550627103089629;-3.1305175383044013;-1.1859733655633486;1.0082777416417787
53.7311728;86.8017904;30.0;60.0;-0.0836137452839808;-1.0298766187417152;0.0428265524625267;-2.373424428946352;-0.9182443239298652;1.0341524171161174
53.7310704;86.801304;31.0;60.0;-0.1549913327215254;-1.0461914958702967;-0.0163148771285816;0.8837846136515772;-0.7435245669688669;1.0577358528790846
53.7311237;86.8007429;28.0;60.0;-0.0632201488732537;-0.9982665443050882;-0.0244723156928724;1.4015073699857823;-0.397815683518666;1.0005657274451043
53.7313573;86.7999269;29.0;60.0;0.0326297542571632;-0.9809319873559702;0.0152951973080452;-0.8928192102687114;-0.477712942219069;0.9815937080797269
53.731438;86.799342;33.0;60.0;0.0458855919241358;-0.9330070357907616;0.040787192821454;-2.500121918498704;-1.011697175851199;0.9350247116945873
53.7313937;86.7987857;34.0;60.0;-0.0683185479759355;-0.93912511471398;0.0040787192821454;-0.2481842037552388;-1.2553397366001413;0.941615654625107
53.7313678;86.798171;37.0;0.0;0.0122361578464362;-1.0227388599979603;-0.0050983991026817;0.2855992262913593;-1.3771712881299425;1.0228247616195947
53.7313772;86.7975404;38.0;0.0;-0.0285510349750178;-1.0023452635872336;0.0091771183848271;-0.5243525543223243;-1.6039820386505697;1.0027938016041755
53.7313911;86.7968375;39.0;0.0;-0.0336494340776996;-0.9829713469970428;-0.037728153359845;2.196747446967417;-1.8127318637797745;0.9842704745073247
53.7313971;86.7962035;39.0;0.0;0.0040787192821454;-1.0431324564086877;0.020393596410727;-1.1200008521283042;-1.9778348916303028;1.0433397607389305
53.7313397;86.7948917;31.0;0.0;0.0856531049250535;-1.0339553380238604;0.0071377587437544;-0.3941765477185897;-1.729001072399024;1.037521586768787
53.7312196;86.7944132;28.0;0.0;0.0530233506678902;-1.0074436626899157;-0.0081574385642908;0.4632821054184843;-1.5443047272116603;1.008871028929889
53.7308356;86.7936964;27.0;0.0;-0.0509839910268175;-0.99214846538187;-0.0540430304884266;3.1137601554440906;-1.0565684236075563;0.9949264263476949
53.7306527;86.7933855;26.0;0.0;-0.0637299887835219;-0.9906189456510656;-0.0418068726419904;2.41162752970772;-0.7297932459225233;0.9935467888093042
53.7304674;86.7930722;27.0;0.0;-0.0509839910268175;-1.0166207810747423;-0.003059039461609;0.17218763736151;-0.8965312402487243;1.0179030099063806
53.7302545;86.7927313;26.0;0.0;-0.1468338941572346;-0.9574793514836342;-0.0458855919241358;2.712047980100957;-1.177027182801102;0.9697589332082107
