lat;lon;vel;class;acc_X;acc_Y;acc_Z;fb_tilt;tilt;acc
53.7279673;86.8530873;9.0;0.0;-1.591137140845242;-1.042465272797172;0.0020393596410727;-1.0278372591006424;0.0285510349750178;1.90222380516936
53.7278952;86.8531432;8.0;0.0;-2.206898219400895;-0.3708021901334839;0.0122361578464362;-1.0054043030488429;0.0387478331803813;2.237865889315415
53.7278358;86.8532118;9.0;90.0;2.30896786627837;0.1082731185186121;0.0091771183848271;-1.011522381972061;-0.040787192821454;2.3115232845899873
53.727781;86.8533874;10.0;90.0;-1.992336459898626;0.4120777534923017;-0.0163148771285816;-1.0257978994595698;0.0356887937187723;2.0345709178056124
53.7277752;86.8535352;9.0;90.0;-7.921080370659941;0.5579288151207709;-0.078515346181299;-0.9788926277148976;0.1366370959518711;7.941093341649012
53.7277872;86.8536752;7.0;90.0;-0.120160851038181;0.5631434037372052;-0.0652595085143265;-0.9702253492403384;0.0020393596410727;0.579506623557036
53.7277692;86.8539132;10.0;90.0;-3.070437104527249;0.4450386196747908;0.1101254206179259;-0.9727745487916796;0.0525135107576221;3.1044759612736565
53.7277309;86.8540541;12.0;90.0;-1.6199228415448013;0.2209315632667132;0.0509839910268175;-0.9360660752523708;0.0265116753339451;1.635713952849666
53.7276833;86.8542625;10.0;90.0;0.2295374914422637;-0.0918606651538413;0.0305903946160905;-1.017640460895279;-0.0040787192821454;0.2491216851718886
53.7275952;86.8544304;11.0;90.0;-4.280242569355467;-0.4760209652536872;-0.0193739165901906;-1.0625063729988784;0.0795350260018354;4.306674791591279
53.7275116;86.8545004;9.0;0.0;-0.8599011662208168;-0.9142322366996394;-0.0703579076170082;-1.0166207810747423;0.0152951973080452;1.2570603937174178
53.7273837;86.8544237;11.0;0.0;2.726274529704999;-1.38917737915851;-0.0050983991026817;-0.9850107066381156;-0.0469052717446721;3.0598059735475602
53.7272769;86.8542657;15.0;0.0;2.840824856469697;-1.8835392922971168;-0.0173345569491179;-0.9656367900479248;-0.0479249515652085;3.4085637177010235
53.7271655;86.8540775;14.0;0.0;-1.3577535568301384;-2.380000875782307;-0.0530233506678902;-0.9880697460997246;0.023452635872336;2.740567526175097
53.7270346;86.8538954;16.0;0.0;-0.4159600967256757;-2.6269981716664117;-0.0193739165901906;-0.9829713469970428;0.0071377587437544;2.659796523166903
53.7268407;86.8536759;18.0;30.0;-3.7019505213775377;-2.927374773340924;-0.066789028245131;-0.9906189456510656;0.0642398286937901;4.720002277606885
53.7266972;86.8534044;19.0;30.0;-4.152675205599087;-3.043820600697889;-0.0836137452839808;-1.0288569389211788;0.0749464668094218;5.149421955018902
53.7266141;86.8531421;18.0;0.0;-2.9960364493394063;-3.278497956618599;-0.0734169470786172;-1.02018966044662;0.0535331905781584;4.4418659711253055
53.7265717;86.8527413;17.0;0.0;-2.014421410206939;-3.5388950880214325;-0.0856531049250535;-0.9819516671765066;0.0346691138982359;4.072960657348121
53.7266147;86.8525027;17.0;0.0;-1.5731853902830328;-4.1541544418382585;-0.1019679820536351;-0.9972468644845518;0.0275313551544814;4.443231804464921
53.7267446;86.8522998;18.0;0.0;-0.4647648574555766;-3.661648087408736;-0.0672988681553992;-1.00336494340777;0.0081574385642908;3.6916395038525573
53.7269228;86.8521964;18.0;0.0;-0.2251933916738171;-3.362253098015459;-0.0601611094116447;-1.0359946976649332;0.0040787192821454;3.3703230287101187
53.7271157;86.8520309;20.0;0.0;1.5388107621000768;-3.176429083972027;-0.0346691138982359;-0.948302233098807;-0.0254919955134087;3.5297085197671603
53.727295;86.8518006;25.0;0.0;1.051893762972921;-3.2981555452616025;-0.0759661466299581;-0.9967370245742836;-0.0183542367696543;3.462669684615469
53.7275734;86.8514902;26.0;0.0;1.2364422019923214;-3.595730912018793;-0.0774956663607627;-0.9890894259202612;-0.0214132762312633;3.8031665344578087
53.7278157;86.8512973;29.0;0.0;2.39443108882141;-3.623301883383271;-0.0644947486489242;-0.9732843887019476;-0.040787192821454;4.343475146682266
53.7281843;86.8509747;29.0;0.0;0.3496895182920287;-3.6943362350999096;0.0122361578464362;-1.0023452635872336;-0.0061180789232181;3.7108695343186517
53.7284489;86.8507273;28.0;0.0;1.9173091868624743;-3.8144737438118494;-0.0591414295911083;-1.0339553380238604;-0.0346691138982359;4.269634898788339
53.7286808;86.8504728;27.0;0.0;4.421427142600185;-3.7950215072497335;-0.0142755174875089;-0.962577750586316;-0.0744366268991536;5.826783847733603
53.7289016;86.8502328;27.0;0.0;3.1683371326001337;-3.807213735868801;-0.0591414295911083;-1.0298766187417152;-0.0571020699500356;4.9534568056151445
53.729143;86.8500646;24.0;0.0;1.834272906238059;-3.780227884067551;-0.035178953808504;-1.0023452635872336;-0.032119914346895;4.201894514243773
53.7294352;86.8498448;25.0;0.0;1.6433268985480949;-3.764112423840959;-0.0999286224125624;-0.954420312022025;-0.0275313551544814;4.108412268064494
53.7296905;86.8496649;26.0;0.0;2.265590868476645;-3.7849092096444648;0.0020393596410727;-0.9794024676251656;-0.0387478331803813;4.411172618200742
53.7298993;86.8494129;27.0;30.0;2.3327231105149493;-3.679650247754189;-0.1600897318242072;-1.0390537371265425;-0.0428265524625267;4.35970776295425
53.7301731;86.8492003;29.0;30.0;0.8191816171582986;-3.418901488801558;-0.147853573977771;-1.0594473335372694;-0.0152951973080452;3.518779133642462
53.7304642;86.8491586;29.0;0.0;1.9795425429313132;-3.148275735431157;-0.1157336596308759;-0.9666564698684612;-0.0336494340776996;3.720701958710361
53.7307394;86.8492034;29.0;0.0;5.160399937119916;-2.820520695131718;-0.0601611094116447;-1.0370143774854697;-0.0938105434893443;5.881214488673167
53.7310033;86.8492625;23.0;0.0;4.240933913937311;-2.6854829756354786;-0.0438462322830631;-1.0166207810747423;-0.07545630671969;5.019886628888848
53.7312436;86.8493492;15.0;0.0;5.937512335786887;-2.620100153240326;-0.0479249515652085;-0.9890894259202612;-0.1029876618741715;6.490090473299579
53.7313779;86.8493299;12.0;0.0;6.076539912715296;-2.366361831851912;-0.0173345569491179;-0.9768532680738248;-0.1040073416947078;6.5210663328118486
53.7315152;86.8493392;11.0;0.0;7.40826640473904;-1.841116553573428;-0.0101967982053635;-0.9880697460997246;-0.1284796573875803;7.633624647709687
53.7317747;86.8493427;13.0;0.0;5.329040714492002;-1.5231313269277067;0.0122361578464361;-0.994697664933211;-0.0927908636688079;5.54245015307678
53.7321277;86.8492605;16.0;0.0;4.950861740338896;-1.0164962683217318;0.0061180789232181;-1.006423982869379;-0.087182624655858;5.054140289540171
53.7323005;86.8492029;16.0;0.0;5.499046223853268;-0.6604008563962552;-0.0045885591924135;-0.9850107066381156;-0.0948302233098807;5.538561159550309
53.732472;86.8491184;15.0;0.0;4.930750033010138;-0.220821872540274;0.023452635872336;-1.0043846232283062;-0.0866727847455898;4.935747989266777
53.7326246;86.8490406;14.0;0.0;5.425204824877269;-0.0765287892715669;0.0397675130009177;-1.0084633425104517;-0.095849903130417;5.425890295845396
53.7327407;86.8489263;12.0;0.0;6.530929589268541;0.4564349671386665;-0.0101967982053635;-1.006423982869379;-0.1152238197206077;6.54686781246604
53.7328311;86.8488119;11.0;0.0;7.659956250649603;0.4466422032776654;-0.0305903946160905;-1.0003059039461608;-0.1345977363107984;7.673027746063311
53.7329098;86.8486602;10.0;0.0;8.040467198909347;0.3036570344184817;-0.0275313551544814;-0.99214846538187;-0.1402059753237483;8.046246227080402
53.7329751;86.8484951;11.0;0.0;7.059134414396956;0.0862165379416102;-0.020393596410727;-1.0043846232283062;-0.1244009381054349;7.0596903523251395
53.7330362;86.8483514;12.0;0.0;6.522926186972188;-0.0411950900495493;0.0061180789232181;-1.0166207810747423;-0.116243499541144;6.523059137170337
53.7330897;86.8481489;13.0;0.0;6.141883113794451;-0.1391451745569399;0.0305903946160905;-0.9850107066381156;-0.1060467013357805;6.1435352473440465
53.7331203;86.8478723;13.0;0.0;6.782782484825092;-0.398573347069616;-0.0152951973080452;-1.011522381972061;-0.1203222188232894;6.79450019445912
53.7331373;86.8476333;13.0;0.0;6.585842358756624;-0.588276540712604;-0.0132558376669725;-0.9890894259202612;-0.1142041399000713;6.612077175893976
53.7331437;86.8473837;13.0;0.0;6.844899869362807;-0.7756124664874925;-0.0071377587437544;-1.0023452635872336;-0.1203222188232894;6.88870669047345
53.7331494;86.8471334;11.0;0.0;7.412450706654367;-0.8374463679308108;-0.0193739165901906;-0.9952075048434792;-0.1294993372081166;7.459632514164848
53.7331671;86.8469463;11.0;0.0;6.867424523553031;-0.911126400944704;-0.0122361578464362;-1.0074436626899157;-0.1213418986438258;6.927612909852488
53.7332049;86.8466513;13.0;0.0;5.8078199875940175;-0.9898263884470287;-0.0173345569491179;-1.0023452635872336;-0.1019679820536351;5.891589749331439
53.7332247;86.8461335;15.0;0.0;4.960914640884934;-0.9697812184605354;-0.0040787192821454;-1.0043846232283062;-0.087182624655858;5.0548161511351015
53.7332404;86.8458676;16.0;0.0;4.451231468033645;-0.8844842012224885;-0.0244723156928724;-0.9952075048434792;-0.0774956663607626;4.538322683377694
53.7332689;86.8454609;18.0;0.0;4.127983192464217;-0.944067311868892;-0.0316100744366268;-1.0308962985622514;-0.0744366268991536;4.234679152357628
53.7332764;86.84511;18.0;0.0;4.77698239325968;-1.1113521655904957;-0.023452635872336;-0.9880697460997246;-0.0825940654634444;4.904611549104071
53.7332821;86.8448341;17.0;0.0;5.348634337199035;-1.3034261512777257;-0.0254919955134087;-0.9962271846640156;-0.0933007035790761;5.505221053394175
53.7332722;86.8445682;17.0;0.0;5.622533566447389;-1.5755020057790494;-0.0244723156928724;-1.0043846232283062;-0.0989089425920261;5.839151408404887
53.7332808;86.8442696;15.0;0.0;6.116638216206609;-1.703497250652446;-0.040787192821454;-0.9982665443050882;-0.1070663811563169;6.3495534918636505
53.7332896;86.8440224;15.0;0.0;5.450764690781661;-1.6822804295950695;-0.0142755174875089;-1.0043846232283062;-0.095849903130417;5.704481304068776
53.733299;86.8437502;14.0;0.0;5.727341305350232;-1.715675043296896;-0.0152951973080452;-0.9962271846640156;-0.0999286224125624;5.978813697149578
53.7332972;86.843518;13.0;0.0;5.953733559763162;-1.7176686309925948;-0.0112164780258998;-0.9972468644845518;-0.1040073416947078;6.19656797234771
53.7333028;86.8432932;13.0;0.0;6.148926156910171;-1.553487219527572;-0.0265116753339451;-0.9839910268175792;-0.1060467013357805;6.342185608549991
53.7333061;86.8429637;13.0;0.0;4.950232819064626;-1.5520554400817677;-0.0275313551544814;-1.0003059039461608;-0.0866727847455898;5.187912781413019
53.7332984;86.8427256;15.0;0.0;4.426991762802488;-1.4385973977207178;-0.0387478331803813;-0.9870500662791885;-0.0764759865402263;4.655031679293502
53.7332871;86.8424327;17.0;0.0;5.127069128502895;-1.3798181401910852;-0.0438462322830631;-1.0105027021515245;-0.0907515040277353;5.309675926130826
53.7332737;86.8420865;19.0;0.0;4.750420085443665;-1.256806002341861;-0.0392576730906495;-1.0054043030488429;-0.0836137452839808;4.914020093630633
53.7332612;86.8412804;21.0;0.0;4.647688742109505;-0.981545509980376;-0.0382379932701131;-1.00897318242072;-0.0820842255531762;4.750358341833107
53.7333048;86.8408632;20.0;0.0;4.00129175533798;-0.9141367457982894;-0.0295707147955541;-1.0054043030488429;-0.0703579076170082;4.104492188874027
53.7333326;86.840507;19.0;0.0;5.108906227954625;-0.6979808741120694;-0.0244723156928724;-1.00336494340777;-0.0897318242071989;5.156423085908989
53.7335073;86.8398625;19.0;0.0;4.391720125422364;-0.7010899095665863;0.011726317936168;-1.0023452635872336;-0.0769858264504945;4.44734417690696
53.7336094;86.8395294;19.0;0.0;3.304017853010309;-0.6050630306608072;0.0081574385642908;-0.9890894259202612;-0.0571020699500356;3.3589733234854995
53.733693;86.8394082;19.0;0.0;3.9108288473101305;-0.7804868294329061;0.0112164780258998;-0.9992862241256244;-0.0683185479759355;3.98796536760923
53.7338407;86.8391463;19.0;0.0;5.079596543386044;-0.7534206806349544;0.0020393596410727;-0.9635974304068522;-0.0856531049250535;5.135167760119978
53.7339763;86.8389235;18.0;0.0;5.525629923015294;-0.5374311243853822;0.0040787192821454;-1.0013255837666972;-0.0968695829509534;5.551705584370548
53.7340847;86.8386735;15.0;0.0;4.359970429436251;-0.4524615647926019;-0.037728153359845;-1.0023452635872336;-0.0764759865402263;4.383547310880656
53.7341782;86.838383;18.0;0.0;4.954389233560614;-0.6082356668615723;0.0040787192821454;-0.9880697460997246;-0.0856531049250535;4.991586916003252
53.7342133;86.8379829;21.0;0.0;4.016023125142057;-0.6994116887688057;-0.0183542367696543;-1.023758539818497;-0.0718874273478127;4.076512643187753
53.734219;86.8375534;25.0;0.0;3.622934875711653;-1.0551154460884749;-0.0010196798205363;-1.01458142143367;-0.0642398286937901;3.773450245858454
53.734235;86.8371086;26.0;0.0;3.525881269912768;-1.3877010197874302;0.0020393596410727;-1.009483022330988;-0.0622004690527174;3.7891367102320936
53.734222;86.8366604;25.0;0.0;3.0237201654312584;-1.718807750421386;-0.0703579076170082;-1.0013255837666972;-0.0530233506678902;3.4788121474015385
53.7342816;86.8362336;25.0;0.0;1.9217504284614564;-2.0508409436242294;-0.0254919955134087;-1.0329356582033242;-0.0346691138982359;2.8106446106138296
53.7343954;86.8358354;25.0;0.0;2.9698950488614213;-2.289927520867216;-0.078515346181299;-0.9992862241256244;-0.0520036708473539;3.751027767380912
53.7346252;86.8354508;27.0;0.0;1.2675395411487966;-2.390578256992514;-0.0244723156928724;-1.0135617416131335;-0.0224329560517997;2.7059415709538963
53.7349142;86.8349718;31.0;0.0;2.4561854117027284;-2.626697809171538;-0.0672988681553992;-1.06760477210156;-0.0458855919241358;3.5967926399811896
53.7351394;86.8345826;34.0;0.0;0.7161583914707874;-2.997047224738632;-0.0020393596410727;-0.9788926277148976;-0.0122361578464362;3.081424843797964
53.7353895;86.8341159;34.0;0.0;1.3049339023496684;-3.209714920736653;-0.0397675130009177;-0.9839910268175792;-0.0224329560517997;3.46506909267208
53.7356342;86.8337206;34.0;30.0;0.7493659575995496;-3.219770752399004;-0.1193025390027531;-1.006423982869379;-0.0132558376669725;3.3079761384002824
53.7359627;86.8334603;35.0;30.0;2.1964644452593616;-3.319946165309783;-0.0968695829509534;-0.9788926277148976;-0.037728153359845;3.981944539536524
53.736272;86.8333344;34.0;30.0;2.065751030964564;-3.771013636274821;-0.0520036708473539;-0.9880697460997246;-0.0356887937187723;4.300066923744723
53.7370124;86.8330252;38.0;0.0;1.204588406943916;-3.812873618516545;-0.0876924645661262;-1.01458142143367;-0.0214132762312633;3.9995910327513253
53.7373995;86.8329771;39.0;0.0;0.5832657524936032;-3.9648078628518615;-0.0244723156928724;-1.0013255837666972;-0.0101967982053635;4.007555267441641
53.7378227;86.8329907;39.0;0.0;0.5841915383928645;-4.0189077993152775;-0.0387478331803813;-0.9992862241256244;-0.0101967982053635;4.0613299604320705
53.7382297;86.8329881;39.0;0.0;1.827046799850848;-3.919791495540112;-0.040787192821454;-0.9901091057407974;-0.0316100744366268;4.32487328975683
53.7386489;86.8329721;40.0;0.0;0.9797482294380544;-4.0594806821818095;-0.0469052717446721;-1.012542061792597;-0.0173345569491179;4.176301007663568
53.7392855;86.8330455;40.0;0.0;-1.527577643238323;-3.8730093935438057;-0.0774956663607627;-0.9911287855613338;0.0265116753339451;4.164096636355214
53.739692;86.8332472;40.0;0.0;2.689806318631807;-3.792900313142227;-0.1432650147853574;-1.0099928622412562;-0.0479249515652085;4.6520614443112684
53.740068;86.8335464;39.0;0.0;2.256118185682872;-3.5430307520914197;-0.0774956663607627;-1.006423982869379;-0.0397675130009177;4.201088163361864
53.7403988;86.8339028;39.0;0.0;2.9148430293292438;-3.4221567554304797;-0.023452635872336;-1.041093096767615;-0.0530233506678902;4.49533277639121
53.7407096;86.8343416;41.0;0.0;0.9129535162100848;-3.0950741931021684;-0.0469052717446721;-1.0227388599979603;-0.0163148771285816;3.2272540166656913
53.7410974;86.835011;42.0;0.0;1.6603775117268147;-2.447163251353796;-0.1091057407973896;-0.9788926277148976;-0.0285510349750178;2.9592846302610973
53.7413115;86.8356347;38.0;30.0;0.5375076093390169;-2.4940108165691983;-0.0810645457326399;-1.029366778831447;-0.0096869582950953;2.5525626033138433
53.741523;86.8363326;33.0;0.0;0.6766693657627154;-2.364335317136851;0.0081574385642908;-1.0359946976649332;-0.0122361578464362;2.459274174675581
53.7422991;86.8371599;34.0;0.0;0.285759309120342;-2.0249631720270385;-0.0560823901294993;-1.020699500356888;-0.0050983991026817;2.045795558040289
53.7431939;86.8374147;36.0;0.0;0.2328602965057012;-2.045187766261708;-0.020393596410727;-1.00336494340777;-0.0040787192821454;2.058502566364648
53.7435625;86.8375017;35.0;30.0;-1.002496786938306;-1.6020196286659822;-0.0025491995513409;-0.9906189456510656;0.0173345569491179;1.8898341717915548
53.7441362;86.8376146;36.0;0.0;-0.2362573620893949;-1.312583218683432;-0.0101967982053635;-0.9890894259202612;0.0040787192821454;1.3337151951614103
53.7445155;86.8377379;37.0;0.0;-2.371017093386389;-1.0280309269823975;0.020393596410727;-1.009483022330988;0.0418068726419904;2.5843733365629067
53.7449065;86.8378217;36.0;0.0;-0.812557775610065;-0.7662558305205626;-0.0152951973080452;-1.006423982869379;0.0142755174875089;1.1169745205562327
53.7452696;86.8379288;36.0;0.0;-0.472862082430255;-0.6187703977388652;-0.0254919955134087;-0.9880697460997246;0.0081574385642908;0.77918238940151
53.7456281;86.8379289;37.0;0.0;-2.968753462680821;-0.646325323233823;-0.0152951973080452;-0.9829713469970428;0.0509839910268175;3.0383330114872797
53.7461061;86.8379205;37.0;0.0;1.013449074183303;-0.666880267224383;0.0020393596410727;-0.979912307535434;-0.0173345569491179;1.2131827874496095
53.7464895;86.8379711;35.0;0.0;-1.9604022173716948;-0.6555321270407384;0.0254919955134087;-1.012542061792597;0.0346691138982359;2.0672564101469533
53.7469347;86.8380323;36.0;0.0;0.6300930266987926;-0.5641007291891489;-0.1040073416947078;-1.01458142143367;-0.0112164780258998;0.85208237987449
53.7473101;86.8381517;37.0;0.0;-1.5254201860847545;-0.7101729472446673;0.0265116753339451;-0.9952075048434792;0.0265116753339451;1.6828414150008422
53.7476725;86.8383349;38.0;0.0;-2.116575038916082;-0.8946039820056074;-0.0168247170388498;-1.020699500356888;0.037728153359845;2.2979315157520124
53.748051;86.838611;38.0;0.0;-2.118754979975096;-0.706514508857293;-0.0479249515652085;-1.0186601407158151;0.037728153359845;2.2339611047145964
53.748372;86.8389832;38.0;0.0;1.2403151883115693;-0.701924116269473;0.0295707147955541;-0.9885795860099929;-0.0214132762312633;1.4254661197413863
53.7486745;86.8394137;37.0;0.0;-0.888425426835478;-0.6916402932638088;-0.0509839910268175;-0.9850107066381156;0.0152951973080452;1.127060513750203
53.7489709;86.8398125;36.0;0.0;-2.051373555253375;-0.5743579722874028;-0.0173345569491179;-0.9962271846640156;0.0356887937187723;2.130333549092158
53.749563;86.8405326;34.0;0.0;-1.6037056977769166;-0.682790903513738;-0.0142755174875089;-1.0196798205363515;0.0285510349750178;1.7430660266905524
53.7498539;86.8408491;33.0;0.0;-0.8845489207894551;-0.7241241049909032;-0.0081574385642908;-0.9906189456510656;0.0152951973080452;1.1431749894493828
53.7501377;86.8411585;34.0;0.0;0.5949346494692919;-1.0185356470919489;-0.0071377587437544;-0.9819516671765066;-0.0101967982053635;1.179581726348814
53.7505414;86.8414854;35.0;0.0;-2.0248094623846846;-1.2381717629193725;-0.0448659121035994;-1.0084633425104517;0.0356887937187723;2.373801934349686
53.7508664;86.8417848;36.0;0.0;-1.908933492288773;-1.6686741800888163;-0.0152951973080452;-1.009483022330988;0.0336494340776996;2.535494930055587
53.7511766;86.8421462;36.0;0.0;-1.7817754484680417;-1.8973440594583388;0.0305903946160905;-0.9992862241256244;0.0311002345263587;2.602993277165369
53.7515234;86.8424674;38.0;0.0;-1.7640868905633171;-1.6841396913804814;-0.0112164780258998;-0.9931681452024064;0.0305903946160905;2.438945441562767
53.7519743;86.8427903;38.0;0.0;-1.1318621112385288;-1.802139554723482;-0.0244723156928724;-1.0319159783827878;0.020393596410727;2.1282428686105495
53.7524127;86.8431263;37.0;0.0;-2.162109062857904;-1.9201198882827848;-0.0081574385642908;-0.9992862241256246;0.037728153359845;2.8916504852549707
53.7527755;86.8434123;38.0;0.0;-2.6232673228817625;-2.1833939165450427;-0.0504741511165493;-0.989089425920261;0.0453757520138676;3.413398318690054
53.7532295;86.8438151;38.0;0.0;-2.7771417819114386;-2.395178177488003;-0.0764759865402263;-0.9850107066381156;0.0479249515652085;3.6681389770931925
53.753616;86.8442784;38.0;0.0;-1.6817840211956128;-2.5049430883169905;-0.0744366268991536;-1.0043846232283062;0.0295707147955541;3.018058677540924
53.7539834;86.844825;37.0;0.0;0.6948297060507708;-2.7178289444720827;-0.1152238197206077;-1.0023452635872336;-0.0122361578464362;2.8076073479836605
53.7543227;86.8453947;35.0;30.0;1.841009613154469;-2.618877386935609;-0.07545630671969;-1.044152136229224;-0.0336494340776996;3.2021131800349636
53.7546111;86.8458111;32.0;0.0;2.378035923169846;-2.746112753144624;-0.0683185479759355;-1.0043846232283062;-0.0418068726419904;3.6332984365266983
53.7548956;86.8461212;33.0;0.0;1.4332700241600007;-2.7888047420568145;-0.0193739165901906;-1.0186601407158151;-0.0254919955134087;3.1356132095840885
53.7551947;86.8464971;37.0;0.0;-0.115647799264873;-3.006647395353934;-0.0530233506678902;-1.00897318242072;0.0020393596410727;3.0093378755432987
53.7556082;86.847013;40.0;0.0;1.112335302211645;-3.26282700348924;0.0336494340776996;-0.9972468644845518;-0.0193739165901906;3.4473848296438554
53.756271;86.847855;39.0;30.0;-0.6011183801526946;-3.3224559132621985;0.0152951973080452;-0.971754868971143;0.0101967982053635;3.3764316290410856
53.7566628;86.848426;38.0;0.0;3.109494924649198;-3.219582534727044;-0.0856531049250535;-0.9911287855613338;-0.0540430304884266;4.4768299988632405
53.7569423;86.8488591;35.0;0.0;3.2710435195767094;-3.174594099004157;-0.1386764555929438;-0.9534006322014889;-0.0550627103089629;4.5603732917089825
53.7571962;86.8492666;31.0;0.0;2.9442284607858333;-3.125716228395915;-0.037728153359845;-0.9707351891506067;-0.0499643112062812;4.294182877255561
53.7575184;86.8498192;30.0;0.0;3.897006014718943;-2.920830745447651;-0.0193739165901906;-0.9727745487916796;-0.0662791883348628;4.870142038067468
53.7577844;86.8503412;31.0;0.0;2.84696384015392;-3.049239747952464;-0.0678087080656673;-0.99214846538187;-0.049454471296013;4.172249293669626
53.7580358;86.850695;33.0;0.0;2.045188403281937;-3.375405399052112;-0.0152951973080452;-1.0421127765881513;-0.0372183134495768;3.946693699279152
53.7582702;86.8511342;35.0;0.0;3.427690687576834;-3.306986076381984;-0.0550627103089629;-1.0370143774854697;-0.0622004690527174;4.763218687101383
53.7584722;86.851669;35.0;30.0;2.4467903830279263;-3.605071788942846;-0.1345977363107984;-0.9931681452024064;-0.0428265524625267;4.359064387288803
53.7585606;86.8522438;33.0;0.0;3.6265312765583206;-3.770506039584727;-0.0764759865402263;-1.026817579280106;-0.0652595085143265;5.232044865147653
53.7585073;86.8529329;29.0;0.0;3.209153773347372;-4.144971089620522;-0.0994187825022942;-1.0135617416131335;-0.0571020699500356;5.243027500318289
53.7583812;86.8533188;22.0;0.0;4.602157550200218;-4.206447820113003;-0.0336494340776996;-0.974813908432752;-0.078515346181299;6.234997166367605
53.7582489;86.8536217;19.0;0.0;5.109533163453165;-4.410304641888941;-0.0489446313857448;-1.0023452635872336;-0.0897318242071989;6.749852721329283
53.7581434;86.8539002;18.0;0.0;5.6754742654473205;-4.267973387083945;-0.078515346181299;-0.99214846538187;-0.0989089425920261;7.101603314055043
53.7580582;86.8541478;16.0;0.0;5.652574798303123;-4.03116907584712;-0.0693382277964718;-0.9839910268175792;-0.0976343428163556;6.943106924015478
53.7579664;86.85444;14.0;0.0;6.360264908896561;-4.187472114537373;-0.0764759865402263;-0.9850107066381156;-0.1101254206179259;7.615362171156824
53.7578973;86.8546781;15.0;0.0;5.555096574388578;-4.4196998032608175;-0.0836137452839808;-0.9819516671765066;-0.095849903130417;7.099284158288625
53.757828;86.854916;17.0;0.0;3.584609467479227;-4.52971900675069;-0.1172631793616804;-1.0023452635872336;-0.0632201488732537;5.777675135181466
53.7577382;86.8552358;19.0;0.0;4.41915425270625;-4.678371396394099;-0.0520036708473539;-1.0278372591006424;-0.0795350260018354;6.435742972927975
53.7576331;86.8554891;19.0;0.0;3.6876713824135057;-4.531784939931374;-0.0020393596410727;-1.012542061792597;-0.0652595085143265;5.842602085154189
53.7575408;86.8558064;19.0;30.0;6.124483531779449;-4.203950237499465;-0.1254206179259712;-0.9707351891506067;-0.1050270215152442;7.429550892335984
53.7573556;86.8560564;21.0;0.0;3.017723945382408;-4.549985309850365;-0.0836137452839808;-1.0217191801774244;-0.0540430304884266;5.460404324662131
53.757179;86.856187;18.0;0.0;6.230019409061115;-4.348219673855757;-0.095849903130417;-0.9197511981237892;-0.1009483022330988;7.597982848974759
53.7569974;86.8562614;18.0;30.0;2.188214533438516;-3.792861835364831;-0.0428265524625267;-1.0665850922810238;-0.040787192821454;4.3790316121392
53.756824;86.8562416;18.0;30.0;5.8846527547574095;-3.5988962577684287;-0.0805547058223717;-0.986030386458652;-0.1019679820536351;6.898382519031813
53.7566141;86.8562621;19.0;30.0;3.2692708869350198;-3.114095986603742;-0.0596512695013765;-0.9442235138166616;-0.0540430304884266;4.515449503636991
53.7564081;86.8563633;20.0;30.0;2.890427335403769;-2.654378863821538;-0.0601611094116447;-0.9472825532782706;-0.0479249515652085;3.9247823752454725
53.7561977;86.8564089;20.0;30.0;2.1875993898302357;-2.8143107834791152;-0.0825940654634444;-1.064545732639951;-0.040787192821454;3.565495485348738
53.755984;86.8564256;20.0;30.0;1.907687193738537;-2.5007222885515654;-0.040787192821454;-1.0400734169470789;-0.0346691138982359;3.145559725821598
53.7557759;86.8564479;21.0;0.0;2.031238223977387;-2.521127512843603;-0.0887121443866625;-1.0023452635872336;-0.0356887937187723;3.2388088092886034
53.7555408;86.8564432;22.0;0.0;2.0747604543394464;-2.7198086037794766;-0.0265116753339451;-1.041093096767615;-0.037728153359845;3.420919854806994
53.7553284;86.8565124;19.0;0.0;0.6004937557246949;-2.677706892574121;0.0469052717446721;-0.971754868971143;-0.0101967982053635;2.7446141910514026
53.7551523;86.8566947;17.0;60.0;-2.0907150346902394;-2.532602928466063;-0.0571020699500356;-0.9059855205465484;0.0331395941674314;3.284574187919534
53.7550339;86.8568579;13.0;60.0;0.5259089945385179;-2.211080871421452;-0.0550627103089629;-0.9982665443050882;-0.0091771183848271;2.273431501622367
53.7549564;86.8570364;12.0;60.0;-0.0892077977807936;-2.307910216776496;0.1692668502090343;-0.9676761496889976;0.0015295197308045;2.3158279008738796
53.7549094;86.8571942;11.0;60.0;0.0563306355275813;-2.395163311302542;-0.0489446313857448;-1.0359946976649332;-0.0010196798205363;2.3963255215538197
53.7548852;86.8576052;12.0;60.0;-0.0584132333083266;-2.4570499042442258;-0.1264402977465075;-0.99214846538187;0.0010196798205363;2.4609944101249637
53.7548712;86.8578472;11.0;60.0;-3.120725894118129;-2.4777797448462326;-0.0622004690527174;-0.979912307535434;0.0535331905781584;3.985246726181459
53.7547773;86.8579837;11.0;0.0;0.113734000986331;-2.441562582353232;-0.1075762210665851;-1.0217191801774244;-0.0020393596410727;2.4465763650184127
53.7546549;86.8579381;9.0;0.0;-0.3737260764348266;-2.332608166009906;-0.1284796573875803;-1.0079535026001836;0.0066279188334862;2.3658484859994515
53.7545943;86.8578007;4.0;0.0;0.5289772630786792;-2.135126245060931;0.0402773529111858;-0.9931681452024064;-0.0091771183848271;2.2000462023238816
53.7546026;86.8577322;3.0;0.0;-0.6344456886599323;-1.8333265687509852;-0.0966146629958192;-1.0314061384725195;0.0114713979810339;1.9424062480987938
53.754672;86.857776;5.0;30.0;2.369108809014369;-1.4114188863247508;0.0010196798205363;-1.0105027021515245;-0.0418068726419904;2.7576767144410925
53.7547143;86.8578695;5.0;30.0;2.622218700711143;-0.8536129470269067;0.0723972672580809;-0.9992862241256244;-0.0458855919241358;2.75860967554267
53.7547115;86.8579947;3.0;30.0;1.2921314882166448;-0.1441185001021256;-0.0270215152442133;-0.9941878250229428;-0.0224329560517997;1.300424579588813
53.7546885;86.8580485;2.0;30.0;3.3698855504492493;0.7328547052049084;0.0050983991026817;-0.9870500662791885;-0.058121749770572;3.448656352224881
53.7546705;86.8581073;3.0;30.0;7.74836507579975;1.7930969196495283;0.0249821556031406;-0.9289283165086164;-0.1264402977465075;7.953174336026368
53.7281909;86.8530805;6.0;0.0;2.970435780621235;-1.0691091132649064;-0.0285510349750178;-1.041093096767615;-0.0540430304884266;3.157102814996544
53.7281264;86.8530928;5.0;0.0;1.5400476188366083;-0.5176176296134899;-0.023452635872336;-1.023758539818497;-0.0275313551544814;1.6248768276088978
53.7279899;86.8531099;9.0;60.0;-0.0576374098541153;-0.097542852086465;-0.0122361578464362;-1.0135617416131335;0.0010196798205363;0.11395789821989592
53.7279093;86.8531829;7.0;60.0;3.30381992120831;0.2015758573993413;0.0469052717446721;-0.9880697460997246;-0.0571020699500356;3.310295908612492
53.7278301;86.8533085;9.0;60.0;0.3651052186937271;0.3901991369271025;0.0112164780258998;-0.9600285510349752;-0.0061180789232181;0.5344932146953368
53.727762;86.8534196;8.0;60.0;-1.2595274792112294;0.4787876245799922;0.0163148771285816;-0.9737942286122158;0.0214132762312633;1.3475582494107132
53.7277195;86.8535819;7.0;60.0;-2.628797183047586;0.4778019584411836;-0.0254919955134087;-0.9768532680738248;0.0448659121035994;2.671987871028686
53.727737;86.853753;10.0;60.0;-2.5033233779963093;0.3977027765938503;0.0856531049250535;-0.9758335882532884;0.0428265524625267;2.536164799005895
53.7277425;86.8539377;10.0;60.0;-3.5225180671708665;0.2489507171211653;0.0305903946160905;-1.0431324564086877;0.0642398286937901;3.5314367848431165
53.7276824;86.8542872;10.0;60.0;-1.992032382465136;0.0420064181063026;-0.0846334251045171;-0.9931681452024064;0.0346691138982359;1.9942718893362483
53.7276434;86.8543762;9.0;60.0;0.5737007407572291;-0.2126694823675643;-0.0744366268991536;-1.015601101254206;-0.0101967982053635;0.6163616309440465
53.7275677;86.8545053;11.0;60.0;-2.4097459115416817;-0.504616346217263;-0.0081574385642908;-1.017640460895279;0.0428265524625267;2.4620275300787036
53.7274554;86.8545466;11.0;60.0;1.3503831042387409;-0.8233735353596203;-0.0229427959620679;-0.951361272560416;-0.0224329560517997;1.5817727013798837
53.7273604;86.854426;9.0;60.0;2.4654474069031664;-1.158480411711473;0.0214132762312633;-0.9707351891506067;-0.0418068726419904;2.7241450601837798
53.7272767;86.8542911;13.0;60.0;0.732995412518304;-1.475038696774698;-0.0152951973080452;-1.0359946976649332;-0.0132558376669725;1.6471962162463736
53.7271871;86.8540991;11.0;60.0;0.2312574735845202;-1.884060258676799;0.0071377587437544;-1.0105027021515245;-0.0040787192821454;1.8982133771032872
53.7270962;86.853957;13.0;60.0;1.5124338687240255;-2.162551941708171;-0.0387478331803813;-1.00336494340777;-0.0265116753339451;2.63924013731708
53.7269742;86.8538094;15.0;60.0;-2.1579572585738727;-2.3184951954922464;-0.0275313551544814;-0.9737942286122158;0.0367084735393086;3.1674844083071565
53.726802;86.853586;19.0;0.0;-2.280218527763718;-2.4718923121957523;-0.0571020699500356;-1.0227388599979603;0.040787192821454;3.3634667805468186
53.7267087;86.8533391;19.0;0.0;-2.890924749472741;-2.53069157840192;-0.0683185479759355;-0.9870500662791885;0.0499643112062812;3.8427221075828486
53.7266249;86.8529993;18.0;0.0;-1.0963646644759166;-2.685104865629971;-0.061180789232181;-1.0105027021515245;0.0193739165901906;2.900956170974013
53.7266313;86.8525449;18.0;0.0;-0.1716472004382596;-2.432812711253664;-0.1152238197206077;-1.01458142143367;0.003059039461609;2.4415808358698063
53.7267684;86.8523492;18.0;0.0;0.411541611699934;-2.185814541288279;-0.0458855919241358;-0.9926583052921384;-0.0071377587437544;2.2246926067693256
53.7269383;86.8521607;20.0;0.0;2.060083847318982;-2.476791444448424;-0.0050983991026817;-0.99214846538187;-0.0356887937187723;3.221562867763238
53.7271137;86.8520033;21.0;0.0;1.0401306587063368;-3.0329280547325976;-0.0295707147955541;-1.0105027021515245;-0.0183542367696543;3.206462037751025
53.7273107;86.8517651;23.0;0.0;0.3713787572794349;-3.070363817490548;-0.061180789232181;-1.020699500356888;-0.0066279188334862;3.0933475786087508
53.7275112;86.8515816;25.0;0.0;2.337539881562972;-3.151344111798599;-0.0540430304884266;-1.0227388599979603;-0.0418068726419904;3.9240263834497227
53.7277416;86.8513768;25.0;0.0;0.8467322521098988;-3.216736349907715;-0.0499643112062812;-0.9646171102273886;-0.0142755174875089;3.3266867426878393
53.7279782;86.851127;26.0;0.0;0.3739622787633253;-3.0783382720332924;-0.0224329560517997;-0.9370857550729071;-0.0061180789232181;3.1010510380385545
53.7282002;86.8508882;27.0;0.0;2.7995233527783334;-2.999649349323502;-0.0571020699500356;-0.9992862241256244;-0.0489446313857448;4.103472659594643
53.7284334;86.8506606;27.0;30.0;1.4381794114675788;-2.919827760347004;-0.0224329560517997;-0.893239522789844;-0.0224329560517997;3.254882088060865
53.7286694;86.8504102;26.0;0.0;2.5794482188497625;-2.8920000630361926;-0.0428265524625267;-1.017640460895279;-0.0458855919241358;3.8754421156720142
53.7289004;86.8501804;25.0;0.0;3.011046729823337;-3.0308840715589613;-0.0560823901294993;-0.9870500662791885;-0.0520036708473539;4.272681347689327
53.7291692;86.8499884;22.0;0.0;1.760640478402279;-3.2626733713390483;-0.0723972672580809;-1.0257978994595698;-0.0316100744366268;3.7081172832773177
53.7294619;86.8497947;25.0;0.0;1.0749109307787934;-3.339930761292683;-0.0744366268991536;-1.0298766187417152;-0.0193739165901906;3.5094318358903878
53.7296891;86.8497403;24.0;0.0;1.728542283777934;-3.4302316073967334;-0.1121647802589986;-1.0074436626899157;-0.0305903946160905;3.8427761117611787
53.7299092;86.849602;22.0;30.0;2.341532617172412;-3.3132470490075088;-0.0672988681553992;-0.9952075048434792;-0.040787192821454;4.057697640620139
53.7301305;86.8494649;22.0;0.0;1.4126092342372922;-2.957223313300881;0.0224329560517997;-0.99214846538187;-0.0244723156928724;3.277367512333631
53.7303763;86.8493523;25.0;0.0;4.072800789746803;-2.565885747982205;-0.0642398286937901;-0.986030386458652;-0.0703579076170082;4.814104558508362
53.7306306;86.849325;26.0;0.0;3.4903185547132347;-2.210071342048624;-0.0662791883348628;-1.017640460895279;-0.0622004690527174;4.131722628774398
53.7309056;86.849344;22.0;0.0;2.847886044301714;-1.823460953372753;-0.003059039461609;-1.0043846232283062;-0.0499643112062812;3.3816377877481147
53.7311234;86.8493314;17.0;0.0;4.145150886382783;-1.5252982879940955;-0.0846334251045171;-1.009483022330988;-0.0734169470786173;4.417688711858568
53.7313053;86.8493341;13.0;0.0;4.622596299504297;-1.2374239453065623;-0.0295707147955541;-1.0084633425104517;-0.0815743856429081;4.785445537855634
53.7314335;86.8493087;12.0;0.0;7.476735138586021;-1.1050998741742355;-0.0606709493219129;-0.9926583052921384;-0.1305190170286529;7.558207130567305
53.7315719;86.8493191;12.0;0.0;6.53107030107924;-0.7286158497457558;-0.0244723156928724;-0.9972468644845518;-0.1142041399000713;6.571632919478643
53.7316966;86.8493414;12.0;0.0;6.803205038515831;-0.4617397815596157;0.0214132762312633;-0.9997960640358928;-0.1193025390027531;6.818890008671563
53.7318356;86.8493524;14.0;30.0;4.813423494445041;-0.1448454972714776;0.0632201488732537;-0.9666564698684612;-0.0815743856429081;4.816017311241612
53.7319962;86.8493082;16.0;0.0;5.070364121154663;0.1453817324869225;0.0560823901294993;-0.9982665443050882;-0.0887121443866625;5.07275796817826
53.7321629;86.8492957;17.0;0.0;5.188303553455834;0.3042764624488128;0.0173345569491179;-0.9880697460997246;-0.0897318242071989;5.197247195897789
53.7325037;86.8491501;17.0;0.0;5.129760249854866;0.2429858520310039;0.023452635872336;-0.9992862241256244;-0.0897318242071989;5.135565438333704
53.7326322;86.8490226;15.0;0.0;5.498187086465072;0.1807298327896019;0.0101967982053635;-0.9957173447537472;-0.095849903130417;5.501166102284595
53.7327649;86.8488737;13.0;0.0;6.930223001428315;0.5439856084265643;-0.0081574385642908;-0.9982665443050882;-0.1213418986438258;6.951544989101721
53.732853;86.8487314;11.0;0.0;7.669222351887177;0.5483092325855816;-0.0285510349750178;-0.9839910268175792;-0.1325583766697257;7.688850997309196
53.7329175;86.8485911;11.0;0.0;7.277826892876518;0.4047600030136501;-0.0438462322830631;-0.9890894259202612;-0.1264402977465075;7.289205542087677
53.732981;86.8484242;11.0;0.0;6.182183457736115;0.5200719175012142;-0.0265116753339451;-0.9880697460997246;-0.1070663811563169;6.204076883260592
53.7330339;86.8482211;12.0;0.0;6.255474195175409;0.2697362277507134;0.0071377587437544;-0.986030386458652;-0.1080860609768532;6.261291079854577
53.7330702;86.8479758;14.0;0.0;6.020659597979377;0.1476949170944815;0.0346691138982359;-0.9952075048434792;-0.1050270215152442;6.022570691219426
53.7330968;86.8477208;14.0;0.0;6.49637812920682;-0.2053021996945458;-0.0010196798205363;-0.9850107066381156;-0.1121647802589986;6.499621437482576
53.7331274;86.8474186;13.0;0.0;6.16522395432126;-0.5306918746680919;0.0244723156928724;-1.0003059039461608;-0.1080860609768532;6.188070714448146
53.7331554;86.8470882;12.0;0.0;7.276095012386727;-0.7401313057314108;-0.0061180789232181;-0.9982665443050882;-0.1274599775670439;7.313644126554996
53.733173;86.8468498;12.0;0.0;6.849516877003299;-0.7546939797913199;-0.0275313551544814;-0.9758335882532884;-0.1172631793616804;6.891023322192643
53.7331979;86.8466443;14.0;0.0;5.832571465321397;-0.6820315021244034;-0.0101967982053634;-0.9931681452024064;-0.1014581421433669;5.872321588832231
53.73323;86.846446;15.0;0.0;6.088372422095516;-0.6539626868698198;-0.0071377587437544;-0.9941878250229428;-0.1060467013357805;6.123397495961789
53.7332608;86.8461696;16.0;0.0;4.787500033828549;-0.6419695322918371;0.0122361578464362;-0.9982665443050882;-0.0836137452839808;4.830365532530453
53.7332767;86.8458015;17.0;0.0;4.622232464170115;-0.7064027473320027;-0.037728153359845;-1.01458142143367;-0.0820842255531763;4.6760518824989825
53.73328;86.8454976;19.0;0.0;4.086364803337974;-0.7518051760042278;-0.0254919955134087;-0.991638625471602;-0.0708677475272764;4.155025652202571
53.7332879;86.8451471;18.0;0.0;4.268742845240408;-0.8733157477384349;-0.003059039461609;-0.9972468644845518;-0.0744366268991536;4.3571613731604595
53.7332717;86.8448493;18.0;0.0;4.838679101013897;-1.2183213314680763;-0.0367084735393086;-0.9870500662791885;-0.0836137452839808;4.989836652770147
53.7332695;86.8445399;17.0;0.0;5.446726822066662;-1.5235086206315231;-0.0265116753339451;-0.9941878250229428;-0.0948302233098807;5.655847810919949
53.7332854;86.844223;16.0;0.0;5.020965346869967;-1.742597782550972;-0.0418068726419904;-0.9972468644845518;-0.0876924645661262;5.314930654375531
53.7333211;86.8440027;15.0;0.0;5.807631543815167;-1.7842009695322625;-0.0265116753339451;-0.99214846538187;-0.1009483022330988;6.075578994410805
53.7333171;86.8437171;14.0;0.0;5.669201141659594;-1.8665213875339053;-0.020393596410727;-1.006423982869379;-0.0999286224125624;5.968597789555811
53.7332881;86.8434833;13.0;0.0;5.887192689860029;-1.854486456016104;-0.0142755174875089;-0.9788926277148976;-0.1009483022330988;6.172387023955001
53.7332884;86.8431764;14.0;0.0;5.33521330314519;-1.945362064556641;-0.0173345569491179;-1.0043846232283062;-0.0938105434893443;5.678840994352467
53.7332853;86.8429429;15.0;0.0;5.892305365142152;-2.0377604405788228;-0.0336494340776996;-0.9676761496889976;-0.0999286224125624;6.234810535508255
53.7332796;86.8426556;16.0;0.0;4.405952460996279;-1.978777099740548;-0.0530233506678902;-0.9911287855613338;-0.0764759865402263;4.830195376455577
53.7332867;86.8423555;18.0;0.0;5.099757137270257;-1.8756614134480367;-0.0418068726419904;-0.9931681452024064;-0.0887121443866625;5.4339098641435815
53.7332794;86.8420154;20.0;0.0;3.890033521845171;-1.6111596439234035;-0.0254919955134087;-1.0043846232283062;-0.0683185479759355;4.210563625112651
53.7332884;86.841666;21.0;0.0;3.079265907988323;-1.5119421322559106;-0.0499643112062812;-1.00336494340777;-0.0540430304884266;3.4307934906933735
53.7332897;86.8412577;21.0;0.0;4.13570806009318;-1.3042980813238827;-0.0601611094116447;-1.0135617416131335;-0.0734169470786173;4.336922180804089
53.7333228;86.8409068;21.0;0.0;4.398048292038663;-1.117505475558147;-0.0173345569491179;-1.0008157438564291;-0.0769858264504945;4.537835139565039
53.7333668;86.8405156;20.0;0.0;4.63322053051446;-1.0276139611997657;-0.0173345569491179;-1.006423982869379;-0.0815743856429081;4.745842751766854
53.7334441;86.8402089;20.0;0.0;4.524747055129372;-1.0081554130021235;-0.003059039461609;-0.99214846538187;-0.078515346181299;4.635700875530024
53.7336513;86.8395969;20.0;0.0;4.619639561864855;-1.1182505597169454;-0.0112164780258998;-1.009483022330988;-0.0815743856429081;4.753070565985054
53.7337697;86.8393057;20.0;0.0;4.181414532010436;-0.8797810110954938;-0.0173345569491179;-0.9901091057407974;-0.0723972672580809;4.2730015917217825
53.7339136;86.83904;19.0;0.0;4.792317347059904;-1.0258695597360854;-0.0050983991026817;-1.009483022330988;-0.0846334251045171;4.900891745610976
53.7340679;86.8388103;18.0;0.0;4.5146717229155975;-0.6298386268190541;0.0193739165901906;-0.9941878250229428;-0.078515346181299;4.558435346713941
53.7342223;86.8382991;18.0;0.0;3.594043602933773;-0.512790586829375;0.0142755174875089;-1.006423982869379;-0.0632201488732537;3.6304693079723904
53.7342334;86.8379518;22.0;0.0;3.106909390612435;-0.3909801029054854;-0.0050983991026817;-0.9768532680738248;-0.0530233506678902;3.131417793271465
53.7342704;86.8374256;26.0;30.0;2.2650404439896783;-0.4528019213755387;-0.0061180789232181;-1.0054043030488429;-0.0397675130009177;2.3098647630976257
53.7343001;86.8368153;26.0;0.0;3.0241571734527035;-0.6836356423766579;-0.0265116753339451;-0.9839910268175792;-0.0520036708473539;3.1005785218572037
53.7343385;86.8362649;25.0;0.0;3.035646264184729;-0.7938890997680854;-0.023452635872336;-1.0380340573060058;-0.0550627103089629;3.1378269821834732
53.7344283;86.8358171;26.0;0.0;2.15234645103003;-1.0581099061216213;-0.0550627103089629;-1.0023452635872336;-0.037728153359845;2.3990047354602786
53.7345986;86.835501;27.0;0.0;3.2393031054612345;-1.149361405990059;-0.0305903946160905;-1.0084633425104517;-0.0571020699500356;3.437303015864765
53.7350378;86.8347882;33.0;0.0;1.7135931617335345;-1.2782134098765252;-0.0356887937187723;-0.9707351891506067;-0.029060874885286;2.138107746378841
53.7352954;86.8344058;33.0;0.0;0.9661829768736347;-1.4469839019922135;-0.0071377587437544;-1.0278372591006424;-0.0173345569491179;1.739920373185191
53.735535;86.8340054;33.0;0.0;2.4358553916787966;-1.5132347788427358;0.0244723156928724;-0.9584990313041704;-0.040787192821454;2.8677290456570788
53.7357901;86.8336973;34.0;0.0;0.7263030800938404;-1.7287848322639217;-0.0713775874375446;-0.962577750586316;-0.0122361578464362;1.8765148335166444
53.7361045;86.8335509;29.0;30.0;0.6961951311347068;-1.9319391786315343;0.0560823901294993;-1.0054043030488429;-0.0122361578464362;2.054317863678792
53.736395;86.8334062;30.0;0.0;1.91723363534714;-2.2047121951977537;-0.1091057407973896;-0.9992862241256244;-0.0336494340776996;2.9237723472998125
53.7367135;86.8332639;33.0;0.0;1.6144810498085262;-2.405661924818073;-0.0438462322830631;-1.0482308555113695;-0.0295707147955541;2.8975301290574453
53.7370527;86.8331423;35.0;0.0;1.6522922141047516;-2.618960175055728;-0.0734169470786173;-0.9870500662791885;-0.0285510349750178;3.097484787281038
53.7374391;86.8330935;36.0;0.0;0.6657783185488979;-2.725557415463122;-0.0560823901294993;-0.9635974304068522;-0.0112164780258998;2.806255374857828
53.7378113;86.8330817;38.0;0.0;0.2282659995662963;-2.812105428344577;-0.0050983991026817;-1.023758539818497;-0.0040787192821454;2.8213593001169572
53.7382033;86.8330641;38.0;0.0;1.3966937459821482;-2.638963774504908;-0.0265116753339451;-1.00336494340777;-0.0244723156928724;2.985897870347184
53.7385972;86.833074;39.0;0.0;2.534306712768337;-2.665955547484317;-0.0050983991026817;-0.9906189456510656;-0.0438462322830631;3.6783223742921813
53.7390007;86.8330679;38.0;0.0;-3.2508427345024398;-2.687276650555882;-0.0897318242071989;-1.0013255837666972;0.0571020699500356;4.218706683495037
53.7393599;86.8331455;33.0;0.0;0.3206474160514598;-2.801688794289855;-0.0601611094116447;-1.0003059039461608;-0.0056082390129499;2.820619475320175
53.7396983;86.8333303;33.0;0.0;0.2924416462263022;-2.8626711511993648;-0.0571020699500356;-0.9972468644845518;-0.0050983991026817;2.878136355829797
53.7400219;86.8335515;34.0;0.0;1.7833800340413848;-2.679148958733183;-0.0866727847455898;-1.011522381972061;-0.0316100744366268;3.219595574061144
53.7403252;86.8338804;37.0;0.0;2.249456340494872;-2.27335880973603;-0.0530233506678902;-0.9850107066381156;-0.0387478331803813;3.198597439709013
53.7406234;86.834281;37.0;0.0;-0.7551117037818136;-2.3358000607031144;-0.0693382277964719;-1.00336494340777;0.0132558376669725;2.45580198684725
53.7408857;86.8347737;38.0;0.0;1.1578391009867854;-1.8989498709808044;-0.0341592739879677;-1.0084633425104517;-0.020393596410727;2.2243580764506614
53.7411267;86.8353219;37.0;0.0;0.5775130153852294;-1.9611933711517615;-0.0127459977567043;-1.011522381972061;-0.0101967982053635;2.0444958259795407
53.7413312;86.8358848;34.0;30.0;1.4013815352018633;-1.7691656169545793;0.0183542367696543;-0.9584990313041704;-0.023452635872336;2.2570232753399786
53.7415067;86.8363931;31.0;30.0;-1.780931863776536;-1.6422824514540206;-0.003059039461609;-1.0166207810747423;0.0316100744366268;2.422564614513062
53.7417114;86.8367514;29.0;0.0;0.1811014737882628;-1.4857355975961726;0.0152951973080452;-0.9676761496889976;-0.003059039461609;1.4968105935065494
53.7420558;86.837019;30.0;0.0;0.1737982405313967;-1.0060939775651734;-0.078515346181299;-1.0054043030488429;-0.003059039461609;1.0240095603512156
53.7423732;86.8371828;32.0;0.0;-1.4425314442644857;-0.653208426830053;-0.0101967982053635;-0.971754868971143;0.0244723156928724;1.5835662888768556
53.7427202;86.8372482;33.0;0.0;0.5919577250697459;-0.3927815341801327;-0.0418068726419904;-0.986030386458652;-0.0101967982053635;0.711645344580256
53.7430639;86.8373615;33.0;0.0;0.4104501790517757;-0.2712697175693855;0.0163148771285816;-0.9962271846640156;-0.0071377587437544;0.49226292199345023
53.743419;86.837435;34.0;0.0;0.9700019281117446;-0.1327357483006351;0.0107066381156316;-1.023758539818497;-0.0173345569491179;0.9791001744036055
53.7437661;86.8374749;36.0;0.0;0.2352396202372743;-0.2897156758693803;-0.0224329560517997;-0.9931681452024064;-0.0040787192821454;0.373866405673271
53.7441595;86.8375355;37.0;0.0;-2.1823089319257734;-0.3674633390168724;-0.0438462322830631;-0.9890894259202612;0.037728153359845;2.213464269413414
53.7445314;86.837677;37.0;0.0;-2.233242899450784;-0.3961870937314438;0.0122361578464362;-1.0196798205363515;0.0397675130009177;2.2681463323043234
53.7448747;86.8377899;36.0;0.0;-1.0352900630614448;-0.7931729225674623;0.0112164780258998;-1.015601101254206;0.0183542367696543;1.3042525097339415
53.745247;86.837855;35.0;0.0;-2.0653845604344423;-0.8322467097834089;0.0224329560517997;-1.017640460895279;0.0367084735393086;2.226870271466999
53.7456254;86.8379006;35.0;0.0;-1.3228062172142958;-0.8661630058169292;0.0091771183848271;-1.015601101254206;0.023452635872336;1.5811827410038544
53.7459923;86.8379091;36.0;0.0;0.2984102296863888;-0.7882304856440964;-0.0040787192821454;-0.9788926277148976;-0.0050983991026817;0.8428360455220184
53.7463743;86.8379327;38.0;0.0;-2.1939139574567497;-0.7443221981029138;-0.0061180789232181;-1.0380340573060058;0.0397675130009177;2.316745868282061
53.7467717;86.8379717;37.0;0.0;-0.5199024767085789;-0.580781165832536;-0.061180789232181;-1.009483022330988;0.0091771183848271;0.7818877392852421
53.7471751;86.8380679;38.0;0.0;-0.7498188071004893;-0.7856428719052291;-0.0520036708473539;-1.011522381972061;0.0132558376669725;1.0872751939774479
53.7475644;86.8382524;38.0;0.0;-0.0575835622878502;-0.8204209623138548;0.0020393596410727;-1.01458142143367;0.0010196798205363;0.822441840519739
53.7479389;86.8385245;38.0;0.0;-2.7767460825887813;-0.8295219265074799;-0.0458855919241358;-0.9870500662791885;0.0479249515652085;2.8983669404123167
53.7482676;86.8388276;37.0;0.0;-1.2740801596358455;-0.7044606023694966;-0.0489446313857448;-0.9615580707657796;0.0214132762312633;1.4566882200422924
53.7485775;86.8392399;37.0;0.0;-1.8292895869870605;-0.5573510052018987;0.0356887937187723;-0.9890894259202612;0.0316100744366268;1.91264587053013
53.7488609;86.8396513;36.0;0.0;-1.9583298465964665;-0.55399362776795;-0.0275313551544814;-1.0135617416131335;0.0346691138982359;2.035367952777747
53.7494531;86.8404227;36.0;0.0;0.2787738993577635;-0.7883294904645154;-0.0367084735393086;-1.047211175690833;-0.0050983991026817;0.8369741839081782
53.7497652;86.8407604;36.0;30.0;-0.3121064524595174;-0.9348055283774276;0.0591414295911083;-1.0278372591006424;0.0056082390129499;0.9873041690613621
53.7500772;86.841098;35.0;0.0;-1.5508844696174982;-0.9677651759690428;-0.0224329560517997;-1.0166207810747423;0.0275313551544814;1.828200019537349
53.7503902;86.841411;37.0;0.0;-1.3471533774770128;-0.7031893377915301;-0.0081574385642908;-0.9972468644845518;0.023452635872336;1.5196591759454958
53.7507329;86.8417281;38.0;0.0;-2.25455751117804;-0.700663479605382;-0.0040787192821454;-1.0359946976649332;0.040787192821454;2.360926834701368
53.7510835;86.8420531;39.0;0.0;-1.545042667038194;-0.5880022589321644;-0.0056082390129499;-1.020699500356888;0.0275313551544814;1.6531590824305598
53.7514354;86.8423794;38.0;30.0;-3.027968719389335;-0.6461370247184979;-0.0163148771285816;-0.9829713469970428;0.0520036708473539;3.096183747055088
53.7517835;86.8426763;38.0;30.0;-0.7095086104975677;-0.6618614216030935;-0.0010196798205363;-0.9880697460997246;0.0122361578464362;0.97029070361598
53.7521268;86.8429428;37.0;0.0;-2.7207560255775878;-0.95402339779469;0.0061180789232181;-1.0084633425104517;0.0479249515652085;2.8831773142049704
53.7524869;86.8432261;37.0;0.0;-2.114781480815161;-0.9961466541302912;-0.0428265524625267;-0.9931681452024064;0.0367084735393086;2.3380425534471274
53.752846;86.8435084;38.0;0.0;-2.973079641833174;-1.0963669501422355;-0.037728153359845;-0.9809319873559702;0.0509839910268175;3.169013483657494
53.7532865;86.8439233;38.0;0.0;-3.473563028981268;-1.3720064251450848;-0.0550627103089629;-1.006423982869379;0.061180789232181;3.7351136059043086
53.753615;86.8443286;38.0;30.0;0.1745961729103449;-1.4604914812113003;-0.0550627103089629;-1.0023452635872336;-0.003059039461609;1.471920885221854
53.7539114;86.844753;37.0;0.0;-2.7531881150840127;-1.6664096541851898;-0.0173345569491179;-1.017640460895279;0.0489446313857448;3.2182707187969886
53.7541963;86.8452171;37.0;60.0;-1.0740208741104451;-1.996478460531626;0.0163148771285816;-0.9788926277148976;0.0183542367696543;2.2670935703246604
53.7544824;86.8456312;35.0;0.0;-0.8176195687431878;-1.7345145532171673;-0.0020393596410727;-1.0003059039461608;0.0142755174875089;1.9175626856772352
53.7547611;86.8459611;32.0;0.0;2.490475795238409;-1.6119549322091429;-0.078515346181299;-0.9579891913939024;-0.0418068726419904;2.967664578372653
53.7550306;86.846333;35.0;0.0;2.206924295345875;-1.6047033202356866;-0.0112164780258998;-1.0054043030488429;-0.0387478331803813;2.7286834555775483
53.7554044;86.8468348;39.0;0.0;-0.1705975494109922;-1.8103666754227856;-0.0571020699500356;-1.0257978994595698;0.003059039461609;1.819283284631331
53.7557395;86.8472211;38.0;0.0;1.1643874390087916;-1.961878511132343;-0.0010196798205363;-1.00336494340777;-0.020393596410727;2.2813957219893366
53.7560682;86.8475754;37.0;0.0;2.491558150173092;-2.117425432063643;-0.0810645457326399;-1.0043846232283062;-0.0438462322830631;3.2707680958176635
53.7563622;86.848023;37.0;0.0;-0.3447986982586515;-2.2234660746499517;-0.0061180789232181;-1.0166207810747423;0.0061180789232181;2.250049990184626
53.7566528;86.8484416;36.0;0.0;1.900773088658204;-2.258870873430968;-0.0326297542571632;-1.044152136229224;-0.0346691138982359;2.952372039270274
53.7569272;86.8488952;34.0;0.0;2.3969989264208227;-2.53757222708702;-0.0713775874375446;-0.971754868971143;-0.040787192821454;3.4914139572577696
53.7574039;86.8496535;30.0;0.0;1.4832751533761004;-2.862181817184206;-0.0479249515652085;-1.0227388599979603;-0.0265116753339451;3.224048190741774
53.7576213;86.8500245;30.0;0.0;0.8482396130485655;-3.0399740662340085;-0.0163148771285816;-1.0329356582033242;-0.0152951973080452;3.1561398796212807
53.7578381;86.8504205;32.0;0.0;2.2333764722299008;-3.387243453956593;-0.0326297542571632;-1.0191699806260834;-0.0397675130009176;4.057394901158224
53.7581613;86.8509229;34.0;0.0;2.136048910180212;-3.3889904868805454;-0.0010196798205363;-1.011522381972061;-0.037728153359845;4.005990827073353
53.7584366;86.8515054;36.0;0.0;2.183496738608221;-3.4648459928593702;-0.0907515040277353;-1.0390537371265425;-0.0397675130009177;4.0964681857948895
53.7585636;86.8522212;33.0;0.0;2.044422629717977;-3.537420075517976;-0.1407158152340165;-1.0186601407158151;-0.0367084735393086;4.088129843857402
53.7584932;86.8528932;29.0;0.0;3.479555922886325;-3.781114636795091;-0.1152238197206077;-0.9911287855613338;-0.0606709493219129;5.1397873346774166
53.7583478;86.8533366;23.0;0.0;4.782490653765131;-3.792324502773079;-0.049454471296013;-0.9615580707657796;-0.0805547058223717;6.103801088863814
53.7581172;86.8539252;18.0;0.0;4.872062957260974;-4.04844768894073;-0.0632201488732537;-0.9788926277148976;-0.0836137452839808;6.334897231749514
53.7580426;86.854209;17.0;0.0;5.077151333844025;-3.974034929173397;-0.07545630671969;-1.0186601407158151;-0.0907515040277353;6.447954166963979
53.7579629;86.8544621;15.0;0.0;4.525968685964169;-4.201562331061555;-0.0744366268991536;-1.0278372591006424;-0.0815743856429081;6.176006750283532
53.7578856;86.8547176;16.0;0.0;4.920192830545124;-4.171581354670792;-0.0795350260018354;-0.979912307535434;-0.0846334251045171;6.451101790294876
53.7577152;86.855264;20.0;0.0;3.759427488767554;-4.050195731754874;-0.0499643112062812;-1.0074436626899157;-0.0662791883348628;5.5262896179281835
53.7576178;86.8555506;20.0;0.0;2.4525307844133684;-4.217719682431399;-0.0224329560517997;-0.9758335882532884;-0.0418068726419904;4.87899270398939
53.7575114;86.8558282;20.0;60.0;3.5147157781170724;-4.338607384962297;-0.0846334251045171;-0.9758335882532884;-0.0601611094116447;5.584254995828844
53.7573623;86.8560887;18.0;60.0;3.6754803127629305;-3.733125056819212;-0.0428265524625267;-1.0308962985622514;-0.0662791883348628;5.239008716632867
53.7571501;86.8562093;14.0;60.0;1.200807365962543;-3.247029687678083;-0.1193025390027531;-1.01458142143367;-0.0214132762312633;3.464011145857535
53.7569813;86.8562709;16.0;60.0;1.811111509162381;-2.6990466254588235;-0.0530233506678902;-0.9982665443050882;-0.0316100744366268;3.25081359981423
53.7566258;86.856325;19.0;60.0;4.136357608096461;-2.63937174775051;-0.0469052717446721;-0.971754868971143;-0.0703579076170082;4.906927510102273
53.7564309;86.8563861;19.0;60.0;2.0046279245804453;-2.886093238990641;-0.0652595085143265;-0.9299479963291526;-0.0326297542571632;3.514587615013563
53.7562364;86.8564476;20.0;60.0;4.669479830515669;-3.205589559061624;-0.0744366268991536;-1.0084633425104517;-0.0825940654634444;5.664396448005882
53.7560314;86.8565242;21.0;60.0;1.6692009702138548;-3.3482654801946627;-0.0316100744366268;-1.0492505353319057;-0.0305903946160905;3.7414051907848687
53.7557871;86.8565615;22.0;60.0;-0.1638456269919972;-3.6607733763597534;-0.0672988681553992;-1.06760477210156;0.003059039461609;3.665056103281884
53.7555771;86.8565563;21.0;60.0;0.4548381143186611;-3.694216873250017;-0.0392576730906495;-1.026817579280106;-0.0081574385642908;3.722318790987492
53.7553516;86.8565868;18.0;60.0;0.0567612591078202;-3.875873998838864;-0.0295707147955541;-1.0288569389211788;-0.0010196798205363;3.876402394306374
53.7550125;86.8568877;10.0;60.0;1.880851169477976;-4.026680123193061;-0.0540430304884266;-0.8677475272764352;-0.0285510349750178;4.444623109487364
53.7549618;86.8570162;10.0;60.0;-4.121788889193938;-4.132576799431611;-0.0010196798205363;-1.0329356582033242;0.0744366268991536;5.836723026667442
53.7548995;86.8571843;10.0;60.0;-0.5777170863480422;-4.1795055806735775;0.0387478331803813;-1.0105027021515245;0.0101967982053635;4.219422392379817
53.7548646;86.857431;14.0;60.0;0.9840885134026994;-4.153408020038022;-0.147853573977771;-0.9982665443050882;-0.0173345569491179;4.270958798966023
53.7547957;86.8576693;14.0;60.0;-1.7350421546032258;-4.040225670644011;-0.1458142143366982;-0.9992862241256244;0.0305903946160905;4.399438206530884
53.7546519;86.8577047;13.0;60.0;2.5409275552758768;-3.8259000856106016;-0.1468338941572346;-1.0003059039461608;-0.0448659121035994;4.595147930013661
53.7545277;86.8576061;12.0;60.0;1.4692894524579907;-3.49637281805686;-0.0846334251045171;-0.9503415927398796;-0.0244723156928724;3.793494061494771
53.7544675;86.8574435;7.0;60.0;-0.6767201667786575;-3.037585421101846;-0.0642398286937901;-1.0339553380238604;0.0122361578464362;3.1127161981468885
53.7544673;86.8573409;1.0;60.0;0.5143400604266594;-2.435479447864627;-0.0336494340776996;-1.0217191801774244;-0.0091771183848271;2.489425259601991
53.7544761;86.8572985;4.0;60.0;-0.8644397457876275;-1.675996451464262;-0.0168247170388498;-1.0135617416131335;0.0152951973080452;1.8858693619977005
53.7545258;86.8573482;5.0;60.0;4.028976763956261;-0.7450779850198188;0.0535331905781584;-0.9829713469970428;-0.0693382277964719;4.09764087869522
53.7545426;86.8574674;5.0;0.0;4.888012389560548;0.3713343983496466;-0.0173345569491179;-0.9656367900479248;-0.0825940654634444;4.902127583280523
53.7280923;86.8531099;5.0;90.0;-1.845806328283779;-0.1510642228564102;0.0010196798205363;-1.044152136229224;0.0336494340776996;1.8519779806214203
53.7280349;86.8531037;6.0;90.0;-1.4561119419850712;-0.0477587881818954;0.0;-1.0028551034975015;0.0254919955134087;1.4568949479767368
53.7279546;86.8531514;9.0;90.0;3.041354217161022;0.0159756238193138;0.0214132762312633;-0.9401447945345162;-0.0499643112062812;3.04147155554651
53.7278698;86.8532202;7.0;90.0;1.628198443767004;0.0424691439214531;0.0509839910268175;-1.0390537371265425;-0.0295707147955541;1.6295499893564904
53.7277954;86.8532994;7.0;90.0;0.5079631407148307;0.034051902898758;-0.0382379932701132;-0.9768532680738248;-0.0086672784745589;0.5105371960447412
53.7277465;86.8534809;9.0;90.0;-1.765747251735632;-0.0069459684745357;-0.0489446313857448;-0.9248495972264708;0.0285510349750178;1.7664391244623951
53.7277346;86.8536738;9.0;90.0;-6.6577268391191335;-0.0781943394241926;-0.0591414295911083;-1.055368614255124;0.1233812582848985;6.65844867275699
53.7277412;86.8538852;11.0;90.0;-3.53814373605397;-0.1773630791759771;-0.0132558376669725;-1.055368614255124;0.0652595085143265;3.5426112510498498
53.7277308;86.8540284;8.0;90.0;-0.7391302416575778;-0.3021220569556532;0.029060874885286;-0.9875599061894564;0.0127459977567044;0.7990217680895825
53.7276961;86.8541985;9.0;90.0;3.37299283528268;-0.4501411419889856;-0.0173345569491179;-0.968695829509534;-0.0571020699500356;3.4029411104872302
53.727627;86.854411;11.0;90.0;-2.900566892866701;-0.6190902035017387;0.0081574385642908;-1.0665850922810238;0.0540430304884266;2.96591090963133
53.7274207;86.8545119;10.0;90.0;2.722698344957892;-0.8066391107196766;0.0224329560517997;-0.9646171102273886;-0.0458855919241358;2.839763400372696
53.7273304;86.8544216;11.0;90.0;1.1016970884968542;-1.010457732868564;0.0040787192821454;-1.0074436626899153;-0.0193739165901906;1.4949173691770747
53.7272275;86.8542419;14.0;90.0;0.8680396041675663;-1.2282159391741874;-0.0050983991026817;-0.9758335882532884;-0.014785357397777;1.5040056985657755
53.7271453;86.8540573;13.0;0.0;-1.1050242981893867;-1.5248764034006432;-0.0081574385642908;-1.0043846232283062;0.0193739165901906;1.8831870032051936
53.7270505;86.8539113;14.0;30.0;-2.7008855709313853;-1.7071057647281689;-0.0326297542571632;-1.0370143774854697;0.0489446313857448;3.195318084337831
53.7269601;86.8537441;11.0;30.0;-0.6603194100895405;-2.145929881636083;-0.0693382277964719;-0.9707351891506067;0.0112164780258998;2.246295744124893
53.726884;86.8535656;14.0;30.0;-2.3740147269676357;-2.026883272254258;-0.040787192821454;-0.9829713469970428;0.040787192821454;3.1218368500454345
53.726803;86.8533566;14.0;30.0;-4.386108777859156;-2.2776674796960323;-0.0418068726419904;-1.009483022330988;0.0774956663607627;4.942415115495472
53.7267422;86.8531678;14.0;30.0;-2.372598406759006;-2.6490023194970056;-0.0285510349750178;-0.9839910268175792;0.040787192821454;3.5562974636627396
53.726697;86.8529178;17.0;0.0;-2.305419594263997;-3.140432051748951;-0.0713775874375446;-1.0359946976649332;0.0418068726419904;3.896455791774995
53.7267205;86.8525829;18.0;0.0;-0.2324635830541188;-3.452606529585755;-0.0999286224125624;-1.0003059039461608;0.0040787192821454;3.461866100120255
53.7268368;86.8523664;18.0;30.0;1.6035743044880677;-3.323137180048779;-0.0672988681553992;-1.017640460895279;-0.0285510349750178;3.690422794896533
53.7270011;86.8521723;20.0;0.0;0.7193095907516586;-3.3957210307712997;-0.0397675130009177;-0.9737942286122158;-0.0122361578464362;3.471297892901169
53.7271975;86.8519591;21.0;30.0;-0.059546744653583;-3.221112801201631;-0.0489446313857448;-0.979912307535434;0.0010196798205363;3.2220349268444224
53.7273677;86.8517453;22.0;0.0;1.0878465841978908;-3.159480231576511;-0.092790863668808;-0.9890894259202612;-0.0188640766799225;3.3428035642038836
53.7276207;86.8514351;23.0;0.0;2.9952139316646287;-3.2884924374003583;-0.0560823901294993;-0.9727745487916796;-0.0509839910268175;4.448441776820269
53.7278211;86.8512515;26.0;30.0;1.3949382303352895;-3.3275822294145727;-0.0458855919241358;-0.9829713469970428;-0.0239624757826042;3.6084292493428265
53.728049;86.8510698;25.0;30.0;2.507649759488958;-3.1688999564170595;-0.0876924645661262;-1.020699500356888;-0.0448659121035994;4.042019819148188
53.7282875;86.8508475;26.0;30.0;3.082130695812086;-3.059201945837677;0.0336494340776996;-0.9462628734577344;-0.0509839910268175;4.342738589403911
53.7285252;86.8506756;26.0;30.0;2.493250189777836;-3.075958817279008;-0.0856531049250535;-1.026817579280106;-0.0448659121035994;3.9604489150608915
53.7287571;86.8504723;25.0;0.0;1.8780703554274856;-2.9617289874894874;-0.0540430304884266;-1.0247782196390334;-0.0336494340776996;3.5074075190110716
53.7289783;86.8502327;23.0;0.0;2.43520554438102;-2.895735722076656;-0.0346691138982359;-1.006423982869379;-0.0428265524625267;3.783743300351302
53.7292459;86.8500907;23.0;30.0;0.8684895704899649;-2.5832352186517507;0.0010196798205363;-1.00897318242072;-0.0152951973080452;2.7253218834991837
53.7294738;86.849909;24.0;0.0;1.1679454484113854;-2.245564949830287;0.0020393596410727;-1.0003059039461608;-0.020393596410727;2.53113861203983
53.7297156;86.8496132;27.0;0.0;1.7700890797759132;-2.012965646286521;-0.0805547058223717;-1.0196798205363515;-0.0316100744366268;2.681741058361485
53.7299592;86.849396;28.0;0.0;3.00761904499208;-1.712359223829925;-0.0591414295911083;-1.0074436626899157;-0.0530233506678902;3.4614222712533316
53.7305557;86.8491477;30.0;0.0;2.6329246055308944;-1.2355761855524705;-0.1213418986438258;-1.0574079738961966;-0.0489446313857448;2.910955916031862
53.7308307;86.8492179;29.0;0.0;3.428079265982852;-0.8237185924657446;-0.058121749770572;-1.0196798205363515;-0.061180789232181;3.526133564009122
53.7310964;86.8493044;23.0;0.0;4.991517993069885;-0.5845705258622803;0.0152951973080452;-1.015601101254206;-0.0887121443866625;5.025655033715307
53.7313043;86.8493331;15.0;30.0;5.863841324153986;-0.469534290842005;0.0183542367696543;-1.012542061792597;-0.1040073416947078;5.882638387929338
53.7314778;86.849353;13.0;30.0;6.474528897288524;-0.3452990412171294;-0.0142755174875089;-0.9972468644845518;-0.113184460079535;6.483745804709586
53.7316444;86.8493404;12.0;30.0;6.0179772594469645;-0.2680413847273336;0.0020393596410727;-1.015601101254206;-0.1070663811563169;6.023943943807502
53.7317561;86.8493497;12.0;30.0;6.525185828214419;0.209032029732188;0.0193739165901906;-0.9982665443050882;-0.1142041399000713;6.528561850118929
53.7318856;86.8493256;14.0;30.0;6.090248340437546;0.3529887817476709;0.0265116753339451;-0.9839910268175792;-0.1050270215152442;6.100526927829349
53.7320423;86.8493031;16.0;30.0;5.406010213993102;0.4957702612144548;0.0734169470786173;-0.9885795860099929;-0.0938105434893443;5.429191895100111
53.7322206;86.849251;17.0;30.0;4.80031654865898;0.6316111360315423;0.043846232283063;-0.9946976649332112;-0.0836137452839807;4.841889516146949
53.732434;86.8491572;17.0;30.0;5.194040870024869;0.8942157164606003;0.0122361578464362;-0.9982665443050882;-0.0907515040277353;5.270467913820621
53.7326344;86.8490504;15.0;30.0;5.767701856735701;1.1778792407673249;0.0081574385642908;-1.009483022330988;-0.1019679820536351;5.886752140002753
53.7327625;86.8489481;12.0;30.0;6.362231886886872;1.1916898898292403;0.0122361578464362;-0.9967370245742836;-0.1111451004384623;6.472887230564129
53.7328644;86.8488196;11.0;0.0;6.622729863100435;1.1773675275815638;-0.0224329560517997;-0.99214846538187;-0.1152238197206077;6.72660749353811
53.7329379;86.8487139;10.0;0.0;7.711506116881829;0.868343408825221;-0.020393596410727;-1.0013255837666972;-0.1356174161313347;7.760268214767492
53.7329958;86.8485414;11.0;0.0;6.451368353682335;0.5563334522296977;-0.0316100744366268;-1.009483022330988;-0.1142041399000713;6.475388771476939
53.7330384;86.8483536;12.0;30.0;6.279955031265987;0.4496570751130567;0.0285510349750178;-1.0003059039461608;-0.1101254206179259;6.296097350066973
53.7330841;86.8481177;13.0;30.0;5.746580721706321;0.3149586978223295;0.040787192821454;-0.99214846538187;-0.0999286224125624;5.755349908347792
53.7331236;86.8476452;14.0;0.0;6.390629451700697;0.0564370684561064;0.0101967982053635;-1.0105027021515245;-0.113184460079535;6.390886785598218
53.7331369;86.8474281;13.0;0.0;7.110414796472017;-0.1607753758275456;0.0071377587437544;-0.9972468644845518;-0.1244009381054349;7.11223581210301
53.7331493;86.8471845;12.0;0.0;7.892347273041305;-0.2867744661823159;-0.0112164780258998;-1.0003059039461608;-0.1386764555929438;7.897563604183
53.7331631;86.8469935;11.0;0.0;7.45290227567638;-0.4171868819829975;-0.003059039461609;-0.986030386458652;-0.1289894972978484;7.4645700869509755
53.733184;86.8468096;12.0;0.0;6.546205628116117;-0.3421898774585024;0.0050983991026817;-0.9952075048434792;-0.1142041399000713;6.555145157163768
53.7332157;86.8465085;14.0;0.0;5.406937992445693;-0.3348825778533928;-0.0020393596410727;-0.9911287855613338;-0.0938105434893443;5.417299046027471
53.7332374;86.846223;16.0;0.0;4.95200591365032;-0.3523228911519286;-0.0061180789232181;-1.0003059039461608;-0.0866727847455898;4.964527310766565
53.73326;86.8459384;17.0;0.0;4.059708606402816;-0.4203541288279279;-0.0193739165901906;-0.9911287855613338;-0.0703579076170082;4.081458919451208
53.7332715;86.8456683;18.0;0.0;4.9228459061472645;-0.4450675588301882;-0.0224329560517997;-0.9941878250229428;-0.0856531049250535;4.942974831527181
53.7332998;86.845031;17.0;0.0;4.579185542126023;-0.6029026556746859;-0.0275313551544814;-0.9926583052921384;-0.0795350260018354;4.61878661738689
53.7333141;86.8447637;17.0;0.0;5.26742830086623;-0.7666454044097989;-0.0101967982053635;-1.006423982869379;-0.092790863668808;5.322936225013673
53.7333096;86.8442216;15.0;0.0;6.164402072473413;-1.0279674964061198;-0.0183542367696543;-0.9911287855613338;-0.1070663811563169;6.249552541005586
53.7333265;86.8439569;14.0;0.0;6.1968722824560505;-1.112921880299309;-0.0081574385642908;-0.986030386458652;-0.1070663811563169;6.296021580373192
53.7333293;86.8436269;13.0;0.0;5.459273740043843;-1.10132058667384;-0.0061180789232181;-1.0135617416131335;-0.0968695829509534;5.569256165257046
53.733326;86.843342;13.0;0.0;4.810910247156529;-1.0949443833960375;-0.0101967982053635;-1.017640460895279;-0.0856531049250535;4.933950200764076
53.7333207;86.8430551;14.0;0.0;6.312363908583425;-1.0730923293006236;-0.0254919955134087;-0.9952075048434792;-0.1101254206179259;6.4029770500467755
53.7333104;86.8427632;16.0;0.0;4.137656513299828;-1.090785463177911;-0.0163148771285816;-0.98654022636892;-0.0713775874375446;4.279051357947047
53.7333125;86.8421509;20.0;0.0;3.5039244505379736;-1.1139422705611015;-0.0214132762312633;-1.015601101254206;-0.0622004690527174;3.6767937752367374
53.7333157;86.8417957;21.0;0.0;3.728637692056106;-0.7254068132717749;-0.0112164780258998;-1.0013255837666972;-0.0652595085143265;3.7985628720269857
53.7333307;86.8414523;21.0;0.0;4.129626290146698;-0.5249480775032028;-0.0275313551544814;-1.0023452635872336;-0.0723972672580809;4.162948685230425
53.733349;86.841061;21.0;0.0;3.352555456511608;-0.4055916979608002;-0.0142755174875089;-1.009483022330988;-0.0591414295911083;3.3770307231116536
53.733386;86.8406884;20.0;0.0;3.811378609593526;-0.4692615181018472;-0.0193739165901906;-0.9870500662791885;-0.0657693484245946;3.840206846861556
53.7334799;86.8403983;19.0;0.0;4.836567915459336;-0.3431076831773381;-0.0137656775772407;-0.9880697460997246;-0.0836137452839808;4.848742267535485
53.7335433;86.8401033;19.0;0.0;3.95666585517046;-0.3608903061428117;-0.0163148771285816;-1.0023452635872336;-0.0693382277964719;3.9731237934093317
53.7336276;86.8397524;19.0;0.0;4.861980016721856;-0.1277233919198126;-0.003059039461609;-0.9829713469970428;-0.0836137452839808;4.863658325331723
53.7337341;86.8394237;20.0;0.0;4.33570643192594;-0.1260882641011548;0.0081574385642908;-0.9952075048434792;-0.07545630671969;4.337547124584578
53.7340061;86.8389277;18.0;0.0;4.295951350771836;-0.1280995580806793;0.0142755174875089;-1.0043846232283062;-0.07545630671969;4.2978845139647905
53.7341138;86.838677;16.0;0.0;4.308205073645058;-0.1473009229848298;0.0050983991026817;-0.9880697460997246;-0.0744366268991536;4.310725520392897
53.7341854;86.8383902;18.0;30.0;3.7142893475808263;-0.3589196634294821;0.0107066381156316;-0.9737942286122158;-0.0632201488732537;3.731605996678705
53.7342214;86.8380422;22.0;30.0;3.6264729859562936;-0.6025614926866213;0.0168247170388498;-1.0054043030488429;-0.0637299887835219;3.676230371106104
53.7342583;86.8369527;26.0;30.0;3.877246544352807;-0.8442979292640853;0.040787192821454;-0.99214846538187;-0.0672988681553992;3.968317446242634
53.7342642;86.8364978;26.0;0.0;3.99227573222882;-0.992842141623505;-0.0805547058223717;-1.0048944631385743;-0.0703579076170082;4.11466767807035
53.7343391;86.8360863;25.0;0.0;4.691138909352297;-1.0913388839191072;-0.0428265524625267;-0.9931681452024064;-0.0815743856429081;4.816600350868721
53.7344824;86.835692;25.0;0.0;2.2757540962544827;-1.2671519720682929;-0.0275313551544814;-1.0003059039461608;-0.0397675130009177;2.6048970809711967
53.7346753;86.8354241;28.0;0.0;3.0842589625006984;-1.4968635448498493;0.0193739165901906;-1.0217191801774244;-0.0550627103089629;3.428356627935662
53.7348977;86.8351089;32.0;30.0;-0.4533068562083703;-1.9445438644676392;-0.0489446313857448;-1.029876618741715;0.0081574385642907;1.9972815334012737
53.7354881;86.8340353;33.0;0.0;0.2266394636841469;-2.28587117139104;-0.0214132762312633;-1.0308962985622514;-0.0040787192821454;2.2971789192604564
53.7358286;86.833659;33.0;30.0;-1.1502089041102144;-2.4675351566305954;-0.1029876618741715;-1.0105027021515245;0.020393596410727;2.724392910503312
53.7364747;86.8333323;33.0;0.0;2.215150973115945;-2.7925428725255284;-0.0622004690527174;-0.9997960640358928;-0.0387478331803813;3.564976637642949
53.7368097;86.8331809;35.0;0.0;0.1713317538123708;-3.072806325694731;-0.0683185479759355;-1.020699500356888;-0.003059039461609;3.0783373286713585
53.7371768;86.8331128;36.0;0.0;1.3482020922786662;-3.2747511688365614;-0.0764759865402263;-1.0370143774854697;-0.0244723156928724;3.542244016995201
53.7379601;86.8330513;38.0;0.0;1.5203810844572878;-3.3367008341413498;-0.023452635872336;-1.0370143774854697;-0.0275313551544814;3.6668353010006403
53.7383714;86.833053;38.0;0.0;1.4637396977129795;-3.2106396205365986;-0.0275313551544814;-0.9972468644845518;-0.0254919955134087;3.5286681129197914
53.7387411;86.8330899;39.0;0.0;0.6936321280529076;-3.1465180518289046;-0.0193739165901906;-1.0105027021515245;-0.0122361578464362;3.222123015683357
53.7391607;86.8331255;39.0;0.0;0.6420415970059671;-2.883870098074553;-0.0571020699500356;-0.9992862241256244;-0.0112164780258998;2.955027039004395
53.7395443;86.8332275;40.0;0.0;0.1731269506635376;-3.118356109490793;-0.0764759865402263;-1.009483022330988;-0.003059039461609;3.124094483712346
53.7399304;86.83346;39.0;0.0;0.1704088940337685;-2.992849107335834;-0.0876924645661262;-1.0247782196390334;-0.003059039461609;2.998978982718684
53.7402661;86.8338213;38.0;0.0;-0.7771155293966796;-2.757174587672872;-0.0693382277964719;-0.974813908432752;0.0132558376669725;2.865436797902287
53.7405888;86.834272;38.0;0.0;1.0019585443615249;-2.2498009749643533;-0.0071377587437544;-0.9911287855613338;-0.0173345569491179;2.4628390729338174
53.740864;86.8347264;37.0;0.0;-0.8766449379264653;-1.933308853598776;-0.0244723156928724;-0.9992862241256244;0.0152951973080452;2.122919773526753
53.7411224;86.8352152;36.0;0.0;0.4113448130116615;-1.421985350284276;-0.0780055062710309;-0.9911287855613338;-0.0071377587437544;1.48233995784479
53.7413374;86.8357118;33.0;30.0;-0.5863260820106544;-1.2646796531920326;-0.0183542367696543;-0.9962271846640156;0.0101967982053635;1.3941053682025906
53.7414967;86.8362295;30.0;30.0;2.5243069609332123;-0.8665528731785667;0.0010196798205363;-0.948302233098807;-0.0418068726419904;2.6689025000506925
53.7416615;86.8366247;28.0;0.0;2.334688449845129;-0.4997120956250558;0.0142755174875089;-1.0003059039461608;-0.040787192821454;2.3876109663749183
53.7419773;86.8369661;31.0;0.0;2.3834251730322507;-0.267584830979621;-0.0091771183848271;-1.0043846232283062;-0.0418068726419904;2.3984164393857994
53.7424755;86.8372083;35.0;0.0;0.9022626738861268;-0.0462830463861637;-0.0448659121035994;-1.0349750178443968;-0.0163148771285816;0.9045623268408954
53.7428455;86.8373223;36.0;0.0;-0.4799439468913714;0.272207596021009;0.0061180789232181;-0.9737942286122158;0.0081574385642908;0.5517976063548256
53.7431771;86.8373979;36.0;0.0;-1.3430235708698084;0.5308319414949372;0.0091771183848271;-1.0003059039461608;0.023452635872336;1.4441534134312133
53.7435576;86.8374968;36.0;30.0;-2.2065841671845097;0.6786534157047047;0.0815743856429081;-1.0288569389211788;0.0397675130009177;2.310029983768617
53.744046;86.8375756;35.0;30.0;-2.287667415542411;0.674531915694761;0.0244723156928724;-1.020699500356888;0.040787192821454;2.3851654876885817
53.7443901;86.8376381;35.0;30.0;-1.272715911388507;0.6802754024721587;0.0224329560517997;-1.009483022330988;0.0224329560517997;1.4432891781716364
53.7447444;86.8377364;34.0;30.0;-2.371413018123292;0.6604359053338209;0.0086672784745589;-1.009483022330988;0.0418068726419904;2.461676341295679
53.7450652;86.8378524;34.0;0.0;-0.573373163507332;0.5668231231326357;0.0224329560517997;-1.0186601407158151;0.0101967982053635;0.806565852900718
53.7454441;86.8378729;34.0;0.0;-0.5931015547775645;0.5228978046938981;-0.0020393596410727;-0.9850107066381156;0.0101967982053635;0.7906931942422473
53.7458121;86.8379081;36.0;0.0;-0.1184591495902256;0.1986148667435427;0.0265116753339451;-0.986030386458652;0.0020393596410727;0.23277307477929482
53.7465957;86.8379493;37.0;30.0;-2.257608854473199;0.0067553007268289;-0.023452635872336;-1.008463342510452;0.0397675130009177;2.2577407734310557
53.7469699;86.8380419;36.0;0.0;-0.4668552324353682;-0.2336932649596931;-0.0402773529111858;-1.0003059039461608;0.0081574385642908;0.5236302276390613
53.7473191;86.8381607;36.0;0.0;-1.1673653245905515;-0.2109255646031987;-0.0316100744366268;-1.0003059039461608;0.020393596410727;1.1866889195005872
53.7477898;86.838401;36.0;0.0;-2.7427198442037986;-0.2665718384610571;0.0132558376669725;-1.0003059039461608;0.0479249515652085;2.7556756714247177
53.748142;86.838702;36.0;0.0;-0.5202026535881135;-0.534474724753779;-0.0224329560517997;-1.0105027021515245;0.0091771183848271;0.7461750932039776
53.7484451;86.8390563;34.0;30.0;-1.377876047352529;-0.6110272641534349;0.003059039461609;-0.9962271846640156;0.0239624757826042;1.5072843385138346
53.7487005;86.8394397;33.0;30.0;-0.8167781864049278;-0.5978511148025395;-0.0050983991026817;-1.0013255837666972;0.0142755174875089;1.0122146782827113
53.7489688;86.8398104;34.0;0.0;-0.2003276794781607;-0.2899157640042439;0.0081574385642908;-1.020699500356888;0.0035688793718772;0.35248953628043955
53.7492549;86.8401733;34.0;0.0;0.9695314922312864;-0.1501762583065365;-0.0336494340776996;-1.023758539818497;-0.0173345569491179;0.9816702640912202
53.7495533;86.8405229;35.0;0.0;-1.3120024985286272;-0.2255044804580161;-0.0509839910268175;-1.0227388599979603;0.023452635872336;1.3322170221825806
53.7498657;86.8408865;35.0;30.0;-2.917082235898183;-0.390584843971947;0.0214132762312633;-1.0003059039461608;0.0509839910268175;2.94319279350373
53.7501788;86.8411996;34.0;0.0;-1.156080811163402;-0.4338675742571483;-0.0122361578464362;-1.0105027021515245;0.020393596410727;1.2348739358699148
53.7504925;86.8415133;36.0;0.0;-2.3239323759184147;-0.5946897378434838;0.003059039461609;-0.979912307535434;0.0397675130009177;2.3988178192310867
53.7508321;86.8418273;38.0;0.0;-2.2378197469297705;-0.611309878817945;0.0071377587437544;-1.017640460895279;0.0397675130009177;2.3198249794519232
53.7511723;86.8421419;38.0;30.0;-0.6523110643536038;-0.4460177204157138;0.0479249515652085;-0.9839910268175792;0.0112164780258998;0.7916680697018725
53.7516086;86.842527;38.0;30.0;-1.4672033125384818;-0.6829096804721796;-0.0112164780258998;-0.9952075048434792;0.0254919955134087;1.6183871605353937
53.7519767;86.8428439;38.0;30.0;-2.410768290993837;-0.8880237746903423;-0.0142755174875089;-0.968695829509534;0.040787192821454;2.5691620750112607
53.7523297;86.8431201;36.0;30.0;-3.578101700352996;-0.892758316331303;0.0050983991026817;-1.002855103497502;0.0627103089629856;3.687798148369988
53.7527596;86.8434476;37.0;0.0;-0.2853033494238635;-1.1512366553541094;-0.0152951973080452;-1.023758539818497;0.0050983991026817;1.1861609422351098
53.7532105;86.8438217;38.0;0.0;-2.053619177985507;-1.276926302293446;-0.0484347914754767;-0.9656367900479248;0.0346691138982359;2.4187266151229156
53.7536335;86.8442959;38.0;0.0;-0.7184470837082336;-1.5770400152798565;-0.0764759865402263;-0.9727745487916796;0.0122361578464362;1.7346671145784878
53.7540003;86.8448419;37.0;0.0;-0.5747250139094309;-1.4935481223398497;-0.0897318242071989;-1.012542061792597;0.0101967982053635;1.602824580430946
53.75427;86.8452908;37.0;90.0;-3.139480849188753;-1.5937982749850617;-0.0285510349750178;-0.9941878250229426;0.0545528703986947;3.520986808462428
53.7546136;86.845788;31.0;90.0;0.1142466170348353;-1.7434658685370463;-0.0061180789232181;-1.0227388599979603;-0.0020393596410727;1.7472157723496125
53.7549242;86.846201;29.0;90.0;1.9276631218261893;-1.7503086789058415;-0.020393596410727;-1.0298766187417152;-0.0346691138982359;2.603820554776455
53.7552677;86.8465701;37.0;90.0;2.1016368727368557;-1.9669423390019325;0.0040787192821454;-1.0003059039461608;-0.0367084735393086;2.878498974423393
53.7556416;86.8470976;38.0;90.0;3.265366183447758;-2.046983933304216;0.0050983991026817;-0.9829713469970428;-0.0560823901294993;3.853931178534872
53.7562757;86.8479109;37.0;0.0;0.6035921362893233;-2.1978217846794528;-0.1152238197206077;-1.058427653716733;-0.0112164780258998;2.282108803898905
53.7565477;86.8483109;35.0;0.0;2.133329232960693;-2.060040131725919;-0.023452635872336;-1.012542061792597;-0.037728153359845;2.9657054787445363
53.7568214;86.8487382;34.0;0.0;2.298147820478237;-2.213483629394186;-0.0367084735393086;-1.041093096767615;-0.0418068726419904;3.190978015341772
53.7570688;86.8491136;30.0;0.0;2.678897527776833;-2.204467436041856;-0.0591414295911083;-0.9788926277148976;-0.0458855919241358;3.469822236021878
53.7572873;86.8494601;29.0;0.0;1.9450483054612404;-2.1512613343820366;-0.0183542367696543;-1.020699500356888;-0.0346691138982359;2.900254319433422
53.757489;86.8498922;29.0;0.0;4.101289686075968;-2.4017341250159814;-0.0295707147955541;-0.9381054348934434;-0.0672988681553992;4.752870535113797
53.7576973;86.8502285;29.0;0.0;2.408111537029682;-2.541919185300074;0.0295707147955541;-0.9936779851126746;-0.0418068726419904;3.5016037392237243
53.7579406;86.8505742;31.0;0.0;3.686802633818999;-2.5925320486885983;-0.0662791883348628;-0.9788926277148976;-0.0632201488732537;4.50756353421874
53.7581954;86.8509314;34.0;0.0;2.3208664043618064;-3.0338246113389764;-0.0632201488732537;-1.0043846232283062;-0.040787192821454;3.820276092965657
53.758425;86.8513914;36.0;0.0;1.7716343977428433;-3.2344963118877903;-0.0887121443866625;-0.9850107066381156;-0.0305903946160905;3.6889733904493056
53.7585352;86.8520392;34.0;0.0;0.9201342109472944;-3.486652924010364;-0.0815743856429081;-1.012542061792597;-0.0163148771285816;3.606944684779438
53.7585301;86.8525973;31.0;0.0;2.206995344038922;-3.6716488862646326;-0.0469052717446721;-0.951361272560416;-0.0367084735393086;4.284160839316755
53.7584421;86.8530981;27.0;0.0;3.3824833700136288;-3.5971959424622706;-0.0815743856429081;-1.0319159783827878;-0.061180789232181;4.938387062318911
53.7583008;86.8534944;20.0;0.0;3.95229664269268;-3.49832671303361;-0.0499643112062812;-1.0023452635872336;-0.0693382277964719;5.278393219092217
53.7580763;86.8540635;17.0;0.0;4.332343980373518;-3.752968045805329;-0.0876924645661262;-1.0191699806260834;-0.0774956663607627;5.73250935328118
53.7580005;86.8543205;15.0;0.0;5.763465747276865;-3.832561945699232;-0.0418068726419904;-0.9992862241256244;-0.1009483022330988;6.921547247708106
53.7579249;86.8546545;15.0;0.0;3.824128805736799;-4.022335202860401;-0.0948302233098807;-1.0023452635872336;-0.0672988681553992;5.550867894148534
53.7578494;86.8549118;17.0;0.0;4.538704222346977;-4.122446617696684;-0.0897318242071989;-0.9850107066381156;-0.078515346181299;6.132083979691134
53.7576566;86.8554102;19.0;0.0;4.807406099449201;-4.160225802556441;0.0010196798205363;-0.9941878250229428;-0.0836137452839808;6.357565034903277
53.757564;86.8557272;20.0;0.0;2.787790977446943;-4.0541347663118925;-0.0545528703986947;-0.9931681452024064;-0.0484347914754766;4.920443400042531
53.7574153;86.8560393;19.0;0.0;2.651790199976385;-3.4564553644041984;-0.1366370959518711;-1.01458142143367;-0.0474151116549403;4.358640229108101
53.7572496;86.8562064;15.0;0.0;3.046671876122777;-3.330726101822968;-0.0489446313857448;-0.9758335882532884;-0.0520036708473539;4.514237639188237
53.7570586;86.8562714;16.0;30.0;4.070485895268126;-3.3502548264100245;-0.0723972672580809;-0.986030386458652;-0.0703579076170082;5.2724097137615225
53.7568881;86.8563057;18.0;30.0;-0.6016915345870061;-3.294629306243327;-0.020393596410727;-0.9707351891506067;0.0101967982053635;3.34918361203527
53.7566997;86.8562965;17.0;30.0;2.23625439657065;-2.741767150292968;-0.0316100744366268;-0.9656367900479248;-0.037728153359845;3.5382368532099533
53.7565197;86.8563469;18.0;30.0;3.82292484989212;-2.3263490847518864;-0.0744366268991536;-1.0043846232283062;-0.0672988681553992;4.475734049680873
53.7563284;86.8564372;19.0;0.0;-0.1601646995733957;-2.120439338295236;-0.06984806770674;-1.0920770877944326;0.003059039461609;2.127626487648088
53.7561232;86.8564624;20.0;0.0;1.5923960854932524;-1.9090454079048;-0.0662791883348628;-0.951361272560416;-0.0265116753339451;2.4868800922728393
53.7559065;86.8564505;20.0;0.0;0.5782055030232996;-2.279992932941947;-0.0428265524625267;-1.009483022330988;-0.0101967982053635;2.3525567988015665
53.7556388;86.8564644;21.0;60.0;2.517506373484927;-2.3747500743669043;0.003059039461609;-0.9972468644845518;-0.0438462322830631;3.460821522986309
53.7554196;86.8565012;18.0;60.0;-0.3482035147114145;-2.4186733964096256;-0.0326297542571632;-1.006169062914245;0.006118078923218;2.443827200728386
53.7552062;86.8566718;14.0;60.0;-1.0015004888643306;-2.8402087979415307;0.0122361578464362;-1.020699500356888;0.0178443968593861;3.011633936695961
53.7550882;86.8567586;12.0;60.0;-0.8726413002637188;-2.798183229832448;-0.0163148771285816;-0.9370857550729071;0.0142755174875089;2.931142849104633
53.7549831;86.8569095;9.0;60.0;-2.93873168151088;-2.7265661139977544;-0.0897318242071989;-0.9890894259202612;0.0509839910268175;4.009782845765108
53.7549406;86.8570206;9.0;60.0;-1.826034302197008;-2.870546026906327;-0.0295707147955541;-1.0390537371265425;0.0331395941674314;3.402250753921782
53.7548832;86.857168;10.0;60.0;1.4309523561636106;-3.0305412763319453;0.040787192821454;-1.0196798205363515;-0.0254919955134087;3.3516367148394974
53.754851;86.8573918;11.0;60.0;1.1290885994368376;-3.146298569870298;0.0081574385642908;-0.9829713469970428;-0.0193739165901906;3.342768657856845
53.7548679;86.8577927;10.0;60.0;-0.3885257099449534;-3.202003769395052;-0.168247170388498;-1.0390537371265425;0.0071377587437544;3.229874219973912
53.7548226;86.8579522;10.0;60.0;-2.6076665639303247;-3.181842736779921;-0.1294993372081166;-1.0217191801774244;0.0469052717446721;4.115922519748965
53.7547271;86.8579591;9.0;60.0;0.5202732772565472;-3.07000133389862;-0.1208320587335576;-1.00336494340777;-0.0091771183848271;3.1161182358158945
53.7546356;86.8578676;9.0;60.0;0.7727063843754609;-2.850665422624862;-0.1172631793616804;-0.9758335882532884;-0.0132558376669725;2.9558618305728683
53.754602;86.8576804;6.0;60.0;-1.5014296505745333;-2.508020864832356;0.0244723156928724;-0.9722647088814113;0.0254919955134087;2.923193210907239
53.7546099;86.8575859;2.0;60.0;0.7607677700738082;-2.02625352239482;0.0050983991026817;-0.9982665443050882;-0.0132558376669725;2.16436986919378
53.7546177;86.8575681;3.0;60.0;0.0286821974516738;-1.3895492571859664;-0.061180789232181;-1.0166207810747423;-0.0005098399102681;1.3911911786551123
53.7546414;86.8576174;5.0;60.0;-1.0797474514926484;-0.5820939310795041;0.0662791883348628;-1.0257978994595698;0.0193739165901906;1.2284465126373179
53.7546631;86.8577415;5.0;60.0;3.550447009781767;0.4119265940508434;0.0509839910268175;-1.017640460895279;-0.0632201488732537;3.5746268134583845
53.7546392;86.8578456;4.0;60.0;3.7145863206236274;1.6083264563313788;0.0198837565004588;-1.020699500356888;-0.0662791883348628;4.047871154974204
53.7546139;86.8578971;2.0;60.0;0.587613273223334;3.022919793888371;0.0071377587437544;-0.9941878250229428;-0.0101967982053635;3.079510413483
53.7279546;86.853177;9.0;60.0;-5.5860016136644335;-0.6151863334800439;0.0020393596410727;-1.0217191801774244;0.0999286224125624;5.619775121101379
53.7279042;86.8532034;5.0;60.0;1.147518110462949;-0.4487673849982199;-0.0040787192821454;-0.9926583052921384;-0.0198837565004588;1.232155272532476
53.7278569;86.8532585;8.0;60.0;-1.37996087096454;-0.3572090720712814;0.0091771183848271;-1.0370143774854697;0.0249821556031406;1.4254734462855094
53.7277961;86.8533257;7.0;60.0;-1.3597701302573872;-0.3337958625873179;-0.0438462322830631;-0.9870500662791885;0.023452635872336;1.4008272474170482
53.7277765;86.8534597;7.0;60.0;-0.4991478498550664;-0.3718122244344192;-0.0581217497705719;-0.9931681452024066;0.008667278474559;0.6251168243218221
53.7278001;86.8536113;7.0;60.0;-1.2742516703402151;-0.4645426255006745;-0.0101967982053635;-1.0084633425104517;0.0224329560517997;1.3563263416175066
53.7278124;86.8538028;9.0;60.0;-5.323938261162477;-0.6052715336741736;0.0101967982053635;-0.9737942286122158;0.0907515040277353;5.3582437619839265
53.7277963;86.8539915;10.0;60.0;-4.810872820599709;-0.787283416843006;0.1213418986438258;-0.986030386458652;0.0836137452839808;4.876375327103881
53.727748;86.8541224;8.0;60.0;1.0668774822455884;-1.0038627428952611;-0.0336494340776996;-0.9850107066381156;-0.0183542367696543;1.4652986907486245
53.7277028;86.8542564;9.0;60.0;2.4642872946797696;-1.2482939797190284;-0.092790863668808;-1.01458142143367;-0.0438462322830631;2.7639753752346117
53.7276401;86.8544241;12.0;60.0;-0.1203497216258068;-1.513861595202398;-0.0652595085143265;-0.968695829509534;0.0020393596410727;1.5200394035602136
53.7275223;86.8545111;11.0;60.0;-2.515066611945385;-1.7938500572334588;-0.0774956663607627;-0.9952075048434792;0.0438462322830631;3.090220650481713
53.7274045;86.8544957;11.0;60.0;1.6522707497690374;-2.0815438337003007;0.0061180789232181;-0.954420312022025;-0.0275313551544814;2.657604333426591
53.7273233;86.8543377;15.0;60.0;1.9082178387453508;-2.370227392491057;-0.0316100744366268;-1.009483022330988;-0.0336494340776996;3.0430695701917205
53.7272256;86.8541632;13.0;0.0;-0.364578609630433;-2.718355818821715;-0.0326297542571632;-1.041093096767615;0.0066279188334862;2.742889101145874
53.7271103;86.8539967;15.0;0.0;-0.1717923421656193;-2.9183929952574355;-0.0101967982053635;-1.02018966044662;0.003059039461609;2.9234627171024528
53.7269741;86.8538861;18.0;0.0;-2.3383896142416543;-3.0720431895007816;-0.0560823901294993;-0.9972468644845518;0.040787192821454;3.861173471968594
53.7268198;86.853655;19.0;0.0;-3.700056701934084;-3.1775001539961667;-0.020393596410727;-0.9931681452024064;0.0642398286937901;4.877226950322033
53.7266865;86.8533937;19.0;30.0;-3.80256227784214;-3.367725557952822;-0.1040073416947078;-1.0380340573060058;0.0693382277964719;5.080538636570245
53.7266247;86.8531015;18.0;30.0;-2.8522764028394043;-3.4195422549635346;-0.1040073416947078;-0.9768532680738248;0.0489446313857448;4.454162933571468
53.7266519;86.8527191;19.0;30.0;-1.10565003732872;-3.418080207655886;-0.095849903130417;-1.0257978994595698;0.0198837565004588;3.5937336455202153
53.7268086;86.8524406;19.0;0.0;2.417354816806307;-3.0057487906208853;-0.0428265524625267;-1.0135617416131335;-0.0428265524625267;3.857455666142048
53.7269872;86.8522608;22.0;0.0;1.3778199198520846;-3.041322665163521;-0.0499643112062812;-0.9737942286122158;-0.023452635872336;3.3392405899504856
53.7273873;86.8517905;26.0;30.0;1.084787701186372;-3.430170415589064;-0.095849903130417;-1.0186601407158151;-0.0193739165901906;3.598891584996383
53.7276347;86.8514747;28.0;30.0;1.559365110626696;-3.655304664170168;-0.061180789232181;-1.009483022330988;-0.0275313551544814;3.9744955434765634
53.7278888;86.8512424;28.0;30.0;0.9481194919331364;-3.8518506310579377;-0.0402773529111858;-0.9850107066381156;-0.0163148771285816;3.9670273656886352
53.7281565;86.8509725;29.0;30.0;0.0572464924181205;-3.7289398260502487;-0.0622004690527174;-1.0186601407158151;-0.0010196798205363;3.7298978921075325
53.7284202;86.8507242;29.0;30.0;1.346551462095054;-3.7740645159528152;-0.0050983991026817;-1.041093096767615;-0.0244723156928724;4.00709243770566
53.7286792;86.8504456;27.0;30.0;3.1400654689266583;-3.7972504191486607;-0.037728153359845;-1.0308962985622514;-0.0565922300397675;4.927529331056916
53.7289174;86.850223;26.0;30.0;2.9511861311890573;-3.675408934228405;-0.0183542367696543;-1.0283470990109107;-0.0530233506678902;4.7136469206693885
53.7291895;86.8499063;23.0;30.0;2.0450149340753567;-3.575023438071531;-0.0805547058223717;-0.9962271846640156;-0.0356887937187723;4.119389241620917
53.7294316;86.8497644;28.0;30.0;2.235405175705959;-3.265576316389384;-0.0831039053737126;-0.9498317528296116;-0.0372183134495768;3.9582737698174197
53.7297865;86.8495305;31.0;30.0;1.2933612953150784;-3.08888990396522;-0.0999286224125624;-1.0339553380238604;-0.023452635872336;3.3502253668394664
53.7300963;86.8493539;32.0;30.0;1.567180271049187;-2.852236195886085;-0.0968695829509534;-1.0390537371265425;-0.0285510349750178;3.255869935238449
53.7304189;86.8492925;31.0;30.0;3.150837724222872;-2.695968599873389;-0.0805547058223717;-1.015601101254206;-0.0560823901294993;4.147591363251614
53.7307249;86.8492913;31.0;0.0;4.8509283464223;-2.36921049693645;-0.0672988681553992;-1.0431324564086877;-0.0887121443866625;5.398999290477102
53.7310249;86.8493609;26.0;0.0;3.205654701223635;-2.1981157156323543;-0.0040787192821454;-1.0013255837666972;-0.0560823901294993;3.8868948273317243
53.731259;86.8493902;19.0;0.0;4.092715490895226;-2.1733031954208646;-0.0244723156928724;-0.9972468644845518;-0.0713775874375446;4.6340226329697245
53.7314481;86.8494001;15.0;0.0;7.245898694468355;-1.9194326798262624;-0.0428265524625267;-0.9855205465483838;-0.1254206179259712;7.495939155067834
53.7315965;86.8493693;13.0;0.0;6.319408666765845;-1.689094894585259;-0.0489446313857448;-0.9839910268175792;-0.1091057407973896;6.541434325700347
53.7316993;86.8493441;12.0;0.0;6.470686326951496;-1.524728347851953;-0.0101967982053635;-0.979912307535434;-0.1111451004384623;6.647908095877532
53.7318205;86.8493373;14.0;0.0;5.8541751128661605;-1.11394937276608;0.0112164780258998;-1.0043846232283062;-0.1029876618741715;5.959226062717102
53.7321639;86.8492711;17.0;0.0;4.252026145496276;-0.747570354729302;0.0254919955134087;-1.01458142143367;-0.07545630671969;4.3173183365475
53.7324055;86.8492055;17.0;0.0;5.469315672674772;-0.4023690322173747;0.0193739165901906;-1.011522381972061;-0.0968695829509534;5.484130752826512
53.732564;86.8491336;16.0;0.0;5.5080357462866045;-0.1793386093771365;0.0183542367696543;-1.0043846232283062;-0.0968695829509534;5.510985120392883
53.7327444;86.8490068;13.0;0.0;6.8461199591345325;-0.1336752521248193;-0.0050983991026817;-1.006423982869379;-0.1208320587335576;6.847426783950614
53.7328389;86.8488453;11.0;0.0;7.045134592552834;-0.0585733765932073;-0.0448659121035994;-0.9890894259202612;-0.1223615784643621;7.045520933025394
53.7329125;86.8487397;10.0;0.0;8.068617634424653;-0.1212986623883062;-0.0265116753339451;-0.9778729478943612;-0.1386764555929438;8.069572898547648
53.7330006;86.8485206;11.0;0.0;7.884007241114212;-0.2892267069366178;-0.0367084735393086;-0.986030386458652;-0.1366370959518711;7.889396033789679
53.7331193;86.8481785;12.0;0.0;5.257634258995008;-0.4364430589183504;0.0081574385642908;-0.9972468644845518;-0.0917711838482716;5.275724318881713
53.7331581;86.8479101;13.0;0.0;6.0569916028961;-0.456264629352345;0.0152951973080452;-0.9992862241256244;-0.1060467013357805;6.074171435892519
53.73317;86.8476916;14.0;0.0;6.382119525428135;-0.5603962986925534;-0.0300805547058223;-1.0023452635872336;-0.1121647802589986;6.406746326194816
53.7331755;86.8474155;13.0;0.0;6.356102988662611;-0.7775378569475975;-0.0050983991026817;-1.0023452635872336;-0.1116549403487305;6.403486262587424
53.7331901;86.8472253;12.0;0.0;7.923221870692299;-1.0595003177246705;-0.003059039461609;-0.9890894259202612;-0.1376567757724074;7.993747249769528
53.7332005;86.8469541;11.0;0.0;6.627262310195207;-1.299210581743769;-0.0193739165901906;-1.0003059039461608;-0.116243499541144;6.753438325215752
53.73321;86.8467844;12.0;0.0;7.288154999786926;-1.448819679309335;-0.0336494340776996;-0.9880697460997246;-0.1264402977465075;7.4308420820581915
53.7332209;86.8465649;14.0;0.0;4.468886396896019;-1.4629423329384208;-0.0050983991026817;-1.017640460895279;-0.0795350260018354;4.702251789466298
53.7332357;86.8462981;15.0;0.0;4.837117006371468;-1.4755346312101658;-0.0356887937187723;-1.011522381972061;-0.0856531049250535;5.057289498459198
53.7332527;86.8460079;16.0;0.0;5.518026167880733;-1.4351697155151832;-0.0061180789232181;-0.99214846538187;-0.095849903130417;5.701610503413765
53.7332674;86.8457154;18.0;0.0;4.495647693923508;-1.43407030384428;-0.0520036708473539;-0.9972468644845518;-0.078515346181299;4.719121762153355
53.7332755;86.8452883;18.0;0.0;4.098394142314805;-1.6768611651619718;-0.0428265524625267;-1.009483022330988;-0.0723972672580809;4.428378035645162
53.7332858;86.845017;17.0;0.0;4.054988523058213;-1.8429985444646584;-0.0254919955134087;-0.99214846538187;-0.0703579076170082;4.454236791962
53.7332863;86.8447359;17.0;0.0;4.283662001183644;-2.101730960780205;-0.0438462322830631;-1.006423982869379;-0.07545630671969;4.771682686848756
53.7332942;86.8444622;16.0;0.0;5.665406454707425;-2.1234325701514383;-0.037728153359845;-0.986030386458652;-0.0978892627714897;6.050390036235387
53.733302;86.8441116;15.0;0.0;6.280992620157761;-2.0727060997137348;-0.0387478331803813;-0.9997960640358928;-0.1101254206179259;6.614263395484259
53.7333154;86.843869;14.0;0.0;6.790422801000015;-2.212351961344569;-0.0346691138982359;-1.0013255837666972;-0.1193025390027531;7.141816643170317
53.733322;86.8436196;13.0;0.0;5.874095147014225;-2.104261387004514;-0.037728153359845;-1.0003059039461608;-0.1029876618741715;6.2397382312537895
53.7333215;86.8433375;13.0;0.0;5.198595293742788;-1.9769163290831484;-0.020393596410727;-1.0084633425104517;-0.0917711838482716;5.5618348680174625
53.7332921;86.8424121;18.0;0.0;4.881110043900386;-1.8956433820728416;-0.020393596410727;-0.9788926277148976;-0.0836137452839808;5.236326478690605
53.7332792;86.8421176;20.0;0.0;4.95064490617684;-1.8672803129359297;-0.0387478331803813;-0.9880697460997246;-0.0856531049250535;5.291230683754864
53.7332789;86.8417845;21.0;0.0;4.095398162993471;-1.5974704991747803;-0.0356887937187723;-1.0105027021515245;-0.0723972672580809;4.396074589810905
53.7332886;86.8414102;21.0;0.0;4.657873939130326;-1.4412417169924343;-0.0428265524625267;-1.0003059039461608;-0.0815743856429081;4.875941081804064
53.7333223;86.8410343;21.0;0.0;4.142097008680481;-1.2433549273746722;-0.0499643112062812;-1.012542061792597;-0.0734169470786173;4.324973472420493
53.7333711;86.8406735;20.0;0.0;4.163969256763245;-1.1477083789998668;-0.0142755174875089;-1.0013255837666972;-0.0729071071683491;4.3192682580381
53.7334434;86.8402594;19.0;0.0;3.547089534293426;-0.9948051288280586;-0.020393596410727;-1.0196798205363515;-0.0632201488732537;3.684005606321892
53.7336347;86.8396571;19.0;0.0;3.7326438998226736;-0.7461840933327021;0.003059039461609;-1.0003059039461608;-0.0652595085143265;3.8064984620709614
53.733752;86.8393904;19.0;0.0;3.794258186348766;-0.7055282018962433;-0.014785357397777;-0.9992862241256244;-0.0662791883348628;3.8593242718303618
53.733884;86.839164;19.0;0.0;5.957193355186744;-0.6984606035652176;-0.0122361578464362;-1.006423982869379;-0.1050270215152442;5.998012138148157
53.7340405;86.8389365;18.0;0.0;4.433106814402693;-0.6393863345669338;0.020393596410727;-1.012542061792597;-0.078515346181299;4.479025207733162
53.7342168;86.8383448;18.0;0.0;4.076481340385215;-0.5235025822584005;-0.020393596410727;-1.0013255837666972;-0.0713775874375446;4.11000863392215
53.7342215;86.8379399;21.0;0.0;4.021622667925757;-0.7885867767406156;-0.0132558376669725;-0.9788926277148976;-0.0688283878862037;4.098230557796461
53.7342335;86.8375423;22.0;0.0;0.9022141705392271;-0.9066266038377458;-0.0040787192821454;-1.0359946976649332;-0.0163148771285816;1.2790538863781828
53.7342511;86.8370735;20.0;0.0;4.322505313913035;-1.0586353847875938;0.0071377587437544;-0.9982665443050882;-0.07545630671969;4.450259769309055
53.7342589;86.8366973;19.0;0.0;3.216937953281726;-1.299091630770761;-0.0336494340776996;-0.9972468644845518;-0.0560823901294993;3.4695044523414014
53.7342768;86.836408;17.0;0.0;2.983803729391142;-1.4386466122212975;-0.0295707147955541;-0.9972468644845518;-0.0520036708473539;3.312651988597327
53.7343983;86.8358639;16.0;0.0;4.5782798484528655;-1.603551932445814;-0.0107066381156316;-1.005914142959111;-0.0805547058223717;4.850993692317074
53.734523;86.8356302;19.0;0.0;3.545855440926647;-1.9102689800832349;-0.023452635872336;-0.9870500662791885;-0.061180789232181;4.02774979490369
53.7346586;86.8353562;23.0;0.0;2.949058494336727;-2.099691505563795;-0.0448659121035994;-1.0084633425104517;-0.0520036708473539;3.620450713878763
53.7348194;86.8350562;29.0;0.0;1.9575634189455136;-2.2746793278344626;-0.07545630671969;-1.011522381972061;-0.0346691138982359;3.0019850495788396
53.7350138;86.8346618;34.0;0.0;2.520781241995364;-2.362424809967143;-0.0443560721933312;-1.018150300805547;-0.0448659121035994;3.455047975627025
53.7353681;86.8342481;35.0;0.0;0.9233321864100046;-2.5447532115323064;-0.0397675130009177;-1.011522381972061;-0.0163148771285816;2.7073774559811463
53.7356325;86.8338213;35.0;0.0;1.0824492215771653;-2.719177631733355;-0.0734169470786173;-1.0227388599979603;-0.0193739165901906;2.9276293068505743
53.7359654;86.8335654;35.0;30.0;-0.2986928086185367;-2.751315100902552;-0.1101254206179259;-0.971754868971143;0.0050983991026817;2.7696714221439924
53.7363172;86.8334564;32.0;0.0;1.368068743499812;-2.925188225194041;-0.0122361578464362;-0.9819516671765066;-0.023452635872336;3.229316949962308
53.7366254;86.8333038;34.0;0.0;-0.5707714569768202;-2.9107459137336265;-0.040787192821454;-1.0227388599979603;0.0101967982053635;2.9664600832498484
53.7369901;86.8331565;35.0;0.0;0.7875885374426765;-2.867467726357211;-0.0295707147955541;-1.0380340573060058;-0.0142755174875089;2.9738092227284527
53.7373553;86.8330865;36.0;0.0;0.7424690754406433;-2.8410709303267487;-0.0173345569491179;-1.0227388599979603;-0.0132558376669725;2.9365361986527603
53.7377335;86.8330551;37.0;0.0;0.8767503047006758;-2.839914026899644;-0.0489446313857448;-0.9982665443050882;-0.0152951973080452;2.972574364741035
53.7381263;86.8330383;38.0;0.0;2.432013521889684;-2.7127782894237047;-0.0622004690527174;-1.006423982869379;-0.0428265524625267;3.6438612372829517
53.7386324;86.8330324;38.0;0.0;1.403339328811573;-2.6733234589173067;-0.0372183134495768;-0.9982665443050882;-0.0244723156928724;3.019504063690417
53.7390358;86.8330518;39.0;0.0;-1.5978575598186693;-2.5797211665267974;-0.0428265524625267;-0.986030386458652;0.0275313551544814;3.034788986419299
53.7394441;86.8331273;39.0;0.0;-0.9513866667068366;-2.5788608600815275;-0.0545528703986948;-0.9809319873559702;0.0163148771285816;2.7492973540373398
53.7398148;86.8333444;36.0;0.0;0.8664618531927358;-2.639265701907965;-0.061180789232181;-1.009483022330988;-0.0152951973080452;2.778528869253837
53.7401219;86.8336259;34.0;0.0;2.0707417490679663;-2.545964225040265;-0.0448659121035994;-0.986030386458652;-0.0356887937187723;3.282060050728327
53.7404148;86.83397;35.0;0.0;2.921386607008338;-2.361590513995195;-0.0397675130009177;-0.9982665443050882;-0.0509839910268175;3.756752709254371
53.74069;86.8343732;37.0;0.0;0.649927675315597;-2.3574633208835767;-0.0372183134495768;-0.9880697460997246;-0.0112164780258998;2.4456950945096545
53.7409465;86.8348345;36.0;0.0;1.2664813640507115;-2.3650505864119;-0.0158050372183134;-1.01458142143367;-0.0224329560517997;2.682850931560771
53.7411653;86.8353093;35.0;0.0;-0.0580090150463797;-2.1571531548076;-0.0591414295911083;-1.0054043030488429;0.0010196798205363;2.158743265841752
53.7413436;86.8357948;31.0;30.0;1.438770397254406;-1.969455659210644;-0.0530233506678902;-1.0135617416131333;-0.0254919955134087;2.4395957298963458
53.7415244;86.8363596;26.0;0.0;1.346995024531004;-1.8574997109538895;-0.0173345569491179;-0.9972468644845518;-0.023452635872336;2.294559055498395
53.7417372;86.8367772;25.0;0.0;-0.200826520858593;-1.5204566599718905;-0.0336494340776996;-1.017640460895279;0.0035688793718772;1.5340313004455919
53.7420652;86.8370284;27.0;0.0;0.1171497085821034;-1.393570872165127;-0.0662791883348628;-0.9952075048434792;-0.0020393596410727;1.4000559848714167
53.7424147;86.8371731;29.0;0.0;1.0532832276368056;-1.2762136687477093;-0.0091771183848271;-0.9982665443050882;-0.0183542367696543;1.6547540921301098
53.742715;86.8373198;29.0;0.0;0.3432002544795108;-0.9307599942750576;-0.0183542367696543;-1.021209340267156;-0.0061180789232181;0.9921882178423118
53.7430308;86.8373796;30.0;0.0;0.5706381109210609;-0.8457273768813072;0.0081574385642908;-1.023758539818497;-0.0101967982053635;1.0202691769557795
53.7433603;86.8374531;31.0;0.0;0.4034681976178949;-0.6446430286596261;0.0091771183848271;-1.0135617416131335;-0.0071377587437544;0.7605494332325397
53.7436788;86.8375412;31.0;30.0;-0.6865174716787253;-0.3562826804943705;0.0010196798205363;-0.9360660752523708;0.0112164780258998;0.7734627509371991
53.7439952;86.8376272;29.0;0.0;-2.233215016716953;-0.2873433492214866;-0.0132558376669725;-1.0196798205363515;0.0397675130009177;2.251664102050787
53.7443013;86.8377029;31.0;0.0;-1.8970095210204665;-0.2075990802145631;0.0173345569491179;-0.9850107066381156;0.0326297542571632;1.9084137360155566
53.7446184;86.837764;33.0;0.0;-1.392204722840663;-0.1331070965738537;-0.0326297542571632;-1.006423982869379;0.0244723156928724;1.3989339478049174
53.7449643;86.8378283;33.0;0.0;-0.7219168488142745;0.0084362921578624;-0.0071377587437544;-1.011522381972061;0.0127459977567043;0.7220014232861242
53.7453919;86.8378719;33.0;0.0;-3.115151698540846;-0.1991232957767553;-0.0214132762312633;-1.011522381972061;0.0550627103089629;3.121582726797717
53.7457471;86.8378943;34.0;0.0;-2.6147856638963134;-0.4543022072626893;0.023452635872336;-1.026817579280106;0.0469052717446721;2.654061903907065
53.7460818;86.8379218;33.0;0.0;-1.7786426601380771;-0.5307502366021961;-0.0244723156928724;-1.017640460895279;0.0316100744366268;1.856303967660392
53.7464299;86.8379883;31.0;0.0;-1.007563965919886;-0.7000673105014608;0.0152951973080452;-0.9855205465483838;0.0173345569491179;1.2269936135586241
53.7467355;86.8379867;31.0;0.0;-0.2935110332430481;-1.0853857777549445;0.0081574385642908;-0.9952075048434792;0.0050983991026817;1.1244009769615275
53.74707;86.8380652;32.0;0.0;-1.0619312685407816;-1.314232640766847;-0.0463954318344039;-0.989089425920261;0.0183542367696543;1.6902834050113416
53.7474735;86.8382383;33.0;0.0;-1.5890369352582958;-1.5110927625022486;0.0265116753339451;-1.0288569389211788;0.0285510349750178;2.1929757379940997
53.7478855;86.8384967;32.0;0.0;-2.2627312054374897;-1.4643338064757057;-0.0265116753339451;-1.0319159783827878;0.040787192821454;2.6953532001905125
53.7482494;86.8388094;31.0;0.0;-1.7241626554855964;-1.4841571287938884;-0.0866727847455898;-1.012542061792597;0.0305903946160905;2.2766140246287727
53.7484917;86.8391285;30.0;0.0;-0.9436615966762834;-1.4650479988704828;-0.0275313551544814;-0.9901091057407974;0.0163148771285816;1.7428771682343769
53.748736;86.8394752;31.0;0.0;0.2876951584808457;-1.493526576979893;-0.0397675130009177;-1.01458142143367;-0.0050983991026817;1.5215030711269937
53.7489868;86.839854;31.0;0.0;1.7590873703953709;-1.4039225945666267;-0.0520036708473539;-0.994697664933211;-0.0305903946160905;2.251242192657376
53.7492522;86.8401706;33.0;0.0;-1.402856912370399;-1.433105774326693;-0.0652595085143265;-0.9554399918425616;0.023452635872336;2.006504044462769
53.7495392;86.8404832;32.0;0.0;-0.6416940795290554;-1.57134681982353;-0.0163148771285816;-1.0013255837666972;0.0112164780258998;1.697400452187958
53.7498435;86.8407619;32.0;0.0;-0.3080360082506111;-1.6680560756410965;-0.0040787192821454;-0.948302233098807;0.0050983991026817;1.6962646874273863
53.7501363;86.8410547;33.0;0.0;-1.3343024196863151;-1.6452868990121785;-0.0305903946160905;-1.006423982869379;0.023452635872336;2.1185532090284243
53.7504151;86.8413591;33.0;30.0;-3.770712024953112;-1.626817098935858;-0.0224329560517997;-1.0054043030488429;0.0662791883348628;4.106739130506503
53.7507157;86.8416341;33.0;0.0;-2.8770460311885664;-1.6453716914054357;0.003059039461609;-0.9941878250229428;0.0499643112062812;3.3143100678993047
53.7510111;86.8419551;35.0;0.0;-0.8109436727171725;-1.4489195795533156;0.0127459977567043;-1.0084633425104517;0.0142755174875089;1.6604698277270162
53.7513296;86.842248;35.0;0.0;-2.6311100149998343;-1.4831003847896098;0.003059039461609;-1.020699500356888;0.0469052717446721;3.020320516123735
53.7519663;86.8428079;35.0;0.0;-1.6265783728928953;-1.2771460354333872;-0.0458855919241358;-1.0043846232283062;0.0285510349750178;2.0685658525974815
53.7523027;86.8430931;34.0;0.0;-2.162869205829689;-1.2242120421851324;-0.020393596410727;-0.971754868971143;0.0367084735393086;2.485380096591265
53.7526305;86.8433441;35.0;30.0;-4.803079482288007;-1.3152726196185172;-0.037728153359845;-1.0186601407158151;0.0856531049250535;4.980054014832583
53.7529539;86.8436163;35.0;30.0;-1.0974757528795316;-1.4083047837686538;-0.037728153359845;-0.9839910268175792;0.0188640766799225;1.7858328045200964
53.7532712;86.843908;35.0;30.0;-2.1294088480484743;-1.397470383020253;-0.0458855919241358;-1.041093096767615;0.0387478331803813;2.5474322368047657
53.7538521;86.8446681;35.0;30.0;-2.41951288550954;-1.3582733535273084;-0.0642398286937901;-1.011522381972061;0.0428265524625267;2.775441561560904
53.7541313;86.8451009;36.0;30.0;-0.6097990106642172;-1.3529424776678731;-0.0073926786988885;-1.0059141429591107;0.0107066381156317;1.4840359945040034
53.7544682;86.845617;31.0;0.0;1.6350677748861102;-1.34948800018382;-0.0295707147955541;-1.017640460895279;-0.029060874885286;2.1202450137388986
53.7547826;86.845957;30.0;0.0;2.377958625418667;-1.402438353702308;-0.0112164780258998;-0.9330070357907616;-0.0387478331803813;2.760732940636885
53.7550995;86.8463763;33.0;0.0;2.7454594958790617;-1.5625224122878658;-0.0499643112062812;-0.9768532680738248;-0.0469052717446721;3.1593544538099425
53.7557762;86.8472066;36.0;0.0;1.526697486747021;-1.8497812958656508;0.0101967982053635;-1.0329356582033242;-0.0275313551544814;2.398457844796885
53.7561584;86.8476912;35.0;0.0;2.1522396321321664;-1.9613272004432512;-0.0489446313857448;-1.0298766187417152;-0.0387478331803813;2.9122732355087235
53.7564362;86.848097;34.0;0.0;1.4817166866657607;-2.128999824359799;-0.0316100744366268;-0.9850107066381156;-0.0254919955134087;2.5940554713563286
53.7566935;86.8485079;34.0;0.0;4.071864979577771;-2.170526846232966;-0.0295707147955541;-1.0308962985622514;-0.0734169470786173;4.614341299611834
53.756942;86.84891;31.0;0.0;3.208863121607098;-2.440824391567104;-0.0193739165901906;-0.9819516671765066;-0.0550627103089629;4.031724394390447
53.7571827;86.8492787;29.0;0.0;4.176341944788616;-2.62252310890787;-0.0458855919241358;-1.0043846232283062;-0.0734169470786173;4.931689871038404
53.7575711;86.8499487;28.0;0.0;1.800431554329389;-2.833666581742819;0.0050983991026817;-1.0380340573060058;-0.0326297542571632;3.3572676497390526
53.757778;86.850258;28.0;0.0;2.4731777153145584;-3.3470251294177773;-0.0387478331803813;-1.0380340573060058;-0.0448659121035994;4.16181290101547
53.7580153;86.8506489;31.0;0.0;3.1899596418578837;-3.705212140460869;-0.0764759865402263;-0.9850107066381156;-0.0550627103089629;4.88981473054123
53.7583025;86.8511665;33.0;30.0;3.8310134884941;-4.070344042855846;-0.1254206179259712;-1.0278372591006424;-0.0693382277964719;5.591072822601825
53.7585649;86.8521969;29.0;30.0;3.611520100280339;-4.193358684648949;-0.1040073416947078;-0.9962271846640156;-0.0632201488732537;5.535174073141338
53.7585329;86.8528561;28.0;30.0;2.7343341868369637;-4.227287387628255;-0.0917711838482716;-1.020699500356888;-0.0489446313857448;5.035371292475977
53.7584384;86.8532736;24.0;0.0;2.2913686617084834;-4.14773569423738;-0.0983991026817579;-1.01458142143367;-0.040787192821454;4.739595353668828
53.7583336;86.8535528;18.0;0.0;4.032693786489574;-4.424626950693953;-0.0591414295911083;-0.9962271846640156;-0.0703579076170082;5.986939162635024
53.7582196;86.8537716;17.0;0.0;4.867831567928009;-4.421248277505482;-0.0917711838482716;-1.0135617416131335;-0.0866727847455898;6.576598091357458
53.7581194;86.8540554;15.0;0.0;5.492923704691812;-4.510831221300304;-0.0550627103089629;-0.9952075048434792;-0.095849903130417;7.107942109688948
53.7580426;86.8542602;15.0;0.0;5.374787705562576;-4.420123838746176;-0.095849903130417;-1.00336494340777;-0.0948302233098807;6.959527630065776
53.7579693;86.8544685;14.0;0.0;5.433119290469215;-4.1673155592632805;-0.07545630671969;-0.9941878250229428;-0.0948302233098807;6.847700186863493
53.7578726;86.8547814;16.0;30.0;5.382328149286248;-3.845382155751792;-0.0836137452839808;-1.0084633425104517;-0.0953400632201488;6.615392013235031
53.7577927;86.8550343;17.0;0.0;4.275490136302479;-3.671225333645105;-0.0943203833996125;-1.0048944631385746;-0.0754563067196899;5.636187336377496
53.7576584;86.855412;19.0;0.0;2.3618485087207373;-3.238219235377655;0.0101967982053635;-1.0135617416131335;-0.0418068726419904;4.008053912961982
53.7575704;86.8556824;18.0;0.0;5.450723117727984;-2.856533341290969;-0.0209034363209952;-0.9401447945345162;-0.0897318242071989;6.153909504509409
53.7574737;86.8559697;17.0;30.0;1.5981921895289726;-2.556290830858621;-0.0316100744366268;-1.041093096767615;-0.029060874885286;3.0149361988952865
53.7573504;86.8561792;17.0;0.0;3.1776139045170853;-2.3234497563616983;-0.0356887937187723;-0.954420312022025;-0.0530233506678902;3.9366130857012926
53.75721;86.8562436;13.0;0.0;2.392983486799184;-2.1878942723503068;-0.0795350260018354;-1.0461914958702967;-0.0438462322830631;3.243389760025454
53.7570828;86.8562956;13.0;0.0;3.467698619905843;-2.3492440047874754;-0.0907515040277353;-0.971754868971143;-0.0591414295911083;4.189524668504779
53.7569518;86.856395;13.0;0.0;1.2440103123551092;-2.1320890668757952;-0.0101967982053635;-0.986030386458652;-0.0214132762312633;2.4684953759387107
53.7568184;86.8564408;14.0;0.0;3.825920755717238;-1.6095843042163378;-0.0061180789232181;-0.9758335882532884;-0.0652595085143265;4.150719057259509
53.756672;86.856448;15.0;0.0;3.077448296801386;-1.413851088579726;-0.0020393596410727;-0.948302233098807;-0.0509839910268175;3.386689693366012
53.7565093;86.8565157;16.0;0.0;1.74853047557951;-1.135110135305727;-0.020393596410727;-0.9350463954318344;-0.0285510349750178;2.084766112080359
53.7560892;86.8565564;19.0;30.0;-0.6637557250824201;-1.1872437927274804;-0.0499643112062812;-0.9228102375853982;0.0107066381156316;1.3611083418831653
53.7558994;86.8565714;19.0;30.0;2.142415194532341;-1.1929308067320994;-0.0535331905781584;-0.9661466299581932;-0.0361986336290404;2.4527316563185266
53.7556525;86.8565293;20.0;0.0;0.6282184074682816;-1.562872423252346;-0.020393596410727;-1.0227388599979603;-0.0112164780258998;1.6845309369730221
53.7554365;86.8565437;19.0;0.0;2.019342994276264;-2.145534172323517;-0.0244723156928724;-0.9829713469970428;-0.0346691138982359;2.9464660030918326
53.7552665;86.8565785;15.0;90.0;-0.7446341173872582;-2.4186849046396994;-0.023452635872336;-0.9411644743550523;0.0122361578464362;2.5308233171911496
53.7551417;86.8567353;12.0;90.0;-0.6626920935371788;-2.9072253522236635;-0.0316100744366268;-1.0574079738961966;0.0122361578464362;2.9819656698651955
53.7550371;86.8568611;9.0;90.0;1.1639839811873949;-3.355645873468;-0.0642398286937901;-0.951361272560416;-0.0193739165901906;3.5523716996077823
53.7549773;86.8569805;9.0;90.0;-3.0615434590486585;-3.989727042963133;-0.0438462322830631;-1.009483022330988;0.0540430304884266;5.029203984835014
53.7549296;86.857112;9.0;90.0;1.040224301710599;-4.597706533084456;0.0693382277964719;-1.0084633425104517;-0.0183542367696543;4.714422525831848
53.7549286;86.8572646;9.0;90.0;2.396917999194038;-5.152461381420355;-0.0550627103089629;-0.9972468644845518;-0.0418068726419904;5.682966310295625
53.75492;86.8574864;14.0;90.0;0.241187714157173;-5.626868625559281;-0.1417354950545528;-0.9584990313041704;-0.0040787192821454;5.633818509086187
53.7548827;86.8577051;14.0;90.0;-1.782300824416841;-5.99380530308968;-0.1284796573875803;-1.0737228510247785;0.0336494340776996;6.254502798978137
53.7548033;86.8578561;12.0;90.0;0.8014058356004702;-6.226148451600005;-0.1488732537983073;-0.9727745487916796;-0.0137656775772407;6.279278549355182
53.7546744;86.8579064;12.0;90.0;-0.1736974038376717;-6.296775108678701;-0.1325583766697257;-1.0003059039461608;0.003059039461609;6.300564996934873
53.7545632;86.8578208;11.0;90.0;-0.4074516816449559;-6.178562311914208;-0.1764046089527888;-0.9880697460997246;0.0071377587437544;6.194494951256456
53.7544977;86.8576529;8.0;90.0;0.4657302090766699;-5.844387098894996;-0.1121647802589986;-0.9972468644845518;-0.0081574385642908;5.863987220936572
53.7544967;86.8575495;1.0;90.0;-0.8765186390990082;-5.267126507209504;-0.0836137452839808;-0.9962271846640156;0.0152951973080452;5.340215147916551
53.7545092;86.857562;3.0;0.0;1.1071069385443146;-4.419657574446183;-0.0805547058223717;-0.9992862241256244;-0.0193739165901906;4.55692307476905
53.754544;86.8575968;4.0;0.0;1.924166657313788;-3.274857338193472;-0.023452635872336;-1.0013255837666972;-0.0336494340776996;3.798375697158867
53.7545634;86.8576674;3.0;0.0;3.4623815363044783;-1.805602836039832;-0.0173345569491179;-0.9941878250229428;-0.0601611094116447;3.9049440445826966
53.7280977;86.8531409;6.0;0.0;-1.991059300487404;-0.0639837210173454;0.0040787192821454;-0.9972468644845518;0.0346691138982359;1.9920912857004316
53.7280175;86.8531887;9.0;0.0;1.6955132893683005;-0.1503416014695835;-0.037728153359845;-0.9982665443050882;-0.0295707147955541;1.7025837204416403
53.7279294;86.8532286;8.0;0.0;1.159422312815655;-0.2985529154832639;0.0499643112062812;-1.006423982869379;-0.020393596410727;1.198286432866816
53.7278426;86.8533466;6.0;60.0;1.6527016138192372;-0.4998387483981704;-0.0295707147955541;-0.9890894259202612;-0.0285510349750178;1.7268861647180107
53.7277796;86.8535396;10.0;60.0;-1.6096374483004676;-0.7454201855540867;-0.0540430304884266;-1.01458142143367;0.0285510349750178;1.7746843711339497
53.7277718;86.8536854;12.0;60.0;-4.305639120062445;-1.0265183122907966;-0.0025491995513408;-1.0563882940756602;0.0795350260018354;4.426316140550605
53.7277553;86.8539761;12.0;60.0;-0.6246184161020834;-1.3343542139480835;0.0453757520138676;-1.0278372591006424;0.0112164780258998;1.4740109541267687
53.7277244;86.85415;10.0;60.0;0.7493177981217863;-1.6601489758657322;-0.0448659121035994;-1.012542061792597;-0.0132558376669725;1.8219727590496542
53.7275615;86.8544735;12.0;60.0;-2.2877930208829804;-1.9951236833835255;-0.0805547058223717;-0.99214846538187;0.0397675130009177;3.036610689408316
53.7274393;86.8544537;11.0;60.0;1.2917285857060978;-2.330499421841248;-0.0367084735393086;-0.9941878250229428;-0.0224329560517997;2.664796015901077
53.7273286;86.854343;14.0;0.0;2.386287428305426;-2.6574972765786824;-0.0423167125522585;-1.026817579280106;-0.0428265524625267;3.571897278712375
53.7270952;86.8539304;17.0;30.0;-0.714624490536518;-2.967338332935613;0.0112164780258998;-0.9809319873559702;0.0122361578464362;3.0521976924771743
53.7269367;86.8536951;17.0;30.0;-1.9224869700390024;-3.2512436762518235;-0.0917711838482716;-0.9982665443050882;0.0336494340776996;3.7782222727788435
53.7268137;86.8534441;19.0;30.0;-3.755255168937924;-3.5004343918671648;-0.1294993372081166;-1.0171306209850108;0.0672988681553992;5.135343454330858
53.7267258;86.8531514;19.0;30.0;-3.182024335965714;-3.502666202511233;-0.0254919955134087;-1.0084633425104517;0.0560823901294993;4.732293232960925
53.7266896;86.8528848;16.0;30.0;-3.643622288666379;-3.604396219542644;-0.0652595085143265;-1.0227388599979603;0.0652595085143265;5.125613552870647
53.7267452;86.8525308;17.0;30.0;0.6845758537325144;-3.2599443841058173;-0.1050270215152442;-1.0186601407158151;-0.0122361578464362;3.332703431483969
53.7269126;86.8522886;18.0;0.0;1.100857447359655;-3.106878027547377;-0.0601611094116447;-1.006423982869379;-0.0193739165901906;3.296694944417747
53.7271108;86.8520772;20.0;0.0;2.367554419568813;-3.2341523543770063;-0.0305903946160905;-0.986030386458652;-0.040787192821454;4.008240406111505
53.7273223;86.8518791;24.0;0.0;-0.0289624774988457;-3.37535423193191;-0.0662791883348628;-1.006423982869379;0.0005098399102681;3.3761291365896913
53.7275511;86.8516471;25.0;0.0;1.191813153760854;-3.172542747996885;-0.0846334251045171;-1.0257978994595698;-0.0214132762312633;3.3900750578696544
53.7277817;86.8514169;26.0;0.0;3.5115136678945107;-3.1126823729911;-0.0489446313857448;-0.9126134393800348;-0.0560823901294993;4.692751364805187
53.7280172;86.8511916;28.0;0.0;0.0568456762398186;-3.1639824081564845;-0.0438462322830631;-1.026817579280106;-0.0010196798205363;3.1647967710607086
53.7282637;86.8509261;29.0;30.0;1.0470801521737003;-3.064832877088908;-0.0346691138982359;-1.0594473335372694;-0.0193739165901906;3.238947260611025
53.7285269;86.8507029;26.0;0.0;-0.0555614741526042;-2.870155239099907;-0.0214132762312633;-1.0512898949729783;0.0010196798205363;2.8707728406026156
53.7289671;86.8502727;25.0;0.0;3.35220747229249;-2.514478393444767;-0.020393596410727;-1.009483022330988;-0.0591414295911083;4.190502646123582
53.7291857;86.8500817;22.0;0.0;2.5097654182754763;-2.4601297884709754;0.0071377587437544;-1.0003059039461608;-0.0438462322830631;3.5144291113200175
53.7294756;86.8499108;26.0;0.0;2.646239929695457;-2.454574592455376;-0.0438462322830631;-1.0359946976649332;-0.0479249515652085;3.609632209453965
53.7297359;86.8496847;28.0;30.0;2.491889798994986;-2.1052480153603383;-0.0469052717446721;-1.006423982869379;-0.0438462322830631;3.2624812767326894
53.7300389;86.8494245;26.0;30.0;1.2616606025330714;-1.867686258277605;-0.0968695829509534;-1.0604670133578056;-0.023452635872336;2.2559749890998804
53.7303038;86.8492798;27.0;30.0;2.619990907132806;-1.822318705736775;-0.1142041399000713;-1.0186601407158151;-0.0469052717446721;3.193468397261362
53.7305858;86.849229;28.0;0.0;3.791907727986076;-1.520756463355607;-0.0591414295911083;-0.9982665443050882;-0.0662791883348628;4.0859224352760855
53.7308602;86.849273;27.0;30.0;3.4034115382214174;-1.1746535941315517;0.0132558376669725;-1.011522381972061;-0.0601611094116447;3.600443984002126
53.7311066;86.8493146;22.0;0.0;5.205113310357006;-1.04201129209892;-0.0020393596410727;-0.9850107066381156;-0.0897318242071989;5.308389234551765
