lat;lon;vel;class;acc_X;acc_Y;acc_Z;fb_tilt;tilt;acc
53.7290006;86.844367;6.0;30.0;-3.470651906157856;-6.768616330735606;-0.040787192821454;-1.0247782196390334;0.0622004690527174;7.606658614760896
53.7290761;86.8443657;9.0;30.0;2.905956879916357;-5.801966365074731;-0.1009483022330988;-0.9992862241256244;-0.0509839910268175;6.489806595663343
53.7291737;86.8443609;9.0;0.0;7.134396671524175;-4.919955722117107;-0.1458142143366982;-0.9666564698684612;-0.1223615784643621;8.667574168090557
53.7292577;86.8443169;7.0;0.0;7.352777472603877;-4.118143235241748;-0.1029876618741715;-0.9982665443050882;-0.1294993372081166;8.42811050746825
53.7293505;86.8443073;8.0;0.0;7.518743323191384;-3.3920877378276666;-0.0897318242071989;-0.9809319873559702;-0.1300091771183848;8.248988555055183
53.7294496;86.8442784;10.0;0.0;7.2439892372053665;-2.7373480632538785;-0.0367084735393086;-0.986030386458652;-0.1254206179259712;7.74401717457913
53.7295538;86.8443058;13.0;0.0;4.262892169167023;-2.149483044899396;-0.0675537881105332;-1.023758539818497;-0.0764759865402263;4.774629883094981
53.7297264;86.8444016;14.0;0.0;5.636160771187902;-1.6240515161432345;-0.0622004690527174;-1.0003059039461608;-0.0989089425920261;5.8658094466249855
53.729851;86.8445262;14.0;0.0;6.466903886560536;-1.156612310364407;-0.0132558376669725;-1.0074436626899157;-0.1142041399000713;6.569533745383345
53.7299641;86.8447161;16.0;0.0;4.781568095311586;-0.7427242609419284;0.0244723156928724;-0.9992862241256244;-0.0836137452839808;4.838970104488017
53.7301078;86.8449366;14.0;0.0;5.777862267143676;-0.3779462012548116;0.0183542367696543;-1.017640460895279;-0.1029876618741715;5.790239423990427
53.7301984;86.8451552;11.0;0.0;8.200203648207054;-0.0578369646820702;0.0040787192821454;-0.9906189456510656;-0.1427551748750892;8.200408625337088
53.7302601;86.8452937;10.0;30.0;8.769977296169051;0.2220446153972801;0.040787192821454;-0.9839910268175792;-0.1519322932599164;8.77288260389057
53.7303105;86.8454465;9.0;30.0;9.244830673616171;0.4661397056042393;0.0336494340776996;-0.9829713469970428;-0.1600897318242072;9.256636143512878
53.7303631;86.8456015;10.0;30.0;7.076519775532119;0.9995338922214264;0.037728153359845;-0.9931681452024064;-0.1233812582848985;7.146861097625475
53.730417;86.8457578;11.0;30.0;9.073311824932391;1.2579866434692786;0.0489446313857448;-0.9788926277148974;-0.1565208524523298;9.16023544700389
53.7304736;86.8459936;14.0;30.0;4.258914745228893;1.2689444297416987;0.023452635872336;-0.9992862241256244;-0.0744366268991536;4.443998739764665
53.7305263;86.8462255;22.0;30.0;2.921778142201608;1.4707363537459597;-0.0101967982053635;-0.9788926277148976;-0.0499643112062812;3.271078860127142
53.7306085;86.8465893;25.0;0.0;3.1687153267135364;1.5544721467188372;-0.029060874885286;-0.9941878250229428;-0.0550627103089629;3.5295870879074567
53.7307172;86.8470052;28.0;0.0;3.2373239184960507;1.7341875999268792;-0.0112164780258998;-1.009483022330988;-0.0571020699500356;3.672573837839898
53.7308415;86.8474879;29.0;30.0;1.3584961075964133;1.7882540177852844;0.0081574385642908;-1.0319159783827878;-0.0244723156928724;2.245758368632687
53.730951;86.8479558;27.0;0.0;0.7822995102155172;1.823723954657805;-0.0112164780258998;-0.9707351891506067;-0.0132558376669725;1.9844614876221325
53.7310688;86.8484064;23.0;30.0;1.8038475576771;1.8507640309529148;0.092790863668808;-1.0319159783827878;-0.0326297542571632;2.5860788182085876
53.7311779;86.8487459;19.0;30.0;4.490697401223241;1.8732255980661456;0.058121749770572;-0.9850107066381156;-0.0774956663607627;4.866078033529655
53.7313046;86.8489494;12.0;30.0;6.867959361990537;1.8222027008968944;-0.0132558376669725;-0.9819516671765066;-0.1182828591822167;7.105593866689937
53.7314229;86.8490933;10.0;30.0;7.454803544019363;1.6619209115500375;0.0622004690527174;-0.979912307535434;-0.1284796573875803;7.6380590397378665
53.7315077;86.8491781;10.0;30.0;7.223062537578775;1.6231227637847554;0.0550627103089629;-0.9880697460997246;-0.1254206179259712;7.40339056312422
53.7317525;86.8493461;11.0;30.0;6.300330655367188;1.5702254369256765;0.037728153359845;-0.996737024574284;-0.1101254206179259;6.493165460950761
53.7319154;86.8493554;14.0;30.0;5.938085083202183;1.5334320238670989;0.058121749770572;-0.9982665443050882;-0.1040073416947078;6.13315957439278
53.7320834;86.8493442;17.0;0.0;4.615034217269312;1.592441803681817;0.061180789232181;-0.9707351891506067;-0.078515346181299;4.882433288192584
53.7324625;86.8491601;15.0;0.0;3.996036578098924;1.5197280400509716;0.011981237891302;-0.9997960640358926;-0.06984806770674;4.275280715845819
53.7326493;86.8490141;12.0;0.0;5.256546246576854;1.2952648502699875;0.0219231161415315;-0.9972468644845518;-0.0917711838482716;5.413822133924193
53.7327601;86.8489201;10.0;0.0;6.222766563808231;0.969880153031969;0.0173345569491179;-0.9911287855613338;-0.1080860609768532;6.297919633161386
53.7328319;86.8487871;9.0;0.0;7.400351050529117;0.6812510150503959;-0.0020393596410727;-0.9656367900479248;-0.1254206179259712;7.431641997268325
53.7328834;86.8486594;10.0;0.0;7.300276932565273;0.4410319758083968;-0.0387478331803813;-0.9941878250229428;-0.1274599775670439;7.313689485506359
53.7329597;86.8485309;10.0;0.0;7.483448636278831;0.0010454255762845;-0.0295707147955541;-0.9931681452024064;-0.1305190170286529;7.483507133150315
53.7330112;86.848352;11.0;0.0;7.174641218817371;-0.0617295647337002;-0.011726317936168;-1.0043846232283062;-0.1264402977465075;7.1749163524355986
53.7330499;86.8481091;12.0;0.0;6.808102053009434;-0.2667324909392829;-0.0050983991026817;-0.9992862241256244;-0.1193025390027531;6.813327071232333
53.733086;86.8478892;13.0;0.0;4.5460050273933845;-0.5700798823185421;0.0050983991026817;-1.0003059039461608;-0.0795350260018354;4.58161311930456
53.7331385;86.8474297;11.0;0.0;7.6944941566113245;-0.6818686127100291;-0.0005098399102681;-0.9962271846640156;-0.1345977363107984;7.724647913727956
53.7331451;86.8472571;10.0;0.0;6.4166076436963335;-0.7461246283138776;-0.003059039461609;-1.006423982869379;-0.113184460079535;6.459842488160309
53.7331498;86.847057;10.0;0.0;7.428831177405586;-0.8266461290458927;-0.0040787192821454;-0.9931681452024064;-0.1294993372081166;7.4746834796538915
53.7331501;86.8468525;11.0;0.0;6.338724588931446;-0.7967339552989137;-0.0214132762312633;-0.9911287855613338;-0.1101254206179259;6.388636234616065
53.7331676;86.8466908;13.0;0.0;4.969610906178002;-0.7159972694172124;-0.0071377587437544;-0.9850107066381156;-0.0856531049250535;5.02092975416069
53.7331825;86.8464241;15.0;0.0;5.884195602622151;-0.7359544098399029;-0.0010196798205363;-0.9992862241256244;-0.1029876618741715;5.930041131647199
53.7331934;86.8461534;16.0;0.0;4.110290979364568;-0.6387647559831634;-0.0050983991026817;-1.0074436626899157;-0.0723972672580809;4.1596319960070245
53.7331797;86.8458069;17.0;0.0;4.235631593939798;-0.4955895729884606;-0.0193739165901906;-1.0186601407158151;-0.07545630671969;4.264570244828889
53.7332047;86.8454991;18.0;0.0;4.175368622712068;-0.4122732763051194;-0.0336494340776996;-0.9911287855613338;-0.0723972672580809;4.195807988254179
53.7332139;86.8451755;17.0;0.0;4.032207096778878;-0.5312349045231729;-0.0071377587437544;-1.012542061792597;-0.0713775874375446;4.067057356701228
53.7332341;86.8448629;17.0;0.0;3.5215509081328364;-0.5719160407293383;-0.0214132762312633;-1.0105027021515245;-0.0622004690527174;3.567753815023352
53.7332369;86.8446097;15.0;0.0;5.459299227014835;-0.7087487692635105;0.0132558376669725;-0.99214846538187;-0.0948302233098807;5.505129297777625
53.733254;86.8443196;14.0;0.0;5.533264949697153;-0.8267409330921355;-0.0254919955134087;-0.9890894259202612;-0.095849903130417;5.594744982198236
53.7332559;86.8440911;13.0;0.0;4.720469697271853;-0.9226975135070464;-0.0091771183848271;-1.012542061792597;-0.0836137452839808;4.809811751388588
53.7332614;86.8438406;12.0;0.0;4.994288737483823;-1.0150407136750033;-0.0152951973080452;-1.00336494340777;-0.0876924645661262;5.096416543693845
53.7332675;86.8436163;12.0;0.0;6.7504466362593885;-1.0911659581545192;-0.0152951973080452;-0.9819516671765066;-0.116243499541144;6.838085030202656
53.7332724;86.843442;12.0;0.0;6.120989869366919;-1.1306173495419751;-0.0152951973080452;-0.9982665443050882;-0.1070663811563169;6.2245519127916715
53.7332794;86.8432186;13.0;0.0;5.405296055189725;-1.2056762478609766;-0.003059039461609;-1.023758539818497;-0.0968695829509534;5.5381305525085045
53.7332746;86.8429066;14.0;0.0;5.595921957383609;-1.2382237940788043;-0.0040787192821454;-1.009483022330988;-0.0989089425920261;5.731278858448776
53.7332746;86.8425994;17.0;0.0;5.224955466575382;-1.2269857411360636;-0.0224329560517997;-0.99214846538187;-0.0907515040277353;5.3671367482266
53.7332809;86.8423241;18.0;0.0;3.292916053324939;-1.217166617005272;-0.037728153359845;-1.009483022330988;-0.058121749770572;3.510870849426549
53.7332944;86.8420304;19.0;0.0;3.5372538098302893;-1.119684433592087;-0.040787192821454;-1.0054043030488429;-0.0622004690527174;3.7104610685311847
53.7332829;86.8416605;20.0;0.0;4.142247757549174;-1.0215430156727852;-0.023452635872336;-1.006423982869379;-0.0729071071683491;4.266417307756049
53.7332945;86.8413649;20.0;0.0;3.758232837245648;-0.8707572678439828;-0.0560823901294993;-1.0074436626899157;-0.0662791883348628;3.858196147545797
53.7333065;86.8409929;19.0;0.0;3.790179275232993;-0.8293962885883036;-0.0183542367696543;-1.0003059039461608;-0.0662791883348628;3.879909022121156
53.7333492;86.8406516;18.0;0.0;3.4448233103920893;-0.6299328345775832;-0.0163148771285816;-0.9992862241256244;-0.0601611094116447;3.5019836080592075
53.7333883;86.8403579;18.0;0.0;4.605942438587572;-0.578580477257563;-0.0061180789232181;-1.012542061792597;-0.0815743856429081;4.642143744773026
53.7334637;86.8400493;18.0;0.0;4.849834052386627;-0.6925318321359835;-0.0020393596410727;-1.009483022330988;-0.0856531049250535;4.89902998900785
53.733536;86.8397632;17.0;0.0;4.403142228395155;-0.911514308812008;0.0010196798205363;-1.006423982869379;-0.0774956663607627;4.496500957232482
53.7336387;86.8395331;17.0;0.0;3.945181678194509;-0.9592122058598586;-0.0015295197308045;-1.0054043030488429;-0.0693382277964719;4.060116854138903
53.733775;86.8392342;17.0;0.0;4.539579982442221;-0.8235880215511456;-0.0020393596410727;-1.01458142143367;-0.0805547058223717;4.613684840257339
53.7339098;86.838985;18.0;0.0;4.749168207492192;-0.6280465872445334;0.0050983991026817;-1.006423982869379;-0.0836137452839808;4.790518465936388
53.7340133;86.8387301;17.0;0.0;4.536663765765434;-0.6005373209862417;0.0091771183848271;-1.0023452635872336;-0.0795350260018354;4.576248181317114
53.734107;86.8385166;16.0;0.0;3.6464314446254855;-0.6462714542801307;0.0193739165901906;-0.9758335882532884;-0.0622004690527174;3.7033099278368407
53.7341712;86.8381968;19.0;0.0;3.018644715893142;-0.7903147374397566;-0.0152951973080452;-0.986030386458652;-0.0520036708473539;3.1204242096331636
53.7341907;86.8378579;23.0;0.0;2.779025597935428;-0.8911020957405769;-0.0418068726419904;-1.0074436626899157;-0.0489446313857448;2.9186973179166276
53.734169;86.8374778;26.0;0.0;3.1645438045350014;-0.9467169761138764;-0.0479249515652085;-1.0686244519220964;-0.0591414295911083;3.303468983457479
53.7341821;86.8370301;26.0;0.0;3.1588772124553417;-0.9478261127556722;-0.0346691138982359;-1.015601101254206;-0.0560823901294993;3.2981936769767852
53.7341939;86.8365555;26.0;0.0;3.01122099126128;-0.8928146859003511;-0.0550627103089629;-0.9870500662791885;-0.0520036708473539;3.1412739173205635
53.7342564;86.836106;25.0;0.0;3.2814347601981586;-0.9619115608207632;-0.0591414295911083;-0.9941878250229428;-0.0571020699500356;3.4200271409700047
53.7343948;86.8357324;23.0;0.0;1.0972447749783296;-0.7321519612198767;0.0061180789232181;-1.011522381972061;-0.0193739165901906;1.319101975370012
53.7345577;86.8353065;20.0;30.0;-0.6731288961061215;-0.5565059440835916;0.0540430304884266;-1.0400734169470789;0.0122361578464362;0.8750554415108726
53.7345613;86.8349517;19.0;30.0;3.905132105611668;-0.4516087141581065;0.0173345569491179;-1.015601101254206;-0.0693382277964719;3.9311967236259213
53.7343058;86.8343378;25.0;0.0;4.716615648878046;-0.4377894510756726;-0.0387478331803813;-1.0003059039461608;-0.0825940654634444;4.737048044646643
53.7341297;86.8340337;27.0;0.0;3.3581392697533405;-0.3087525970134922;-0.0545528703986948;-1.006423982869379;-0.0591414295911083;3.372744214566354
53.7339304;86.8336808;28.0;0.0;3.034239154499576;-0.21313666935878;-0.0020393596410727;-1.0003059039461608;-0.0530233506678902;3.041716397942353
53.7337346;86.8332802;28.0;0.0;2.232590586007541;-0.0554189048649579;0.0112164780258998;-0.9676761496889976;-0.037728153359845;2.233306470040606
53.7335016;86.8329704;29.0;0.0;3.45349685898682;0.09282956162493;0.0367084735393086;-0.9962271846640156;-0.0601611094116447;3.4549392750919505
53.7332322;86.8327266;31.0;30.0;3.239585435201976;0.1569064192588888;0.0275313551544814;-1.0084633425104517;-0.0571020699500356;3.2434998677191382
53.7329116;86.8326108;32.0;0.0;1.6148608037342815;0.1566059048855004;0.037728153359845;-0.9758335882532884;-0.0275313551544814;1.6228752997190758
53.7324917;86.8325237;33.0;0.0;2.6076696334736047;0.1140660689751608;-0.0142755174875089;-0.9850107066381156;-0.0448659121035994;2.6102022480703186
53.7321642;86.8325034;32.0;0.0;2.565925699282856;0.1323912383682964;-0.0071377587437544;-0.9783827878046292;-0.0438462322830631;2.5693487660955623
53.7317396;86.8324628;34.0;0.0;2.232702827602304;-0.189876244993797;0.0367084735393086;-0.9931681452024064;-0.0387478331803813;2.2410627873457396
53.7313903;86.8324719;34.0;0.0;3.022211360266902;-0.546788998457366;-0.0458855919241358;-0.945243193637198;-0.0499643112062812;3.0716193127577767
53.7310151;86.8324295;33.0;0.0;3.516592309487652;-0.6511394999331862;-0.0397675130009177;-0.9615580707657796;-0.0591414295911083;3.576588538623253
53.7306707;86.8323411;35.0;0.0;1.9920680789845395;-0.5241671702013925;-0.023452635872336;-1.0257978994595698;-0.0356887937187723;2.0600088542905466
53.7303157;86.8322677;36.0;0.0;1.2414898666806191;-0.4945221251685885;0.0056082390129499;-0.9880697460997246;-0.0214132762312633;1.3363684647943264
53.7299392;86.8321472;36.0;0.0;2.758595945073409;-0.7764415470467734;-0.0295707147955541;-0.9941878250229428;-0.0479249515652085;2.8659357095596825
53.7295654;86.832055;37.0;30.0;0.1710173627992118;-0.956272519409606;-0.0132558376669725;-1.0247782196390334;-0.003059039461609;0.9715347585079217
53.7292047;86.8319503;35.0;30.0;-0.7574374253147115;-0.8902041689653468;-0.0254919955134087;-1.0023452635872336;0.0132558376669725;1.1691128078786575
53.7288279;86.8318807;35.0;30.0;-1.633455564387976;-1.0937647096568857;-0.0040787192821454;-1.072703171204242;0.0305903946160905;1.9658369609079578
53.7284695;86.8317527;35.0;30.0;-0.2369997387454299;-1.1285188040632463;-0.0050983991026817;-0.986030386458652;0.0040787192821454;1.1531476752624323
53.7281163;86.8316555;36.0;30.0;-1.401241751796618;-1.0056288117238257;-0.0173345569491179;-1.0003059039461608;0.0244723156928724;1.7248386129756461
53.7277391;86.8315343;37.0;30.0;0.0599796456216378;-0.8374063273737806;-0.0224329560517997;-0.9737942286122158;-0.0010196798205363;0.8398512681015387
53.7273615;86.8313359;38.0;30.0;0.46141924246019;-0.7911848079277979;-0.0530233506678902;-1.011522381972061;-0.0081574385642907;0.9174380596663363
53.7268858;86.8310906;38.0;30.0;-2.253372511833577;-0.6891380820985299;0.0163148771285816;-1.0105027021515245;0.0397675130009177;2.3564518133204686
53.726528;86.8308352;36.0;0.0;-0.4648238808646183;-0.2361948981701292;0.0132558376669725;-1.0054043030488429;0.0081574385642908;0.5215601474191598
53.7261933;86.8306029;35.0;0.0;-0.6434117679283767;-0.246276962146807;-0.0040787192821454;-0.9987763842153564;0.0112164780258998;0.6889467912284385
53.7258387;86.8303763;36.0;0.0;-0.617148208682981;-0.1247853504681412;-0.020393596410727;-1.041093096767615;0.0112164780258998;0.629967613410906
53.7254833;86.8301745;36.0;30.0;-2.279618247670728;-0.1661129456203168;-0.0122361578464362;-1.0757622106658509;0.0428265524625267;2.285695209203288
53.7251382;86.829983;34.0;30.0;-0.8436563393301503;-0.1574881364712898;0.0372183134495768;-1.00336494340777;0.014785357397777;0.8590365154504086
53.7247769;86.8299289;36.0;0.0;-0.2730743617578868;-0.2537077257204321;-0.0183542367696543;-0.962577750586316;0.0045885591924135;0.37319444683315933
53.7244045;86.8299917;38.0;0.0;2.1868428771792585;-0.2475819462161014;-0.0662791883348628;-1.012542061792597;-0.0387478331803813;2.2018109638132284
53.7236116;86.8301716;37.0;0.0;0.9782898363590404;-0.2569673524856867;0.0336494340776996;-1.01458142143367;-0.0173345569491179;1.0120353297097144
53.7232495;86.8301935;36.0;30.0;0.9638098166328096;-0.1651350257491824;0.0326297542571632;-1.0298766187417152;-0.0173345569491179;0.9783985078841015
53.722901;86.8302802;33.0;30.0;1.2730137897389175;-0.2359849801869933;-0.0050983991026817;-1.009483022330988;-0.0224329560517997;1.2947119422530662
53.7225613;86.8302989;32.0;30.0;2.621321643114243;-0.3748635043387958;0.0112164780258998;-0.979912307535434;-0.0448659121035994;2.648013522043198
53.7222278;86.8303494;31.0;0.0;3.025056431535367;-0.3942482965792915;0.0112164780258998;-0.9839910268175792;-0.0520036708473539;3.0506595914176446
53.7219008;86.8303808;30.0;0.0;3.090658472973735;-0.3781547863881359;0.0061180789232181;-0.9442235138166616;-0.0509839910268175;3.1137129395501937
53.7215871;86.8303743;30.0;0.0;2.9864891889554053;-0.3128416526542042;-0.0560823901294993;-0.9952075048434792;-0.0520036708473539;3.0033535938789435
53.7212568;86.8302744;30.0;0.0;2.63900792755032;-0.1822737163053133;-0.003059039461609;-1.017640460895279;-0.0469052717446721;2.6452969411866816
53.7209648;86.8300592;29.0;0.0;1.0548301820302797;-0.0383690459261992;-0.0571020699500356;-0.9952075048434792;-0.0183542367696543;1.0570712099948132
53.7207244;86.8298188;29.0;0.0;4.254298580521719;0.0684846567121954;-0.0040787192821454;-0.9595187111247068;-0.0713775874375446;4.254851724371259
53.7204799;86.8295231;27.0;30.0;3.5031750864873485;0.1195196999823153;0.0142755174875089;-0.9992862241256244;-0.061180789232181;3.5052424218117983
53.7202291;86.8293235;25.0;0.0;2.9777834554823883;0.2294662507857976;0.0193739165901906;-0.979912307535434;-0.0509839910268175;2.9866744745014255
53.7199769;86.8291993;27.0;0.0;2.2604452363436134;0.2998354741735065;0.0071377587437544;-1.0074436626899157;-0.0397675130009177;2.280255451847724
53.7196985;86.8291257;29.0;0.0;2.749036921324618;0.306376599375586;-0.0020393596410727;-0.9768532680738248;-0.0469052717446721;2.7660576231233196
53.7193893;86.8291493;29.0;30.0;3.393950781809852;0.5757475414626443;-0.0163148771285816;-0.979912307535434;-0.058121749770572;3.442477787301424
53.7190652;86.8291836;27.0;30.0;2.495558214780583;0.9427194101695286;0.037728153359845;-0.9584990313041704;-0.0418068726419904;2.6679494191654345
53.7187968;86.8291712;25.0;30.0;3.4045289080057657;1.1840376020247771;0.0652595085143265;-0.974813908432752;-0.058121749770572;3.605138129379656
53.7184693;86.8291765;26.0;30.0;2.084256804575864;1.3259505056558063;0.037728153359845;-1.0359946976649332;-0.037728153359845;2.470565640582258
53.7181311;86.8291967;26.0;30.0;-3.335725971233289;1.4533203206381786;-0.014785357397777;-1.01458142143367;0.0591414295911083;3.6386022476128805
53.7178778;86.829225;25.0;30.0;-2.620468391650775;1.5085514746422712;0.0346691138982359;-1.024268379728765;0.0469052717446721;3.0238690597882476
53.7175617;86.8292673;23.0;30.0;-1.6344208884590554;1.2608002938967342;0.0244723156928724;-1.0003059039461608;0.0285510349750178;2.064351693863415
53.7173037;86.8293421;23.0;30.0;-0.6993819316973039;1.1915359583717784;0.0081574385642908;-1.0023452635872336;0.0122361578464362;1.381651030572313
53.717062;86.8294076;24.0;30.0;-2.126408604755868;0.9507117482037714;-0.0020393596410727;-1.0161109411644742;0.037728153359845;2.3292639484481388
53.7168051;86.8294835;26.0;30.0;-3.3147644677548027;0.6472540849301676;0.0173345569491179;-1.00336494340777;0.058121749770572;3.3774105190238854
53.7165637;86.8295749;25.0;30.0;-1.0765456972857868;0.4118248221378412;0.061180789232181;-0.974813908432752;0.0183542367696543;1.154250151156359
53.7162597;86.8297317;26.0;30.0;-1.7940523194403717;0.127332242900765;0.0367084735393086;-1.041093096767615;0.0326297542571632;1.798939892548137
53.7160076;86.8298636;25.0;30.0;-3.5055156824061893;-0.1339117716064636;-0.0091771183848271;-1.1318446007953502;0.0693382277964719;3.5080844889586627
53.7157584;86.8300496;26.0;30.0;-0.4462931452893847;-0.556996604068594;-0.0081574385642908;-1.047211175690833;0.0081574385642908;0.7137852143888721
53.7155077;86.8301573;25.0;30.0;-3.3526762698152024;-1.1258030786629385;-0.0428265524625267;-0.9737942286122158;0.0571020699500356;3.5369061134987394
53.7151956;86.8303316;25.0;30.0;-2.336485166812486;-1.461295736712849;-0.0622004690527174;-1.0227388599979603;0.0418068726419904;2.7565226397075535
53.7149465;86.8304409;27.0;0.0;-1.8961097542498289;-1.637430415561004;-0.0316100744366268;-0.9697155093300704;0.032119914346895;2.5054759553369332
53.7145717;86.8305781;33.0;0.0;-0.8612991138353611;-1.7287150114908945;-0.0397675130009177;-1.0166207810747423;0.0152951973080452;1.9318056862784672
53.7142385;86.8307057;33.0;0.0;-1.033782709472956;-2.0182216211719366;-0.0326297542571632;-1.0166207810747423;0.0183542367696543;2.2678161088223203
53.7138968;86.8308248;30.0;0.0;0.2861387853093151;-2.205638848563257;-0.0193739165901906;-1.020699500356888;-0.0050983991026817;2.2242062591841125
53.7135896;86.8309272;28.0;0.0;0.4597487873225316;-2.358334573631908;-0.0448659121035994;-1.015601101254206;-0.0081574385642908;2.403148738364111
53.7133242;86.8310458;26.0;0.0;3.278484117210635;-2.464948728398308;-0.0795350260018354;-1.011522381972061;-0.058121749770572;4.102530458241102
53.7130604;86.8311404;26.0;0.0;2.543031284504918;-2.643741926908863;-0.037728153359845;-1.009483022330988;-0.0448659121035994;3.6684878224716058
53.712801;86.8312394;25.0;0.0;3.66346694341269;-2.8744715140780825;-0.0520036708473539;-0.986030386458652;-0.0632201488732537;4.656853112618592
53.7125439;86.8313151;25.0;0.0;2.834801929698664;-2.8220055661804824;-0.0397675130009177;-1.0288569389211788;-0.0509839910268175;4.000174852586718
53.7122345;86.8313897;22.0;0.0;-0.5779859887034464;-2.6741964535981717;-0.0683185479759355;-1.0084633425104517;0.0101967982053635;2.7367977454631314
53.7120109;86.8314733;20.0;0.0;-0.0598903534433531;-2.548892256915824;-0.0367084735393086;-0.974813908432752;0.0010196798205363;2.5498600165167105
53.7117932;86.8315628;23.0;0.0;-1.888074092330781;-2.4978014218335254;-0.0112164780258998;-1.020699500356888;0.0336494340776996;3.131127836806346
53.7115431;86.8316199;27.0;0.0;-1.4176165643258851;-2.346869332966813;-0.0214132762312633;-1.0298766187417152;0.0254919955134087;2.7418772616348415
53.7112478;86.831683;28.0;30.0;-1.4950012474758767;-2.291450825140447;-0.0214132762312633;-1.015601101254206;0.0265116753339451;2.7360983429676313
53.7109448;86.8317128;29.0;0.0;-0.8690316301212366;-2.1650193540834786;-0.0622004690527174;-1.006423982869379;0.0152951973080452;2.3337509884427674
53.7106542;86.8317038;28.0;0.0;0.11329502744835;-2.0189709584481044;-0.0550627103089629;-1.0298766187417152;-0.0020393596410727;2.02289678341925
53.7103028;86.8316596;25.0;0.0;0.4590241066201889;-1.750481111350422;-0.0336494340776996;-1.017640460895279;-0.0081574385642908;1.809977772257665
53.7100506;86.8316122;23.0;0.0;2.082688914561457;-1.5654648974006369;-0.0374732334047108;-0.9946976649332108;-0.0361986336290404;2.6057010003169148
53.7097582;86.831499;23.0;0.0;1.6252631866536806;-1.3294376467100957;-0.061180789232181;-1.0043846232283062;-0.0285510349750178;2.100625614276096
53.7095191;86.8313879;22.0;0.0;1.4206644398728676;-1.209978934482691;-0.0469052717446721;-1.026817579280106;-0.0254919955134087;1.8666913449010787
53.7092845;86.8312813;22.0;0.0;0.9988685011237474;-1.0085835663074254;0.0081574385642908;-0.9941878250229428;-0.0173345569491179;1.41952303136178
53.7090731;86.8311211;19.0;0.0;3.8746042266667526;-1.070724232403557;0.0061180789232181;-1.023758539818497;-0.0693382277964719;4.019831554437295
53.708897;86.8310218;17.0;0.0;4.443913629368006;-0.9194451188500966;-0.0091771183848271;-0.9839910268175792;-0.0764759865402263;4.538042737939104
53.7087336;86.8309864;17.0;0.0;2.1817402553181946;-0.9721626886145498;-0.020393596410727;-0.9901091057407974;-0.037728153359845;2.388620257300171
53.7085673;86.8309481;18.0;0.0;3.1392740842620324;-0.9981085018786487;0.0265116753339451;-0.9850107066381156;-0.0540430304884266;3.294232114859345
53.7083685;86.8309029;20.0;0.0;4.45055865954777;-0.9007116230884324;-0.0244723156928724;-1.0084633425104517;-0.078515346181299;4.540853741784425
53.708187;86.8309774;21.0;0.0;1.9510403872680149;-0.8384543437734984;-0.0132558376669725;-1.017640460895279;-0.0346691138982359;2.1236148418618255
53.7079718;86.831095;20.0;0.0;1.5574949023942424;-0.802641078010313;-0.0040787192821454;-1.012542061792597;-0.0275313551544814;1.752152877760554
53.7077535;86.8311327;20.0;0.0;1.4922631802581412;-0.9596874909446091;-0.0101967982053635;-1.017640460895279;-0.0265116753339451;1.774247292268849
53.707545;86.831257;21.0;0.0;1.088616731068076;-1.1031090813297746;-0.0428265524625267;-1.0186601407158151;-0.0193739165901906;1.5504096703998558
53.7073368;86.8313048;20.0;0.0;1.730280061785702;-1.331535201469492;0.0020393596410727;-0.9788926277148976;-0.0295707147955541;2.183313821683287
53.7071327;86.8314591;21.0;0.0;-1.0409764784802773;-1.3758338290324;-0.0356887937187723;-1.009483022330988;0.0183542367696543;1.7256374021955643
53.706915;86.8315486;22.0;0.0;-0.8884724243419729;-1.5551269016855678;-0.0499643112062812;-0.9850107066381156;0.0152951973080452;1.7917308284328242
53.7066764;86.8316684;25.0;0.0;-1.7925685607943895;-1.6849582399649203;-0.0560823901294993;-1.0084633425104517;0.0316100744366268;2.4607989657948064
53.7064083;86.8316819;27.0;0.0;-0.4611146779423149;-1.6432071768347307;0.0061180789232181;-1.0135617416131335;0.0081574385642908;1.706690951257644
53.7061221;86.8316517;27.0;0.0;-1.3784773768371064;-1.5963365425019675;-0.0530233506678902;-1.015601101254206;0.0244723156928724;2.109810823532502
53.7058453;86.8316053;27.0;0.0;0.468400120570587;-1.5706521496487278;-0.0336494340776996;-0.9972468644845518;-0.0081574385642908;1.639353266553753
53.7056099;86.8315491;23.0;30.0;-0.7513641999764629;-1.5490682160581637;-0.023452635872336;-1.0105027021515245;0.0132558376669725;1.721833477760626
53.7053902;86.831483;19.0;0.0;2.7049294442662988;-1.3153213620687676;-0.0361986336290404;-0.99214846538187;-0.0469052717446721;3.007993338597982
53.7052036;86.8313732;17.0;0.0;3.0485747512272288;-1.3651588693337122;-0.0346691138982359;-0.9758335882532884;-0.0520036708473539;3.340459354609654
53.7050258;86.8312978;19.0;0.0;3.385742054323486;-1.2129103160004948;-0.0275313551544814;-0.9992862241256244;-0.0591414295911083;3.59654816019356
53.7048346;86.831209;21.0;0.0;2.742788130094443;-1.172051108837214;-0.0112164780258998;-1.0003059039461608;-0.0479249515652085;2.9827363842104484
53.7046263;86.8311287;20.0;0.0;0.3427040286048002;-1.1678255179740002;-0.0152951973080452;-1.0227388599979603;-0.0061180789232181;1.217167381551894
53.7044181;86.8310997;16.0;0.0;-0.1176906935685725;-1.1885079227743462;0.0367084735393086;-0.99214846538187;0.0020393596410727;1.1948848036022675
53.7042664;86.8311784;14.0;0.0;-0.0;-1.1032874200038465;-0.0193739165901906;-1.0084633425104517;0.0;1.1034575115439595
53.7041336;86.8313272;17.0;0.0;-0.0585522086355655;-1.0436889707230002;-0.0091771183848271;-0.99775670439482;0.0010196798205363;1.0453703880667309
53.7040074;86.8316106;19.0;0.0;0.7529164950311856;-1.1075805152696183;-0.0214132762312633;-1.0084633425104517;-0.0132558376669725;1.3394313624422547
53.7039065;86.8319449;21.0;0.0;0.5381116281194377;-1.15486409885997;-0.0224329560517997;-0.9768532680738248;-0.0091771183848271;1.274275656469284
53.7037705;86.8326793;24.0;0.0;0.1750080808760258;-1.0334655796177534;-0.0183542367696543;-1.0013255837666972;-0.003059039461609;1.0483395493035474
53.7037306;86.8331514;25.0;0.0;-1.1861751017789293;-1.0232948131654722;-0.0214132762312633;-1.0339553380238604;0.0214132762312633;1.5667170054386237
53.7037048;86.8335864;25.0;0.0;0.4344956569014341;-0.8886588844552681;-0.0316100744366268;-1.0079535026001836;-0.0076475986540226;0.9896970675885522
53.7036989;86.8341181;25.0;0.0;0.6936455416743251;-0.7429889037178372;-0.0489446313857448;-1.009483022330988;-0.0122361578464362;1.0176306920852909
53.7036812;86.8345612;27.0;30.0;-0.8040920319431434;-0.7247828226724273;-0.0040787192821454;-1.0171306209850108;0.0142755174875089;1.0825390394006338
53.703654;86.835046;27.0;0.0;-0.0566351696027588;-0.7558594370768373;-0.0591414295911083;-1.0298766187417152;0.0010196798205363;0.7602820133004112
53.7036371;86.8355923;26.0;0.0;-0.5912213945669851;-0.8059662605284708;-0.0122361578464362;-0.9880697460997246;0.0101967982053635;0.9996369711364322
53.7036209;86.8360625;25.0;0.0;-0.5781272024731576;-0.8363168798287626;0.0071377587437544;-1.0105027021515245;0.0101967982053635;1.0167142830342457
53.7036034;86.8364802;24.0;0.0;0.4657850316626456;-0.8587897835737883;-0.0101967982053635;-1.00336494340777;-0.0081574385642908;0.9770258762107209
53.7035635;86.8369267;23.0;0.0;0.0576967321722887;-0.6692280212571566;0.0101967982053635;-1.012542061792597;-0.0010196798205363;0.6717879368020618
53.7035491;86.8373475;22.0;0.0;1.2401769871413373;-0.598520816777551;-0.0091771183848271;-0.9890894259202612;-0.0214132762312633;1.3770803705858568
53.7035345;86.8377169;23.0;0.0;0.8670891410583436;-0.5773652528658457;0.0142755174875089;-1.0105027021515245;-0.0152951973080452;1.0418243633922535
53.7035154;86.838133;24.0;0.0;0.6424330629821101;-0.595914093000939;0.0010196798205363;-1.0003059039461608;-0.0112164780258998;0.8762618823140969
53.7034933;86.8385461;25.0;0.0;1.4792155425187157;-0.5694822344267815;0.0163148771285816;-0.9870500662791885;-0.0254919955134087;1.5851355815110515
53.7034788;86.8389668;26.0;30.0;-1.4028808025807613;-0.5367216693867748;-0.0010196798205363;-0.9992862241256244;0.0244723156928724;1.5020471818108458
53.7034724;86.8394212;21.0;30.0;-1.2120834208719118;-0.3807823067908686;-0.0331395941674313;-1.011522381972061;0.0214132762312633;1.2709207752724452
53.7034611;86.8397683;18.0;30.0;-0.8789355073789182;-0.3913990964907893;-0.0387478331803813;-0.9962271846640156;0.0152951973080452;0.9629238149726163
53.7034383;86.8401551;18.0;0.0;-0.2326029028419554;-0.533292826519631;-0.0244723156928724;-1.0043846232283062;0.0040787192821454;0.5823265780154405
53.703424;86.8405504;19.0;0.0;-1.1630011934644142;-0.4770130243110295;-0.0188640766799225;-1.0043846232283062;0.020393596410727;1.2571670751141206
53.7034199;86.8409047;17.0;0.0;0.5213446220422909;-0.549199774115011;-0.0122361578464362;-1.0084633425104517;-0.0091771183848271;0.7573442614684824
53.7034009;86.8411929;15.0;60.0;-0.6827656583907147;-0.5212292704637781;-0.0020393596410727;-0.9839910268175792;0.011726317936168;0.8589837342194869
53.7033945;86.8415705;15.0;60.0;-7.035737126405839;-0.4225027004332395;-0.0050983991026817;-1.0079535026001836;0.1244009381054349;7.048413398590656
53.7034112;86.8418688;12.0;60.0;-0.3465315595625028;-0.41223668714001;-0.0081574385642908;-1.011522381972061;0.0061180789232181;0.5385998067219492
53.7034243;86.8421379;11.0;60.0;-3.1729860678933584;-0.2153008657983821;-0.0193739165901906;-1.0298766187417152;0.0571020699500356;3.180341239317399
53.7034436;86.8423364;12.0;60.0;-4.040212871182865;-0.1006385145238027;0.0101967982053635;-1.0105027021515245;0.0713775874375446;4.041478953275754
53.7034622;86.8425598;10.0;60.0;-3.708212160059849;0.1048931890232299;0.020393596410727;-1.01458142143367;0.0657693484245946;3.7097514612024565
53.7035443;86.8428723;7.0;60.0;-3.5045668766205376;0.2527496664075168;0.0101967982053635;-0.9656367900479248;0.0591414295911083;3.5136840155694964
53.7035933;86.8429725;5.0;60.0;-6.513838265700727;0.5240922866085788;0.0193739165901906;-1.026817579280106;0.1172631793616804;6.534916757330096
53.7036776;86.8430568;3.0;60.0;-7.073314663355474;0.7492686722814985;-0.023452635872336;-1.0105027021515245;0.1254206179259712;7.112927238221364
53.7037305;86.8430585;5.0;60.0;-2.422616720931328;0.8520907382699504;0.0132558376669725;-0.9880697460997246;0.0418068726419904;2.5681328080949672
53.7037706;86.8429962;2.0;60.0;-1.065657953604057;0.9055440491425784;0.0367084735393086;-0.986030386458652;0.0183542367696543;1.3989225893689432
53.7037735;86.8429735;3.0;60.0;-0.4642444189704847;0.9660926205216458;0.0254919955134087;-1.006423982869379;0.0081574385642908;1.0721509566319845
53.7037827;86.8429059;2.0;60.0;0.3262005245650111;1.0069737796854632;0.0091771183848271;-0.9850107066381156;-0.0056082390129499;1.0585306772608745
53.7037753;86.84289849999999;1.0;60.0;0.4633973311046943;1.0400177548790843;0.0158050372183134;-1.0084633425104517;-0.0081574385642908;1.13869390801047
53.7037755;86.8429243;1.0;60.0;0.7583264264030414;1.0920749146766355;0.0183542367696543;-1.0013255837666972;-0.0132558376669725;1.3296704352036202
53.7037733;86.8428965;2.0;60.0;2.4012994943403774;1.0621275486777326;0.037728153359845;-0.9962271846640156;-0.0418068726419904;2.6259812651150933
53.703785;86.842857;1.0;60.0;0.5822414357386779;1.0382054129086458;0.0066279188334862;-1.00336494340777;-0.0101967982053635;1.1903442771702277
53.7037877;86.8428597;1.0;60.0;3.91061779973014;0.968705202163766;0.0152951973080452;-0.9992862241256244;-0.0683185479759355;4.0288404395466
53.70378645;86.84283285000001;3.0;60.0;-0.4028340642012807;0.9721015808261771;0.014785357397777;-1.015091261343938;0.0071377587437544;1.0523665585332205
53.7038007;86.8428215;2.0;60.0;0.8756824335982771;0.969444200136752;0.0275313551544814;-1.0003059039461608;-0.0152951973080452;1.3066750771358693
53.703823;86.842767;1.0;60.0;0.5833963556782348;0.970581065479316;0.0122361578464362;-1.0013255837666972;-0.0101967982053635;1.1324878083425236
53.70384025;86.84275865000001;0.0;60.0;1.882922470736408;1.0051471495603133;0.0137656775772407;-1.0079535026001831;-0.0331395941674313;2.134457148071257
53.7038429;86.8427357;0.0;60.0;1.2767407597073817;0.8780483833006755;0.0158050372183134;-1.006423982869379;-0.0224329560517997;1.5496082505319155
53.7038429;86.8427613;0.0;60.0;1.6879810519362866;0.8648339678937903;0.0122361578464362;-1.00336494340777;-0.0295707147955541;1.896672757034722
53.7038439;86.8427623;0.0;60.0;1.2175664893900215;0.812481826451563;0.0112164780258998;-1.0074436626899157;-0.0214132762312633;1.4638034990322009
53.7038456;86.8427384;0.0;60.0;1.3935386175283608;0.7657001769159499;0.0122361578464362;-1.005914142959111;-0.0244723156928724;1.5900931931905171
53.7038488;86.8427416;0.0;60.0;1.39565960428323;0.7436800430167962;0.0122361578464362;-1.0043846232283062;-0.0244723156928724;1.5814788841360892
53.7038504;86.8427176;2.0;60.0;0.1746744073437787;0.7463396836907819;0.0091771183848271;-1.00336494340777;-0.003059039461609;0.7665626468426476
53.7038489;86.8427417;3.0;60.0;0.6389183463128604;0.7760268944865135;0.0285510349750178;-1.0054043030488429;-0.0112164780258998;1.005609047204572
53.7038368;86.8427552;1.0;60.0;1.744150565479256;0.8789939844198866;0.020393596410727;-1.0043846232283062;-0.0305903946160905;1.953230021907947
53.70383455;86.84277854999999;2.0;60.0;1.045738359338806;0.8547325647338903;0.014785357397777;-1.0054043030488429;-0.0183542367696543;1.350686891993319
53.7038322;86.84280179999999;2.0;60.0;0.7477303349654206;1.0238542226393186;0.0132558376669725;-1.015601101254206;-0.0132558376669725;1.2678934656650442
53.7038245;86.8427941;2.0;60.0;6.572522536329418;1.191463496612324;0.0244723156928724;-0.9289283165086164;-0.1070663811563169;6.679688364628483
53.7038113;86.8428065;0.0;60.0;3.3156221129149186;1.5468112380409769;0.0178443968593861;-1.020699500356888;-0.0591414295911083;3.65872838897335
53.7038084;86.8428036;0.0;60.0;1.9526275360957333;1.652555339049815;0.014785357397777;-1.001835423676965;-0.0341592739879677;2.5581071224901284
53.7038066;86.8428274;0.0;60.0;2.0368318224603783;1.825256519713573;0.0163148771285816;-1.00336494340777;-0.0356887937187723;2.735052359820538
53.703783;86.842855;3.0;60.0;1.804407518757752;1.939812716411804;0.0071377587437544;-1.00336494340777;-0.0316100744366268;2.649303836124187
53.7037668;86.8429156;5.0;60.0;1.3541489192799503;2.0715887246583047;0.0520036708473539;-1.0339553380238604;-0.0244723156928724;2.4754602645770905
53.7037354;86.8429866;3.0;60.0;3.995910007923457;2.155109954816332;0.0540430304884266;-0.9911287855613338;-0.0693382277964719;4.5403431982522715
53.7037201;86.8430481;2.0;60.0;0.8452548055859087;2.178877916170742;0.040787192821454;-1.0013255837666972;-0.014785357397777;2.337440535081242
53.703712;86.8430656;2.0;60.0;3.70464500203067;2.2181482530016705;0.0448659121035994;-0.9911287855613338;-0.0642398286937901;4.318169660103002
53.70371505;86.84309425000001;0.0;60.0;2.587783623508233;2.259387346862362;0.0474151116549403;-1.002855103497502;-0.0453757520138676;3.4356518243373255
53.7037151;86.8430943;1.0;60.0;2.641778399776127;2.2844133990956803;0.0576119098603038;-1.003874783318038;-0.0463954318344039;3.4929724911097346
53.7036937;86.8430729;4.0;60.0;3.327566867862689;2.371579103040964;0.0825940654634444;-0.9962271846640156;-0.058121749770572;4.087041776361953
53.7036509;86.8429789;9.0;60.0;7.413328167985208;2.293507708300907;0.0392576730906495;-1.0023452635872336;-0.130519017028653;7.7601000830643345
53.7036129;86.8427873;10.0;0.0;6.283604105049968;2.269751282774027;0.0387478331803813;-0.9901091057407974;-0.1091057407973896;6.681089194826793
53.7035898;86.8426106;12.0;0.0;5.588564963637238;2.199390772331576;-0.0142755174875089;-1.0003059039461608;-0.0978892627714897;6.005795693545569
53.7035662;86.8423822;14.0;30.0;4.774274465402725;2.0536456391504;0.040787192821454;-0.9880697460997248;-0.0825940654634444;5.197385946540452
53.7035493;86.8421093;17.0;0.0;5.167231657863171;1.7755142065349223;0.017589476904252;-0.99775670439482;-0.090241664117467;5.463793837008171
53.7035123;86.8416627;19.0;0.0;3.8717576613194953;1.5679992771447977;0.0336494340776996;-1.0390537371265425;-0.0703579076170082;4.177351003390374
53.7035027;86.8413203;20.0;0.0;5.336793643486739;1.423391460952026;0.0173345569491179;-0.9931681452024064;-0.092790863668808;5.523378506958963
53.7035127;86.8409719;20.0;0.0;3.851909780809966;1.322908672466824;0.0224329560517997;-0.9992862241256244;-0.0672988681553992;4.072812241278087
53.7035207;86.8406471;21.0;0.0;3.795801546036559;1.297932134527828;0.0356887937187723;-0.9829713469970428;-0.0652595085143265;4.0117341503059
53.7035368;86.8402536;23.0;0.0;2.609767466810137;1.1180343880619594;0.0254919955134087;-0.9839910268175792;-0.0448659121035994;2.839284586924131
53.7035449;86.8398265;25.0;0.0;1.800683429623018;0.9441598657941652;0.0112164780258998;-1.0054043030488429;-0.0316100744366268;2.0332300596033583
53.703557;86.8393778;25.0;0.0;0.8189799988704458;0.9244776992289588;0.0275313551544814;-0.9982665443050882;-0.0142755174875089;1.235372506751768
53.7035727;86.8385743;25.0;0.0;2.077084511564169;0.7029318671018376;-0.0091771183848271;-0.9839910268175792;-0.0356887937187723;2.1928240917750075
53.7035937;86.8381089;26.0;0.0;0.8766449379264653;0.7647313741189994;0.0244723156928724;-0.9992862241256244;-0.0152951973080452;1.1635803865609804
53.7036284;86.8376572;27.0;0.0;2.2859870988153466;0.6841014043366265;-0.0071377587437544;-1.0217191801774244;-0.040787192821454;2.3861648507522344
53.7036429;86.8371597;27.0;0.0;-0.3460110370384625;0.826191994895726;0.0071377587437544;-1.0130519017028652;0.0061180789232181;0.8957498522367144
53.7036411;86.8362875;22.0;0.0;0.9305299966898803;0.7037415781167053;0.0132558376669725;-1.0043846232283062;-0.0163148771285816;1.166753616125578
53.7036502;86.8359126;23.0;30.0;3.264915741745017;0.4793424166399335;0.0479249515652085;-0.9819516671765066;-0.0560823901294993;3.3002637400770194
53.7036699;86.8354971;25.0;30.0;2.010903454143345;0.1551069412898061;0.0265116753339451;-0.9870500662791885;-0.0346691138982359;2.0170507514812135
53.7036802;86.8350466;26.0;30.0;1.721549940526373;-0.2226876837773168;-0.0173345569491179;-1.017640460895279;-0.0305903946160905;1.7359794034196048
53.703713;86.8346186;25.0;0.0;2.2360713393912386;-0.4817172337268352;-0.0010196798205363;-1.0054043030488429;-0.0392576730906495;2.2873713226897157
53.7037425;86.8340849;26.0;0.0;3.117996164607477;-0.292029530974865;-0.0254919955134087;-1.0105027021515245;-0.0550627103089629;3.1317457066791983
53.7037614;86.8335918;28.0;0.0;1.840161890156336;0.1273057038926002;0.0061180789232181;-1.015601101254206;-0.0326297542571632;1.8445703985256405
53.703798;86.8331164;28.0;0.0;3.9796385452359417;0.445942638724228;0.0112164780258998;-0.9819516671765066;-0.0683185479759355;4.004561598619664
53.7038616;86.8326424;27.0;0.0;2.663827620195285;0.694697244637839;-0.037728153359845;-1.0074436626899157;-0.0469052717446721;2.7531809358228934
53.7039328;86.8322016;25.0;0.0;3.702954301062781;0.8909709207061806;0.0428265524625267;-1.0074436626899157;-0.0652595085143265;3.8088756675558724
53.7040173;86.8317741;25.0;0.0;3.414833044714934;1.0240737037036731;0.0010196798205363;-0.9911287855613338;-0.0591414295911083;3.5650824273277837
53.7040324;86.831354;25.0;0.0;1.458679037061839;1.2339118570266716;0.0163148771285816;-0.9809319873559702;-0.0249821556031406;1.9106410388375898
53.7039948;86.8307532;29.0;30.0;4.245048785007924;1.1184028714183785;-0.0550627103089629;-1.0013255837666972;-0.0744366268991536;4.390250114966196
53.7039532;86.8301484;31.0;30.0;1.824674538983317;0.991446605123584;-0.0469052717446721;-0.9911287855613338;-0.0316100744366268;2.0771624030254596
53.7039852;86.829438;30.0;30.0;3.3293476849845187;1.0060163585256856;0.0356887937187723;-0.9809319873559702;-0.0571020699500356;3.4782033596571313
53.7039815;86.8288711;32.0;30.0;1.989144192368293;1.1633194516357117;0.0652595085143264;-0.9666564698684612;-0.0336494340776996;2.3052690879890902
53.7039026;86.8283058;29.0;30.0;-0.8061372017390491;1.206321360500317;0.1396961354134801;-1.0048944631385743;0.0142755174875089;1.4575950820020152
53.7036851;86.8279091;26.0;30.0;-2.258361299682035;0.8150316138612672;0.1396961354134801;-1.0247782196390334;0.040787192821454;2.4049921625120305
53.7034035;86.8278067;26.0;0.0;2.0988898772457207;0.729413612370243;0.0244723156928724;-1.0013255837666972;-0.0367084735393086;2.222157021668571
53.7031308;86.827918;31.0;0.0;0.7517720497586613;0.3313715835644205;-0.0387478331803813;-1.009483022330988;-0.0132558376669725;0.822477802599259
53.702811;86.828059;35.0;0.0;1.6788052424655129;0.0935398404758989;-0.0305903946160905;-1.0084633425104517;-0.0295707147955541;1.6816874014300975
53.7024601;86.8282713;33.0;0.0;-0.8926169388661012;-0.2651243048414351;-0.0387478331803813;-0.9809319873559702;0.0152951973080452;0.9319642113002612
53.7017881;86.8285209;32.0;0.0;-0.288733811066358;-0.8177538339380614;-0.0193739165901906;-1.011522381972061;0.0050983991026817;0.8674467679444922
53.7014335;86.8285759;30.0;90.0;-0.1818182864645359;-1.244706597889116;-0.0520036708473539;-0.962577750586316;0.003059039461609;1.2589903835626377
53.701126;86.82855;29.0;90.0;-1.863711868876512;-1.5180121043228771;-0.0703579076170082;-1.0003059039461608;0.0326297542571632;2.4047313600953837
53.700507;86.8285966;30.0;90.0;-0.4410860561832688;-1.6769143120222658;-0.0183542367696543;-1.0594473335372694;0.0081574385642908;1.734051728418681
53.7001888;86.8286624;28.0;90.0;-3.195006338412763;-2.2093835111900724;-0.0081574385642908;-1.0594473335372694;0.0591414295911083;3.8845215337053074
53.6999184;86.8286736;26.0;90.0;-1.7569731463559544;-2.8079990233459338;-0.058121749770572;-1.0288569389211788;0.0316100744366268;3.3128826254372568
53.6996477;86.8287613;29.0;90.0;0.4876135383939818;-3.044593114638604;-0.0764759865402263;-0.9554399918425616;-0.0081574385642908;3.0843415461078876
53.6990245;86.8287269;25.0;90.0;-1.906596580107299;-3.2880185661315333;-0.0897318242071989;-1.1298052411542776;0.037728153359845;3.8018716983583314
53.6986673;86.8287537;28.0;90.0;-5.106177720166575;-3.1864092706120566;0.0050983991026817;-1.015601101254206;0.0907515040277353;6.01882720664428
53.6983169;86.8287361;25.0;90.0;1.5257542347327264;-2.7288345658792057;-0.0836137452839808;-0.9534006322014889;-0.0254919955134087;3.1275318273588226
53.698076;86.8287;24.0;90.0;1.408009581995349;-2.596296405089149;-0.0341592739879677;-0.974304068522484;-0.0239624757826042;2.953711709369914
53.6977269;86.8286069;24.0;90.0;2.052788701935904;-2.5861369835516794;-0.0703579076170082;-1.0217191801774244;-0.0367084735393086;3.3025741759502867
53.6974343;86.8285191;26.0;90.0;2.275812918917702;-2.423305451661792;-0.0326297542571632;-1.0257978994595698;-0.040787192821454;3.324574928442636
53.6971543;86.8284695;27.0;90.0;-0.87631157340756;-2.3081239096377346;-0.023452635872336;-0.9330070357907616;0.0142755174875089;2.4689892632530372
53.6966815;86.8284319;19.0;90.0;0.6935022679643806;-2.016708988748586;0.0275313551544814;-1.0105027021515245;-0.0122361578464362;2.1327959387826407
53.6964906;86.8284202;21.0;90.0;3.550655779466087;-2.1735066003692136;-0.0469052717446721;-1.0013255837666972;-0.0622004690527174;4.163350514984525
53.6962569;86.8284169;22.0;90.0;0.8179157729561075;-2.3622511088224254;-0.0734169470786173;-0.9972468644845518;-0.0142755174875089;2.5009211424796085
53.6960309;86.8284469;23.0;90.0;4.646105566479723;-2.257485802771188;-0.0453757520138676;-1.046701335780565;-0.0851432650147853;5.1657137012670535
53.6957368;86.8284856;26.0;90.0;4.079039521079134;-2.0488488816719075;-0.0336494340776996;-0.986030386458652;-0.0703579076170082;4.5648085873196775
53.6954586;86.828489;29.0;90.0;3.1012206847459107;-1.9673981588718248;-0.0672988681553992;-0.9574793514836342;-0.0520036708473539;3.673248479028221
53.6951559;86.8285191;27.0;90.0;0.5190626538040343;-2.127258366064994;-0.0214132762312633;-1.2378913021311309;-0.0112164780258998;2.189774582683467
53.6948739;86.8286211;23.0;90.0;0.7584537946065406;-2.20798649316355;0.0;-1.0013255837666972;-0.0132558376669725;2.3346212781831945
53.6946577;86.8286865;23.0;90.0;1.967049123383656;-2.0397187083416304;-0.0540430304884266;-1.0971754868971144;-0.037728153359845;2.834193943982598
53.6944041;86.8286889;24.0;90.0;0.4655532039170261;-2.013479337005254;-0.0158050372183134;-1.1292954012440093;-0.0091771183848271;2.0666612265743987
53.6940911;86.8287855;21.0;90.0;1.017117154682648;-1.8493583163632905;-0.020393596410727;-1.0910574079738962;-0.0193739165901906;2.1107035290221017
53.6938748;86.8289276;22.0;90.0;2.3325694987265684;-1.902316121007586;-0.0632201488732537;-1.1247068420515958;-0.0458855919241358;3.0105952696864486
53.6936365;86.8290733;26.0;90.0;2.1685916833088714;-1.770943002364521;-0.0560823901294993;-1.0217191801774244;-0.0387478331803813;2.800388230410724
53.6933713;86.8291409;26.0;90.0;-1.1064154173289924;-1.6113040384992547;-0.0989089425920261;-0.9982665443050882;0.0193739165901906;1.9570995782310028
53.6931324;86.8292348;18.0;90.0;0.5095235041863235;-1.2444037290897831;0.0066279188334862;-1.0319159783827878;-0.0091771183848271;1.3446928168168863
53.6929519;86.8292591;13.0;90.0;0.4088102085818169;-1.119827056889044;0.0101967982053635;-1.0003059039461608;-0.0071377587437544;1.192158713710187
53.6928234;86.8293098;14.0;90.0;1.8600392676176567;-0.9729568280052734;-0.0183542367696543;-1.0359946976649332;-0.0336494340776996;2.099220794544754
53.6926849;86.8293761;17.0;90.0;0.4991403568191763;-0.7939539630254036;-0.023452635872336;-0.9360660752523708;-0.0081574385642908;0.9381119428611273
53.6924665;86.8294649;19.0;90.0;1.2686990059698942;-0.4888029341211098;-0.0280411950647496;-1.012542061792597;-0.0224329560517997;1.3598940343920414
53.6922756;86.82953;20.0;90.0;3.3886508384083056;-0.5030572790283278;0.0244723156928724;-0.9554399918425616;-0.0565922300397675;3.425875074322482
53.6920647;86.8296007;22.0;90.0;2.6131002908611314;-0.3654008091389364;0.0020393596410727;-1.0054043030488429;-0.0458855919241358;2.638525163875771
53.691845;86.8297138;21.0;90.0;-0.6601323717755853;-0.2217850934659386;0.0254919955134087;-1.1501988375650043;0.0132558376669725;0.6968595394948758
53.6915936;86.8297952;21.0;90.0;3.160139694725025;-0.2792274496178327;-0.0193739165901906;-1.015601101254206;-0.0560823901294993;3.1725110255822435
53.6913883;86.8298971;21.0;90.0;-0.763762237812504;-0.2107056063541494;-0.0173345569491179;-0.9177118384827164;0.0122361578464362;0.792483498454104
53.6911832;86.8299736;19.0;90.0;4.339835905286519;-0.1735766005949876;0.0142755174875089;-0.9941878250229428;-0.07545630671969;4.343329173743076
53.6909853;86.8299805;21.0;90.0;2.00075583446639;-0.1872327773563333;-0.0050983991026817;-0.934026715611298;-0.0326297542571632;2.0095039227981806
53.6907542;86.8300566;22.0;90.0;2.1621709122543717;-0.0552152234604292;-0.003059039461609;-0.9992862241256244;-0.037728153359845;2.1628779744643745
53.6905292;86.8301388;19.0;90.0;2.3278138882985018;-0.1010777962976686;0.0010196798205363;-1.00336494340777;-0.040787192821454;2.330007566341088
53.6903432;86.8301576;17.0;90.0;2.015853800047098;-0.2175869828233431;0.0188640766799224;-0.9992862241256246;-0.035178953808504;2.027650485573753
53.6901495;86.8301687;19.0;90.0;2.7152772058717782;-0.3890560501828791;-0.0244723156928724;-1.074742530845315;-0.0509839910268175;2.7431175346940795
53.6899353;86.8301849;20.0;90.0;0.6232728491721541;-0.7143124072256086;-0.0183542367696543;-1.0308962985622514;-0.0112164780258998;0.9481814898209177
53.6897068;86.8301868;19.0;0.0;-0.2333772947216446;-1.0746702477256642;-0.0642398286937901;-0.9992862241256244;0.0040787192821454;1.1015933272441973
53.6894702;86.8302574;16.0;60.0;0.8067207107257564;-1.275610603118584;-0.0214132762312633;-0.9411644743550523;-0.0132558376669725;1.509449980721913
53.6891743;86.8303711;12.0;60.0;0.4086404181489627;-1.4136070319311878;-0.0305903946160905;-1.0003059039461608;-0.0071377587437544;1.4718042003993022
53.6890371;86.8304387;12.0;60.0;-0.5069810286978131;-1.4143818408866984;-0.0142755174875089;-1.0370143774854697;0.0091771183848271;1.5025676509525534
53.6889268;86.8305844;14.0;60.0;0.1181353976767935;-1.5343265972653608;0.0010196798205363;-0.9890894259202612;-0.0020393596410727;1.5388681291803699
53.6888246;86.8307126;12.0;60.0;0.7131851818723498;-1.7706626932503984;-0.003059039461609;-0.9829713469970428;-0.0122361578464362;1.908897282368404
53.6887289;86.8308729;13.0;60.0;-4.55726340198929;-1.9570356338783548;0.0081574385642908;-0.9850107066381156;0.078515346181299;4.95970812963672
53.6886375;86.8310119;12.0;60.0;1.249441613458505;-2.147647910790388;-0.0163148771285816;-0.8881411236871622;-0.0193739165901906;2.484705630327229
53.6885297;86.8311857;12.0;60.0;-1.4423624074127286;-2.3417756899045497;-0.0907515040277353;-0.9676761496889976;0.0244723156928724;2.7518282162280165
53.6884418;86.8313538;13.0;60.0;-2.5186988938321964;-2.538695137138924;-0.139186295503212;-0.9635974304068522;0.0428265524625267;3.5788531601590274
53.6883254;86.8314678;11.0;60.0;0.8197640305309941;-2.7376824184115933;-0.0540430304884266;-0.9248495972264708;-0.0132558376669725;2.8582929764068528
53.6882371;86.8315587;7.0;60.0;-2.68267679384246;-2.938013699640642;-0.0387478331803813;-1.0003059039461608;0.0469052717446721;3.978715957953411
53.6882322;86.8317586;4.0;60.0;3.079593666896582;-3.138965146744155;-0.0152951973080452;-1.0043846232283062;-0.0540430304884266;4.397412112677726
53.6882767;86.8318031;4.0;60.0;-1.0384378162697303;-3.339812925640213;-0.0091771183848271;-1.012542061792597;0.0183542367696543;3.4975402350844136
53.6883265;86.8318273;1.0;60.0;-2.8287122747739835;-3.539833202246902;-0.0703579076170082;-0.9880697460997246;0.0489446313857448;4.531774759225221
53.68833435;86.83186075;3.0;60.0;-1.417046607588913;-3.738302142482304;-0.0433363923727948;-1.00897318242072;0.0249821556031406;3.998099803590566
53.6883172;86.8317924;4.0;60.0;3.5344292769362853;-3.934495912264504;-0.116243499541144;-1.0003059039461608;-0.0622004690527174;5.290175890126529
53.688301;86.8317506;4.0;60.0;2.8810452971514517;-4.127690677511585;-0.0622004690527174;-0.9299479963291526;-0.0469052717446721;5.034095870343047
53.6882699;86.8317195;3.0;0.0;2.8429887787715;-4.317162604141631;-0.0744366268991536;-1.00336494340777;-0.0499643112062812;5.169721361760586
