lat;lon;vel;class;acc_X;acc_Y;acc_Z;fb_tilt;tilt;acc
53.7252293;86.8446661;13.0;60.0;2.37466066949101;-5.850928009063154;-0.1254206179259712;-1.000305903946161;-0.0418068726419904;6.31570282659564
53.7250767;86.8447183;14.0;60.0;-0.05809028456564;-6.363637571658918;-0.1136942999898032;-0.9992862241256244;0.0010196798205363;6.364918225589399
53.7249414;86.8446086;16.0;60.0;2.0390163044723475;-6.7242959953736055;-0.1458142143366982;-1.020699500356888;-0.0367084735393086;7.028158073663697
53.7248256;86.844416;14.0;60.0;2.2955170825397064;-6.945152481018654;-0.0622004690527174;-0.913633119200571;-0.0367084735393086;7.3149443305592925
53.7247441;86.8442321;13.0;60.0;2.039366252025588;-7.038456229405503;-0.0836137452839808;-1.084939329050678;-0.0387478331803813;7.3284290309423366
53.7246799;86.8440399;10.0;60.0;0.9202807080722688;-7.016456441345593;-0.0795350260018354;-1.012542061792597;-0.0163148771285816;7.076998190992504
53.7245938;86.8439026;15.0;60.0;2.062536391207219;-6.891402317650362;-0.1254206179259712;-1.0400734169470789;-0.037728153359845;7.194526572344549
53.7243679;86.8435231;15.0;60.0;4.217091002114493;-6.6755430591312495;-0.1927194860813704;-0.9768532680738248;-0.0734169470786173;7.898346184787414
53.7243391;86.8432895;13.0;60.0;-0.4083260163040356;-6.381127866599695;-0.15091261343938;-0.9901091057407974;0.0071377587437544;6.395959474729418
53.7244306;86.8430994;11.0;60.0;6.6793433140187055;-6.020405940867138;-0.1050270215152442;-0.9870500662791885;-0.116243499541144;8.992771846021842
53.7245636;86.8430532;14.0;0.0;3.87757266815986;-5.605626482745017;-0.1662078107474253;-0.9788926277148976;-0.0672988681553992;6.818082068827428
53.7247797;86.8431413;17.0;0.0;4.213414199068303;-5.149038693044773;-0.0591414295911083;-0.9809319873559702;-0.0723972672580809;6.653492044338574
53.7250132;86.8433236;19.0;0.0;4.373110287549553;-4.662891772577841;-0.040787192821454;-1.012542061792597;-0.0774956663607627;6.392833242385109
53.7252179;86.8434515;21.0;0.0;3.71154469816865;-4.15943492215575;-0.040787192821454;-1.0130519017028654;-0.0657693484245946;5.574775915967464
53.7254994;86.843605;25.0;0.0;3.6173033488239135;-3.7987458929460383;-0.058121749770572;-1.006423982869379;-0.0637299887835219;5.245829964303407
53.7258121;86.8438153;26.0;0.0;4.37858974003564;-3.3866377711654096;-0.0968695829509534;-1.0074436626899157;-0.0774956663607627;5.536311698299752
53.7261123;86.8439875;23.0;0.0;4.213589708233307;-3.1286333775516795;-0.0509839910268175;-0.9952075048434792;-0.0734169470786173;5.248360163689331
53.7263987;86.8441459;22.0;0.0;4.90370567573262;-2.6747763015269967;-0.0122361578464362;-0.9982665443050882;-0.0856531049250535;5.585777236963678
53.7266016;86.8442976;21.0;0.0;3.6857380481679862;-2.297478395719378;-0.0010196798205363;-0.997246864484552;-0.0642398286937901;4.343163936378338
53.7268677;86.8445125;23.0;0.0;3.0765228582181634;-1.744996444846834;-0.0142755174875089;-1.0054043030488429;-0.0540430304884266;3.5369774214810143
53.7271657;86.8447081;26.0;0.0;3.17622887361106;-1.3461937616865676;-0.0152951973080452;-1.0013255837666972;-0.0555725502192311;3.449768317528745
53.7274245;86.8448901;28.0;0.0;2.3545007923860752;-1.24637210083273;-0.0489446313857448;-1.015601101254206;-0.0418068726419904;2.664491128156057
53.7277012;86.8450388;29.0;0.0;2.9696113109347198;-1.1878238116283255;-0.0152951973080452;-1.0023452635872336;-0.0520036708473539;3.1983981441595666
53.7279635;86.8452755;28.0;0.0;2.974421289627525;-1.0429185038189432;-0.0326297542571632;-1.0003059039461608;-0.0520036708473539;3.1521303454426337
53.7282167;86.8454263;27.0;0.0;5.199051998436573;-1.0976223897898787;-0.0479249515652085;-1.0186601407158151;-0.092790863668808;5.313869907515416
53.7284507;86.8456091;23.0;0.0;3.806160495294635;-0.8360314025772267;-0.0020393596410727;-0.9809319873559702;-0.0652595085143265;3.8968975327848296
53.7286632;86.8457704;20.0;0.0;4.5781264272469375;-0.4756645038177032;-0.0142755174875089;-0.9931681452024064;-0.0795350260018354;4.602792858086109
53.7288594;86.8459154;20.0;0.0;3.867409677264235;-0.0241601947519138;-0.0142755174875089;-1.0105027021515245;-0.0683185479759355;3.86751148895605
53.7290498;86.8460546;21.0;0.0;3.852077650951374;0.3244177283366246;-0.020393596410727;-0.9992862241256244;-0.0672988681553992;3.865768357027192
53.7292549;86.8461829;21.0;0.0;5.733932693851871;0.378758414388061;-0.0071377587437544;-0.9850107066381156;-0.0989089425920261;5.746433069452129
53.7294476;86.84635;19.0;0.0;4.961906705864965;0.4528265890375626;0.0101967982053635;-0.9982665443050882;-0.0866727847455898;4.982536909260255
53.7296293;86.8464549;19.0;0.0;5.081069467276993;0.7444510540699012;0.0499643112062812;-1.0079535026001836;-0.0897318242071989;5.135559437451251
53.7297944;86.8465688;17.0;0.0;5.434391017517951;1.2134169408265518;0.0132558376669725;-1.0074436626899157;-0.095849903130417;5.568227915665532
53.7299379;86.8466355;13.0;0.0;6.422834067135153;1.62151593911932;0.023452635872336;-0.9870500662791885;-0.1111451004384623;6.6243989478970295
53.7300245;86.8467477;11.0;0.0;7.933436926855171;1.9407312548816895;0.023452635872336;-1.009483022330988;-0.1407158152340165;8.167399176126587
53.730106;86.8468292;11.0;0.0;8.33176395856701;2.3074248094770597;0.0540430304884266;-0.9941878250229428;-0.1458142143366982;8.6455433930905
53.7301914;86.8469658;10.0;0.0;8.070410394486448;2.578495687746979;0.0662791883348628;-0.9829713469970428;-0.1396961354134801;8.472576755507795
53.7302733;86.8470989;12.0;0.0;6.971716258561942;2.458706020283881;0.0520036708473539;-0.9992862241256244;-0.1223615784643621;7.3927509944444045
53.7303532;86.8472556;12.0;0.0;7.320478970487803;1.993644207330534;0.0453757520138676;-0.9911287855613338;-0.1274599775670439;7.58723194199621
53.7304938;86.847601;11.0;0.0;8.223276165423705;1.5667444725848951;0.0367084735393086;-0.9941878250229428;-0.1437748546956255;8.371278674565225
53.7305469;86.8477565;11.0;0.0;8.146674400562569;1.26590614955373;0.0040787192821454;-0.9829713469970428;-0.1407158152340165;8.244442904418129
53.7305902;86.8479278;13.0;0.0;5.288967457000972;1.010476743249597;0.0040787192821454;-1.0023452635872336;-0.092790863668808;5.384631523680578
53.7307547;86.8484763;22.0;0.0;4.166382600640185;0.701709210125406;0.0367084735393086;-0.9931681452024064;-0.0723972672580809;4.225220385083088
53.7309279;86.8488543;21.0;0.0;4.645366997931523;0.299712895518975;0.0622004690527174;-0.9768532680738248;-0.0795350260018354;4.655441038565742
53.7311205;86.8491749;14.0;0.0;6.035988302120171;-0.132592544052941;0.0346691138982359;-0.9926583052921384;-0.1050270215152442;6.037543996819275
53.7312688;86.8492976;11.0;0.0;7.647544294423022;-0.2747791864130615;-0.0158050372183134;-0.9946976649332108;-0.133578056490262;7.652495484196604
53.7314064;86.8493328;10.0;0.0;7.775069629433624;-0.5186946474180015;-0.0285510349750178;-1.0003059039461608;-0.1366370959518711;7.792404445445535
53.7315069;86.8493821;9.0;0.0;6.455882487636329;-0.6870064219753712;-0.023452635872336;-0.9819516671765066;-0.1111451004384623;6.492376032249997
53.7315969;86.8493185;10.0;30.0;8.335935400328104;-0.84598336883107;-0.113184460079535;-0.9676761496889976;-0.1427551748750892;8.379517741540115
53.7316905;86.8492329;11.0;0.0;6.929847135778569;-0.8331440142357603;-0.1111451004384623;-0.99214846538187;-0.1213418986438258;6.980634892835092
53.7318389;86.8492533;13.0;0.0;7.160667843160244;-0.8032006328212598;-0.0469052717446721;-0.9890894259202612;-0.1244009381054349;7.205726564417436
53.7320206;86.8492558;15.0;0.0;4.627760103735149;-0.7658341554887055;0.0254919955134087;-1.0074436626899157;-0.0815743856429081;4.690769166487636
53.732184;86.8492656;16.0;0.0;4.6723614369461375;-0.7539072792253046;0.061180789232181;-0.9962271846640156;-0.0815743856429081;4.733189270682227
53.7325277;86.8491741;16.0;0.0;5.883514332856413;-0.7211685573048949;0.0152951973080452;-0.9992862241256244;-0.1029876618741715;5.927567708262197
53.7326772;86.849042;15.0;0.0;7.68640011737744;-0.6412791871860842;-0.0091771183848271;-0.9972468644845518;-0.1345977363107984;7.713110266282975
53.7328072;86.848916;12.0;0.0;7.6052674049788225;-0.5396360028773732;-0.0163148771285816;-0.9850107066381156;-0.1315386968491893;7.624405910761212
53.7329221;86.8488261;11.0;0.0;7.3140816707277425;-0.290670346252464;0.0132558376669725;-0.9850107066381156;-0.1264402977465075;7.3198671882417585
53.7330167;86.8487415;10.0;0.0;7.227114036251457;0.0399410899377633;0.0438462322830631;-0.9880697460997246;-0.1254206179259712;7.227357406115575
53.7330817;86.8485761;11.0;0.0;6.218410467067968;0.2849680513079968;0.0050983991026817;-1.0013255837666972;-0.1091057407973896;6.224938676073858
53.7331221;86.8483605;13.0;0.0;4.792608574703911;0.3479254398987719;0.0071377587437544;-0.9972468644845518;-0.0836137452839808;4.805226322417508
53.7331423;86.8481503;14.0;0.0;7.19253113368294;0.3725055968862193;-0.0056082390129499;-1.0099928622412562;-0.1274599775670439;7.2021730041047185
53.7331481;86.8478489;14.0;0.0;5.04224210536239;0.3799750662390067;-0.0091771183848271;-1.0054043030488429;-0.0887121443866625;5.056547312104825
53.7331516;86.8475964;13.0;0.0;7.661153125675855;-0.0049223346349408;-0.0295707147955541;-0.9850107066381156;-0.1325583766697257;7.661211775666086
53.7331529;86.8473673;12.0;0.0;5.947761179512841;-0.536310104490294;-0.0101967982053635;-0.9982665443050882;-0.1040073416947078;5.971900497445684
53.7331596;86.8471436;11.0;0.0;7.555347706952416;-0.9317448541429386;-0.0101967982053635;-0.9839910268175792;-0.130519017028653;7.612590322673788
53.7331678;86.846947;11.0;0.0;7.203704369212837;-1.01678856721928;0.0101967982053635;-1.0003059039461608;-0.1264402977465075;7.275116466706056
53.7332109;86.8465037;13.0;0.0;4.873663638716859;-0.9303907955829134;0.0168247170388498;-1.0043846232283062;-0.0856531049250535;4.961704078938978
53.7332285;86.8462653;15.0;0.0;6.396425236943532;-0.8732093979765004;-0.0214132762312633;-1.0003059039461608;-0.1121647802589986;6.455788797112368
53.7332403;86.8459955;17.0;0.0;5.238873154259752;-0.8380596708821292;-0.0336494340776996;-1.0003059039461608;-0.0917711838482716;5.305588395531295
53.7332566;86.8457046;18.0;0.0;5.2090841668218015;-0.8616657935856031;-0.0499643112062812;-0.9941878250229428;-0.0907515040277353;5.280106270641094
53.7332821;86.8453973;18.0;0.0;4.581720543787944;-0.876397665960198;-0.040787192821454;-1.0043846232283062;-0.0805547058223717;4.664965123703202
53.7333026;86.8451106;17.0;0.0;4.719352921867336;-0.784183249280702;-0.0285510349750178;-1.0247782196390334;-0.0846334251045171;4.784145747276972
53.7333104;86.8448112;17.0;0.0;5.796301139257918;-0.8255822743979438;-0.0152951973080452;-1.0043846232283062;-0.1019679820536351;5.854820828328004
53.7333385;86.8445321;16.0;0.0;5.198698326953628;-0.8554363281494697;-0.0193739165901906;-1.0084633425104517;-0.0917711838482716;5.268644128695004
53.7333612;86.8442476;15.0;0.0;4.700582304690387;-0.9712526904579188;-0.0142755174875089;-1.0043846232283062;-0.0825940654634444;4.799896830379761
53.7333745;86.8440049;15.0;0.0;4.964735810315625;-0.9556701749230624;-0.0020393596410727;-1.009483022330988;-0.0876924645661262;5.055878885857094
53.7333876;86.8437364;13.0;0.0;5.422854695929523;-1.1586754369376124;0.0163148771285816;-0.9880697460997246;-0.0938105434893443;5.545281597587553
53.733393;86.8435114;13.0;0.0;5.703582715916558;-1.2646966223977127;0.0193739165901906;-0.979912307535434;-0.0978892627714897;5.842147609625276
53.733384;86.843272;12.0;0.0;5.279255155301316;-1.3063959272188694;-0.003059039461609;-0.9931681452024064;-0.0917711838482716;5.4384937869921295
53.7333607;86.8430439;13.0;0.0;5.687745989634296;-1.271083683953618;-0.0025491995513408;-1.0135617416131335;-0.1009483022330988;5.828045527673275
53.7333468;86.8428252;14.0;0.0;6.416629474279462;-1.054757998986836;-0.0254919955134087;-0.9788926277148976;-0.1101254206179259;6.502791561203073
53.7333323;86.8425547;15.0;0.0;3.9584245120055392;-1.033361765003532;-0.0499643112062812;-0.986030386458652;-0.0683185479759355;4.091388222475572
53.7333143;86.8422295;18.0;0.0;4.712939626852491;-1.0865004227288328;-0.058121749770572;-1.012542061792597;-0.0836137452839808;4.836906163317914
53.7333111;86.8419447;20.0;0.0;4.426304776235351;-0.9209742344458958;-0.040787192821454;-1.0003059039461608;-0.0774956663607627;4.521286443893523
53.7333186;86.8416194;20.0;0.0;4.592087185915762;-0.8715494551932326;-0.0367084735393086;-0.9768532680738248;-0.078515346181299;4.674206958183276
53.733322;86.84129;20.0;0.0;3.994866202360182;-0.8696853740571349;-0.0265116753339451;-1.0217191801774244;-0.0713775874375446;4.088521920393429
53.7334044;86.840502;18.0;0.0;4.411051194447579;-0.7974728289679459;-0.0214132762312633;-1.0043846232283062;-0.0774956663607626;4.482610186194926
53.7334736;86.840136;18.0;0.0;3.860010299900074;-0.7847345447027587;0.003059039461609;-1.012542061792597;-0.0683185479759355;3.9389715889692494
53.7335505;86.8399057;18.0;0.0;4.8367652495431965;-0.8825662385226303;-0.037728153359845;-1.011522381972061;-0.0856531049250535;4.916771772019176
53.7336533;86.8396245;18.0;0.0;4.433679865151343;-0.8480501050507415;0.0122361578464362;-1.012542061792597;-0.078515346181299;4.5140730887839915
53.7337684;86.8393556;18.0;0.0;3.868375029138405;-0.8070302404500401;0.0112164780258998;-0.9952075048434792;-0.0672988681553992;3.9516767307614766
53.7339368;86.839012;18.0;0.0;4.509433915318688;-0.7583561210230211;0.0020393596410727;-1.0084633425104517;-0.0795350260018354;4.57275654303914
53.7340475;86.8387899;16.0;0.0;4.327588020314599;-0.9898975245889564;0.0132558376669725;-1.0105027021515245;-0.0764759865402263;4.439379562505332
53.7341403;86.8385755;15.0;0.0;4.0722639641984255;-1.2690704460794229;-0.0214132762312633;-1.0023452635872336;-0.0713775874375446;4.2654814639874195
53.7342104;86.8382616;19.0;0.0;3.208740889290908;-1.102461200495123;0.0112164780258998;-1.0003059039461608;-0.0560823901294993;3.39286967073359
53.734242;86.8379092;22.0;0.0;2.64391763594091;-1.0091771252064792;0.0316100744366268;-0.9931681452024064;-0.0458855919241358;2.8301480760704503
53.7342396;86.8374716;25.0;0.0;3.179809074791426;-0.9716516047326552;-0.0642398286937901;-1.0074436626899157;-0.0560823901294993;3.3255705298032785
53.7342286;86.8370254;26.0;0.0;3.8941250929255538;-0.9992790719865412;-0.0448659121035994;-1.017640460895279;-0.0693382277964719;4.020544969669115
53.7342712;86.8366328;25.0;0.0;3.912061422964606;-1.012527885151024;-0.0316100744366268;-0.968695829509534;-0.0662791883348628;4.041093477273466
53.7343547;86.8362043;24.0;0.0;4.761549279380915;-1.122240184272968;-0.0520036708473539;-0.9411644743550523;-0.078515346181299;4.892287701367484
53.7344474;86.8358618;25.0;0.0;2.698991056902579;-1.1040286098854262;-0.0548077903538288;-0.9880697460997248;-0.046650351789538;2.916579467555979
53.7346668;86.8354156;27.0;0.0;2.700929467917406;-1.105499684480588;-0.0244723156928724;-1.015601101254206;-0.0479249515652085;2.918518192043122
53.7349256;86.8349832;33.0;0.0;3.347488010514776;-1.2454958532259408;-0.0596512695013765;-1.026817579280106;-0.0601611094116447;3.572183390434527
53.7352522;86.834465;33.0;30.0;-3.445630268652917;-1.132283984502942;-0.0428265524625267;-0.9982665443050882;0.0601611094116447;3.6271571627674004
53.7355198;86.8341182;26.0;0.0;-1.3782156373254035;-1.0991320670450355;-0.0336494340776996;-1.0166207810747423;0.0244723156928724;1.763151135946295
53.7357335;86.8338199;23.0;0.0;0.3318902296156675;-1.1036881101005311;0.0540430304884266;-0.9666564698684612;-0.0056082390129499;1.1537760692768746
53.735879;86.8335558;22.0;60.0;0.1808152724204658;-0.9460688932870872;0.1142041399000713;-0.962577750586316;-0.003059039461609;0.969939739961332
53.7359151;86.8330543;23.0;60.0;3.622510818297343;-0.9463259814225464;-0.0163148771285816;-0.934026715611298;-0.0591414295911083;3.744113201682389
53.7358757;86.8326821;21.0;0.0;4.6081804153676895;-0.780638497981099;-0.0303354746609564;-1.024268379728765;-0.0825940654634444;4.673932332215714
53.7358326;86.8323318;16.0;0.0;4.923279163096542;-0.5043365286967343;-0.0397675130009177;-1.0054043030488429;-0.0866727847455898;4.949203421465795
53.7357749;86.8319669;19.0;0.0;4.043663242968375;-0.5717756802079702;-0.020393596410727;-1.009483022330988;-0.0713775874375446;4.083938754411648
53.7357244;86.8316092;25.0;0.0;1.599043694670419;-0.6448840080138922;-0.035178953808504;-1.003874783318038;-0.0280411950647496;1.7245444847983327
53.7356646;86.8310118;29.0;0.0;1.2066528325623185;-0.6689683505237516;-0.0010196798205363;-1.0166207810747423;-0.0214132762312633;1.3796850191547605
53.7356157;86.8305021;30.0;0.0;0.6538481820154523;-0.7738202260905229;-0.0418068726419904;-0.9819516671765066;-0.0112164780258998;1.013934417026961
53.7355811;86.8296995;32.0;0.0;2.4250436230376518;-0.9715734391004291;-0.0152951973080452;-0.9870500662791885;-0.0418068726419904;2.6124749691167777
53.7355336;86.8291656;34.0;0.0;1.4334078062082478;-1.2659216513105531;-0.0132558376669725;-1.0186601407158151;-0.0254919955134087;1.9124307264284979
53.7354715;86.8285915;34.0;0.0;2.536578522915488;-1.693132812474688;-0.0458855919241358;-0.9656367900479248;-0.0428265524625267;3.050087672697425
53.7354066;86.827989;35.0;0.0;1.2753704226770204;-2.0930879040539;-0.0193739165901906;-1.0074436626899157;-0.0224329560517997;2.4511144481194984
53.7353379;86.8273827;34.0;0.0;1.9905757774430728;-2.428455818853176;-0.0061180789232181;-1.026817579280106;-0.0356887937187723;3.1400361495936084
53.7352666;86.8267994;34.0;0.0;0.5736926882734373;-2.371331422348701;-0.037728153359845;-1.017640460895279;-0.0101967982053635;2.440032669607655
53.7351731;86.8260403;33.0;0.0;1.2007554070217226;-1.640176906656772;-0.0193739165901906;-0.9727745487916796;-0.020393596410727;2.0328229586626874
53.7350934;86.8253206;30.0;0.0;1.4341283040336048;-1.2395022620564295;-0.0356887937187723;-0.9768532680738248;-0.0244723156928724;1.8958806766435514
53.7350398;86.8248318;30.0;0.0;0.0872689854677533;-0.9541052230927513;-0.040787192821454;-1.00336494340777;-0.0015295197308045;0.9589558111069008
53.7349573;86.8241349;30.0;0.0;0.9764077711137336;-0.8003104347749354;-0.0311002345263587;-1.0166207810747423;-0.0173345569491179;1.2628682243561795
53.734854;86.823494;30.0;0.0;1.2952509918683888;-0.5806456835861814;-0.0224329560517997;-1.0370143774854697;-0.023452635872336;1.4196224073043264
53.734757;86.823013;30.0;0.0;0.5766589445098849;-0.5945063117967084;-0.0336494340776996;-1.012542061792597;-0.0101967982053635;0.8289183177268609
53.7346492;86.8225212;31.0;0.0;0.8733576078576797;-0.2141987131236619;-0.0448659121035994;-1.0023452635872336;-0.0152951973080452;0.900359678115146
53.7345479;86.8218311;31.0;0.0;-0.1185512247143259;0.0415393139849247;-0.0346691138982359;-0.9850107066381156;0.0020393596410727;0.13031444642131437
53.7345184;86.821136;32.0;0.0;0.2875364365299704;0.5469571016075279;0.0254919955134087;-1.015601101254206;-0.0050983991026817;0.6184570439137361
53.734455;86.8205606;32.0;0.0;0.2879237733863771;0.7617805816030155;0.0448659121035994;-1.0135617416131335;-0.0050983991026817;0.8156118585806403
53.7343406;86.8200366;33.0;30.0;0.0607005172288998;0.6545914843416336;0.061180789232181;-0.9605383909452432;-0.0010196798205363;0.6602406024590669
53.7341132;86.8195788;33.0;30.0;-0.4575952276227994;0.5738935313159617;0.0744366268991536;-1.0186601407158151;0.0081574385642908;0.737758760743368
53.7338172;86.8193596;29.0;30.0;-2.566232643154137;0.4347384711597712;0.0795350260018354;-1.020699500356888;0.0458855919241358;2.604011009473139
53.7331744;86.819152;26.0;30.0;-1.4699035773037383;0.1392396075366978;-0.0224329560517997;-1.0329356582033242;0.0265116753339451;1.476654134316673
53.732806;86.8190396;33.0;30.0;-0.465462145932809;0.0635197095151978;-0.0387478331803813;-1.00336494340777;0.0081574385642908;0.47137157038735944
53.7324787;86.8188147;35.0;30.0;-0.2297933787260866;-0.2640924169858228;-0.0265116753339451;-1.0166207810747423;0.0040787192821454;0.35107359704879104
53.7320567;86.8185207;35.0;30.0;-0.4075816846199995;-0.4675659347332174;-0.0040787192821454;-1.00336494340777;0.0071377587437544;0.6202881337826854
53.7317244;86.8183164;35.0;30.0;1.1456993832027391;-0.6534052116424339;-0.0101967982053635;-0.968695829509534;-0.0193739165901906;1.3189652845948112
53.7313865;86.8180553;34.0;0.0;2.306337939304084;-0.6748993956036191;0.0520036708473539;-0.986030386458652;-0.0397675130009177;2.4036198256465475
53.7309683;86.8177907;33.0;0.0;1.2905912987861907;-0.695171950438864;-0.0326297542571632;-0.9952075048434792;-0.0224329560517997;1.4662723628448038
53.7306401;86.8175393;33.0;30.0;0.6287180249805954;-1.4302694641056783;-0.0540430304884266;-1.020699500356888;-0.0112164780258998;1.5632906780356037
53.7302717;86.8172221;34.0;30.0;-2.069208547068077;-2.029978753747629;-0.1529519730804527;-1.061486693178342;0.0387478331803813;2.902728381711862
53.7299996;86.816822;34.0;30.0;-0.3313458541956016;-2.7119609939737668;-0.092790863668808;-1.0538390945243197;0.0061180789232181;2.7337031024433136
53.7297479;86.8162119;35.0;30.0;1.5388379550535465;-2.9949894239037795;-0.0469052717446721;-1.023758539818497;-0.0275313551544814;3.367518968874016
53.7295833;86.8156377;36.0;30.0;0.7981953419169594;-3.0716534273627003;-0.0428265524625267;-1.023758539818497;-0.0142755174875089;3.173957261098955
53.7294448;86.815064;36.0;30.0;-1.6919303839611428;-3.114151349079288;-0.0112164780258998;-0.9319873559702252;0.0275313551544814;3.544106778657008
53.7292994;86.814509;34.0;30.0;-1.872492125409762;-3.141023183463357;0.0091771183848271;-0.9044560008157438;0.0295707147955541;3.656820698130782
53.7291699;86.8139699;31.0;0.0;0.6314526844747321;-3.3793536926543357;-0.0469052717446721;-1.0166207810747423;-0.0112164780258998;3.438162878239523
53.7290765;86.8134157;32.0;0.0;-0.1727400148560159;-3.2853424295596345;0.0112164780258998;-1.01458142143367;0.003059039461609;3.2898996643631193
53.7289188;86.8128996;32.0;0.0;0.1168375181232094;-3.4240015660077394;-0.0397675130009177;-0.9992862241256244;-0.0020393596410727;3.4262252092871712
53.7287704;86.8124184;28.0;30.0;-4.445268984594797;-3.4453842900169267;-0.0550627103089629;-1.0084633425104517;0.078515346181299;5.624421850587176
53.7286719;86.8115775;24.0;30.0;0.5648967098584512;-3.328590598025386;-0.1315386968491893;-1.0257978994595698;-0.0101967982053635;3.3787462306069513
53.7288133;86.8113093;23.0;30.0;0.2830892857721732;-2.6355768528115124;-0.1988375650045885;-1.012542061792597;-0.0050983991026817;2.6581838288673323
53.7291388;86.811174;24.0;0.0;2.8188630662291447;-2.1083924526463487;-0.0183542367696543;-1.01458142143367;-0.0499643112062812;3.5201767851251815
53.7293905;86.8110417;27.0;0.0;2.6960898407729883;-1.5340820913996476;-0.061180789232181;-0.9941878250229428;-0.0469052717446721;3.1025878523651036
53.7296876;86.8109292;29.0;60.0;0.7736861737603039;-1.3575786349378964;0.0392576730906495;-1.0563882940756602;-0.0142755174875089;1.5630582875901313
53.7300534;86.8107062;31.0;60.0;1.2458063807151272;-1.2161035957921251;-0.0367084735393086;-1.0308962985622514;-0.0224329560517997;1.7413468942053583
53.7303995;86.8105403;35.0;60.0;1.29596214929817;-1.0119656005244095;-0.0571020699500356;-1.012542061792597;-0.0229427959620678;1.6452516267886927
53.7308238;86.810427;32.0;60.0;-2.799223666931073;-1.0764450128765712;-0.0224329560517997;-0.979912307535434;0.0479249515652085;2.9991482525495643
53.7311094;86.810303;27.0;60.0;-3.3100467885207614;-0.8850573987980864;0.0336494340776996;-1.0043846232283062;0.058121749770572;3.4264950934997107
53.7313649;86.8101233;25.0;60.0;-0.0898627276187957;-0.3941313709673454;0.0525135107576221;-0.9737942286122157;0.0015295197308045;0.40764263296149483
53.731591;86.809735;24.0;0.0;0.4220770974587807;-0.2122218978399086;-0.0489446313857448;-0.9676761496889976;-0.0071377587437544;0.47495556325143523
53.7317631;86.8093183;22.0;30.0;4.352745321885663;0.1433073659535815;0.0499643112062812;-1.0370143774854697;-0.0790251860915672;4.355390369499431
53.7318458;86.8089402;19.0;0.0;4.294914375119166;0.2816838662823937;0.0734169470786173;-0.974813908432752;-0.0734169470786173;4.30476774498316
53.7318897;86.8086769;16.0;0.0;4.731363357112599;0.6466848586209003;0.0703579076170082;-0.9707351891506067;-0.0805547058223717;4.775871727607598
53.7318788;86.8083588;14.0;0.0;6.403739710833405;0.6616233214217162;-0.003059039461609;-1.0084633425104517;-0.113184460079535;6.437828598314515
53.7318432;86.8080928;15.0;0.0;5.929678059843772;0.5192167036003172;-0.0152951973080452;-0.9865402263689202;-0.1024778219639033;5.95238622921521
53.731819;86.807787;19.0;0.0;4.242156407132942;0.7201272849060465;-0.058121749770572;-0.9880697460997246;-0.0734169470786173;4.303237435564254
53.7318228;86.807458;24.0;0.0;1.38879591241205;0.684172953400678;-0.0632201488732537;-1.0074436626899157;-0.0244723156928724;1.5494655542221585
53.7318071;86.8070071;27.0;0.0;0.7405407846716944;0.567137823726303;-0.0397675130009177;-1.0247782196390334;-0.0132558376669725;0.9336098863837369
53.7318035;86.8064147;29.0;0.0;-2.1834192256742555;0.2060329962594672;-0.037728153359845;-1.015601101254206;0.0387478331803813;2.193443075201078
53.7317922;86.8058658;31.0;30.0;-0.0577886024669085;-0.4396922655416955;0.0550627103089629;-1.009483022330988;0.0010196798205363;0.4468788572072257
53.7317736;86.8051816;29.0;30.0;-4.656673091248802;-0.9927761370193704;0.0244723156928724;-1.0074436626899157;0.0820842255531763;4.761387154100278
53.7317341;86.8046813;27.0;30.0;-4.264375774905976;-1.3342676843918853;-0.0346691138982359;-0.9839910268175792;0.0734169470786173;4.468374754950162
53.7317141;86.8041237;23.0;30.0;-4.154219845223413;-1.2480780126924813;0.0076475986540226;-0.9967370245742836;0.0723972672580809;4.3376606291847715
53.7316641;86.8036129;24.0;30.0;-3.26110934117286;-1.655935843359474;0.023452635872336;-0.9839910268175792;0.0560823901294993;3.657527536265024
53.7315939;86.8031843;25.0;30.0;-3.8566866517746656;-1.7211912759054795;0.0642398286937901;-0.9962271846640156;0.0672988681553992;4.223820319784049
53.7314757;86.8027845;25.0;30.0;-2.278507873499932;-1.744107858146476;-0.0193739165901906;-0.9992862241256244;0.0397675130009177;2.86947481241664
53.7313629;86.8024157;22.0;30.0;-4.811826475018801;-1.5625211154923897;-0.0142755174875089;-0.9931681452024064;0.0836137452839808;5.059184722111951
53.7311851;86.8019051;23.0;30.0;-3.691825314334616;-1.586665804699679;-0.1116549403487305;-1.0370143774854697;0.0672988681553992;4.019894196750636
53.7310969;86.8015353;26.0;30.0;-1.1243938280871528;-1.7891412632179793;-0.1172631793616804;-1.032425818293056;0.020393596410727;2.116373925756911
53.7311103;86.8010623;25.0;30.0;-0.832986569880859;-2.0978705635912025;-0.1437748546956255;-1.0421127765881513;0.0152951973080452;2.2617689395751936
53.7311788;86.8006188;22.0;0.0;-0.1154121326306979;-2.1124856885260925;-0.0428265524625267;-1.011522381972061;0.0020393596410727;2.1160694360492407
53.7312969;86.8003273;21.0;0.0;-1.097291037964724;-2.089038674471367;-0.0448659121035994;-1.0105027021515245;0.0193739165901906;2.360115072513134
53.7314096;86.8000048;24.0;0.0;-2.3523690206067247;-2.270915742649581;0.0112164780258998;-1.017640460895279;0.0418068726419904;3.2696825730800296
53.7314975;86.7996063;25.0;30.0;-2.885121028362062;-2.006684747558832;0.0152951973080452;-1.011522381972061;0.0509839910268175;3.514390554198965
53.731489;86.799137;27.0;30.0;-1.9294493028299853;-1.826566277630686;0.023452635872336;-1.0288569389211788;0.0346691138982359;2.657003764562274
53.7314106;86.7986234;29.0;0.0;-0.1727063324937854;-1.8085701714413112;-0.07545630671969;-1.012032221882329;0.003059039461609;1.818363879022701
53.7314172;86.7981436;29.0;0.0;0.1146435808003324;-1.8132196218552;-0.0336494340776996;-1.0186601407158151;-0.0020393596410727;1.817151846190402
53.7314282;86.7976426;30.0;0.0;1.3445270279442143;-1.7827805189877517;-0.0438462322830631;-0.9982665443050882;-0.023452635872336;2.2333790094473795
53.7314337;86.7970849;30.0;0.0;2.337300997177977;-1.32504316086189;-0.0020393596410727;-0.9992862241256244;-0.040787192821454;2.686767479433935
53.7314357;86.7954997;31.0;0.0;-0.1689300050479311;-1.0928859234355577;-0.0326297542571632;-1.0370143774854697;0.003059039461609;1.1063460982495343
53.7314123;86.7949643;28.0;0.0;-0.7446390220012676;-0.7161244921972238;-0.0214132762312633;-1.0196798205363515;0.0132558376669725;1.0333344520583316
53.731393;86.7944842;22.0;30.0;1.3669966233407722;-0.646130267430747;0.040787192821454;-0.9819516671765066;-0.023452635872336;1.5125566719344623
53.7312191;86.7940287;21.0;0.0;3.259066199872691;-0.7095031472015737;0.0509839910268175;-0.965636790047925;-0.0550627103089629;3.335791746854498
53.7310175;86.7937759;23.0;0.0;4.438640529190777;-0.8309455537577838;-0.0489446313857448;-0.9839910268175792;-0.0764759865402263;4.5160154824387275
53.73081;86.7935684;25.0;0.0;3.0350686328361456;-0.6829288926478434;-0.061180789232181;-0.9788926277148976;-0.0520036708473539;3.111555329318467
53.7306146;86.793245;26.0;0.0;2.148946684035406;-0.629736675786998;-0.0091771183848271;-1.0054043030488429;-0.037728153359845;2.2393356941646503
53.7304282;86.792905;27.0;0.0;2.224691666670864;-0.5966890640260796;-0.0489446313857448;-0.9962271846640156;-0.0387478331803813;2.3038416672646127
53.7302012;86.7924476;27.0;0.0;4.929782084879624;-0.4409398528810803;-0.0367084735393086;-0.968695829509534;-0.0836137452839808;4.949598657496228
53.7300411;86.7920827;22.0;0.0;5.02858932561827;-0.1401531643034085;-0.0448659121035994;-0.9839910268175792;-0.0866727847455898;5.0307421386168425
53.7299341;86.7917709;18.0;0.0;6.216895387730212;-0.1815064938944784;0.0122361578464362;-0.99214846538187;-0.1080860609768532;6.219556462712265
53.7298406;86.7915238;16.0;0.0;4.378396759891734;-0.0022234156402099;0.0530233506678902;-0.9707351891506067;-0.0744366268991536;4.378718374858515
53.7297659;86.7912955;15.0;0.0;5.020079303120575;-0.0135192152893495;0.0081574385642908;-0.9982665443050882;-0.0876924645661262;5.0201041346376
53.7296937;86.7910697;16.0;0.0;4.251564367795044;-0.0095825778464444;0.0295707147955541;-1.01458142143367;-0.07545630671969;4.251678001269167
53.729586;86.7908596;18.0;0.0;3.989419234181381;-0.0426204460653753;0.0081574385642908;-0.9941878250229428;-0.0693382277964719;3.9896552322579324
53.7294601;86.7905801;20.0;0.0;5.126512043100167;-0.0249633934147879;0.0091771183848271;-1.011522381972061;-0.0907515040277353;5.126581035989159
53.7293105;86.7903281;25.0;0.0;1.9529294483399144;0.0743023776952064;0.0242173957377383;-0.98654022636892;-0.0336494340776995;1.9544924547771274
53.7290259;86.7899667;27.0;0.0;0.7424926842362559;0.0397654076507735;-0.0152951973080452;-1.0227388599979603;-0.0132558376669725;0.7437140692838106
53.7287799;86.7897463;27.0;0.0;0.3452329135619024;-0.1920989936030491;-0.0397675130009177;-1.01458142143367;-0.0061180789232181;0.39707586559752334
53.7282918;86.7892838;27.0;0.0;0.2315980855705957;-0.4359048932485522;-0.0341592739879677;-1.0084633425104517;-0.0040787192821454;0.49479046595238846
53.7280104;86.7891048;28.0;0.0;1.8781601024214072;-0.6201577646846452;0.0265116753339451;-0.9635974304068522;-0.0316100744366268;1.9780758055128371
53.7277216;86.7889696;26.0;0.0;-1.284609224650867;-0.7436883966320131;0.0122361578464362;-1.0003059039461608;0.0224329560517997;1.4843998837584296
53.7274719;86.7888991;26.0;30.0;-1.7568772561999917;-0.8404393002994066;-0.0112164780258998;-0.9972468644845518;0.0305903946160905;1.9475835592394677
53.7267842;86.7889026;27.0;30.0;-2.8682832999056758;-1.0990438793633186;-0.0076475986540226;-0.9768532680738248;0.0489446313857448;3.071645328329581
53.7264916;86.7889172;30.0;30.0;-4.390378169535872;-1.0766099305213137;-0.0622004690527174;-1.0074436626899157;0.0774956663607627;4.520882470534335
53.7261871;86.7889199;29.0;0.0;-1.256813210213959;-0.9443605201585312;-0.0402773529111858;-1.021719180177424;0.0224329560517997;1.57258338493065
53.7258092;86.7888748;27.0;0.0;-0.2886125724892442;-1.0064818841478054;-0.0142755174875089;-1.012032221882329;0.0050983991026817;1.0471422016689576
53.7254515;86.7889011;25.0;0.0;1.553265954100922;-0.910390964150672;-0.040787192821454;-0.9768532680738248;-0.0265116753339451;1.800863800201029
53.7252175;86.7890767;22.0;30.0;0.8761954666462775;-0.9083377152876734;-0.0723972672580809;-1.0308962985622514;-0.0158050372183134;1.264134986894974
53.7250268;86.7892444;19.0;0.0;1.6121688043422415;-0.88563036125944;-0.0418068726419904;-1.0135617416131335;-0.0285510349750178;1.8398851064886965
53.7248482;86.7893986;18.0;0.0;3.756561065575049;-0.8259041718823631;0.0387478331803813;-0.9931681452024064;-0.0652595085143265;3.846475027229894
53.7246829;86.7895917;20.0;0.0;2.5571786803461136;-0.9062916657384904;0.020393596410727;-1.0043846232283062;-0.0448659121035994;2.7131058374818893
53.7243528;86.7901576;25.0;30.0;0.6697334494385959;-1.204401431293779;0.0040787192821454;-0.9595187111247068;-0.0112164780258998;1.3780937330059977
53.7241853;86.7904765;25.0;0.0;1.6491151927246304;-1.311994295873787;0.0397675130009177;-0.9554399918425616;-0.0275313551544814;2.1077218522307035
53.7240393;86.7907913;25.0;0.0;-1.5367429180589187;-1.3384062236592102;-0.0173345569491179;-0.9880697460997246;0.0265116753339451;2.037942713276939
53.7238831;86.7911727;25.0;0.0;1.583397981579953;-1.3965599188179456;-0.0336494340776996;-0.9584990313041704;-0.0265116753339451;2.111554181008388
53.7235694;86.791883;23.0;0.0;0.0891473083745331;-1.4776237000818695;-0.0112164780258998;-0.9829713469970428;-0.0015295197308044;1.480352948121955
53.7233877;86.7922901;18.0;0.0;-1.07077848073568;-1.645168899563875;-0.0571020699500356;-1.0349750178443968;0.0193739165901906;1.9637738946455625
53.7233213;86.7925309;14.0;0.0;-1.6297243462719262;-1.7691157067023675;-0.0479249515652085;-1.0023452635872336;0.0285510349750178;2.4058405245391894
53.7232415;86.7927327;16.0;0.0;-0.291320881354941;-1.767150782876741;-0.0275313551544814;-1.0023452635872336;0.0050983991026817;1.791214035466432
53.7231454;86.792995;18.0;120.0;-1.7872922492002654;-1.7780116275463334;-0.0530233506678902;-0.9788926277148976;0.0305903946160905;2.5216166257893673
53.7230388;86.7932724;19.0;120.0;-4.854605716212388;-1.6750982011112805;-0.0458855919241358;-1.0074436626899157;0.0856531049250535;5.135684582486981
53.7227949;86.7937709;19.0;120.0;-0.3269526673385206;-1.7597828923036922;-0.0560823901294993;-1.0706638115631693;0.0061180789232181;1.7907761192307536
53.7226706;86.7940562;20.0;120.0;-1.303208629908474;-1.6747299471971782;-0.046395431834404;-1.0298766187417152;0.023452635872336;2.122551687286339
53.7225522;86.7943218;20.0;120.0;0.3964204305204175;-1.1112717197348694;-0.0387478331803813;-1.0308962985622514;-0.0071377587437544;1.1804979404440576
53.7223823;86.7946895;19.0;120.0;-1.8979383369422;-0.683799842830656;0.0081574385642908;-1.0461914958702967;0.0346691138982359;2.017379166070197
53.7222315;86.7948715;13.0;120.0;-1.4903941707386152;-0.4322531163404522;-0.0520036708473539;-1.017640460895279;0.0265116753339451;1.5526821704841196
53.7220644;86.7950372;14.0;120.0;-3.5951245408939507;-0.2816336001284505;-0.0101967982053635;-0.9574793514836342;0.0601611094116447;3.606153341713701
53.7219336;86.7951112;14.0;120.0;-3.306486320730262;-0.1704820449457799;0.0081574385642908;-0.9442235138166616;0.0545528703986948;3.310888469977382
53.7216287;86.7951647;16.0;120.0;-3.5128574178838297;-0.0463651781573658;0.0142755174875089;-0.979912307535434;0.0601611094116447;3.5131923884875063
53.7214625;86.7951265;17.0;120.0;-6.519948324982822;0.2270662790402761;0.0805547058223717;-1.06760477210156;0.1223615784643621;6.5243983872962295
53.7212993;86.7950913;17.0;120.0;-3.427481983350117;0.1417220714909751;0.0285510349750178;-0.9870500662791885;0.0591414295911083;3.4305295587322213
53.7211254;86.7950198;18.0;120.0;-2.5298619424966797;0.2035861439456885;0.0132558376669725;-0.969205669419802;0.0428265524625267;2.5380749562083467
53.7207447;86.7948439;20.0;120.0;-2.335876539263248;0.4297499619103139;0.0571020699500356;-0.9982665443050882;0.040787192821454;2.3757661675415247
53.7205213;86.7947997;23.0;120.0;-2.470754121826512;0.4238365069314919;0.0040787192821454;-0.945243193637198;0.040787192821454;2.506846614988952
53.7203133;86.7947197;21.0;120.0;-8.456347747875427;0.3183775031247148;0.0285510349750178;-1.0421127765881513;0.1549913327215254;8.462387170833765
53.7199787;86.7946155;18.0;120.0;-1.3349934127718086;0.2935084309091925;-0.0081574385642908;-0.962577750586316;0.0224329560517997;1.366902028297137
53.7198183;86.7945319;16.0;120.0;-2.405680972373453;-0.0266548091050903;-0.0933007035790761;-1.0212093402671565;0.0430814724176608;2.4076371074097653
53.7196378;86.7944026;15.0;120.0;-1.1032049246040694;-0.2693927150041533;-0.0892219842969307;-1.108391964923014;0.0214132762312633;1.1391198808948342
53.7194935;86.7942839;14.0;120.0;3.2259157465882464;-0.6292195670017204;-0.0525135107576221;-1.0298766187417152;-0.058121749770572;3.287127520555892
53.7193669;86.7941829;16.0;120.0;1.406595769997382;-0.8452408588091311;0.0367084735393086;-1.0375242173957375;-0.0254919955134087;1.6414296456456827
53.7191667;86.7940083;19.0;120.0;-4.525391891325253;-1.1373380381849942;0.0137656775772407;-0.9661466299581932;0.0764759865402263;4.666143919453622
53.7189426;86.7939122;14.0;120.0;-1.2897343010854414;-1.1849413880710562;-0.0040787192821454;-1.0869786886917507;0.0244723156928724;1.7514329266378132
53.7187743;86.7938719;13.0;120.0;1.44295890366644;-1.2518603423278591;-0.0311002345263587;-1.011522381972061;-0.0254919955134087;1.9105632517535434
53.7185911;86.7938423;14.0;120.0;1.1757791784084888;-1.1801179009667655;0.0382379932701131;-1.0426226164984196;-0.0214132762312633;1.6663124198932415
53.7184421;86.7938725;15.0;0.0;1.5312729524296331;-1.076918489426529;-0.0066279188334862;-1.0298766187417152;-0.0275313551544814;1.8720561468661525
53.7182805;86.7939157;17.0;0.0;4.005119381929933;-0.8450499354711083;-0.0550627103089629;-1.00336494340777;-0.0703579076170082;4.093668594185061
53.7178982;86.7937638;17.0;0.0;3.354869883727733;-0.4254439898648449;-0.0336494340776996;-1.0431324564086877;-0.061180789232181;3.3819057955048364
53.7177097;86.7937289;16.0;0.0;3.7158147479307466;-0.1899197502830646;-0.0112164780258998;-0.9890894259202612;-0.0642398286937901;3.720682002249927
53.7175553;86.7936513;17.0;30.0;2.2005635328502464;-0.1158506694673552;-0.0713775874375445;-1.0257978994595698;-0.0395125930457835;2.204766654255002
53.7172954;86.7935962;18.0;30.0;1.6483018732716392;-0.3141286682117819;0.0071377587437544;-0.99214846538187;-0.0285510349750178;1.6779829657130574
53.7171082;86.793537;19.0;30.0;0.7621588615579308;-0.7861770502462457;-0.0214132762312633;-0.9962271846640156;-0.0132558376669725;1.0951798998265654
53.7168969;86.7935305;19.0;30.0;0.1839945375687463;-1.5439851025746405;0.0652595085143265;-0.9503415927398796;-0.003059039461609;1.5562785066558915
53.7167042;86.7934914;19.0;30.0;1.45904541669316;-1.9288916945221533;-0.0326297542571632;-1.0003059039461608;-0.0254919955134087;2.4187809735552213
53.7165178;86.7934586;16.0;30.0;0.875318868818316;-2.117926287390635;0.0224329560517997;-1.06760477210156;-0.0163148771285816;2.2917892831686943
53.7163596;86.793454;15.0;30.0;1.374396375955078;-2.151470635080963;-0.0356887937187723;-0.9768532680738248;-0.023452635872336;2.55324596971213
53.716202;86.79345;16.0;30.0;2.586420636750542;-2.270896358691;-0.0254919955134087;-0.8799836851228714;-0.0397675130009177;3.44197498886328
53.7160391;86.7934407;15.0;0.0;0.2305623557115009;-2.061243200477151;0.0050983991026817;-1.0135617416131335;-0.0040787192821454;2.0741042705365453
53.7158966;86.7934006;13.0;0.0;1.527609038036913;-1.92963508201009;-0.0305903946160905;-1.0319159783827878;-0.0275313551544814;2.4613038607735773
53.7157644;86.793422;14.0;30.0;0.9612620734075616;-1.8312838770632425;-0.0938105434893443;-1.0288569389211788;-0.0173345569491179;2.070368525222829
53.7156196;86.7933796;14.0;30.0;0.8759052483544006;-1.979023509968712;-0.1203222188232894;-0.9931681452024064;-0.0152951973080452;2.1675381181068594
53.7154094;86.7932206;15.0;30.0;1.6060826155577366;-2.003886696210257;-0.133578056490262;-0.9727745487916796;-0.0275313551544814;2.5715571851352936
53.7152692;86.7931572;15.0;30.0;1.6284572545119544;-1.9989210541426703;-0.0805547058223717;-1.0370143774854697;-0.0295707147955541;2.579544043256014
53.7151376;86.7929744;15.0;30.0;3.6425597406316177;-2.238918705366538;-0.020393596410727;-0.9768532680738248;-0.0622004690527174;4.275677061248314
53.7150105;86.7927961;15.0;0.0;4.142844074329032;-1.9787291545441867;-0.023452635872336;-1.0696441317426328;-0.0774956663607627;4.591195499799119
53.714868;86.7926536;15.0;30.0;3.122873873027173;-1.354414753874288;0.0734169470786173;-0.9503415927398796;-0.0520036708473539;3.4047276837460037
53.7147256;86.7926136;12.0;0.0;4.053088128480543;-0.7548831514098827;-0.003059039461609;-1.0217191801774244;-0.0723972672580809;4.122788050244016
53.7145971;86.7925619;12.0;0.0;6.445287929065672;-0.6636763070137507;0.0418068726419904;-0.9829713469970428;-0.1111451004384623;6.479502337653037
53.7144839;86.7924999;12.0;90.0;5.121493517144047;-0.0968676734673559;0.0061180789232181;-1.012542061792597;-0.0907515040277353;5.122413164046921
53.7143469;86.7924909;12.0;90.0;1.3587653432594258;0.0591781308437802;0.0418068726419904;-1.0308962985622514;-0.0244723156928724;1.360695823398151
53.7142067;86.7924787;12.0;90.0;5.0512416225067565;0.2249114698244177;-0.0948302233098807;-1.0512898949729783;-0.0933007035790761;5.057135539953054
53.7140711;86.7924967;13.0;90.0;4.107184433079889;0.7415440006289395;0.003059039461609;-1.0579178138064649;-0.0759661466299581;4.17359087955743
53.713888;86.7924672;13.0;90.0;3.689233792395683;1.0854828473956153;-0.0081574385642908;-0.9330070357907616;-0.0601611094116447;3.845619004887023
53.7137114;86.7924698;14.0;90.0;2.2687639859625803;1.227630147837126;0.0285510349750178;-1.00336494340777;-0.0397675130009177;2.5797637421821333
53.7135715;86.7924323;14.0;90.0;-1.4856690490028746;1.401143404217168;0.020393596410727;-1.0023452635872336;0.0260018354236769;2.042261310685032
53.7134206;86.792435;15.0;90.0;-2.86193773218944;1.0229054747818953;0.0469052717446721;-0.9370857550729071;0.0469052717446721;3.039609069894655
53.7132762;86.7924442;13.0;90.0;1.8792057488627356;0.4538859883494322;0.0866727847455898;-0.9595187111247068;-0.0316100744366268;1.935184463712504
53.7131614;86.7924062;9.0;90.0;0.7080673619072412;-0.1154381341657372;0.0300805547058223;-1.0308962985622514;-0.0127459977567043;0.7180460929420595
53.7130654;86.7924126;9.0;90.0;6.412600560850295;-0.7766038387949019;-0.1254206179259712;-0.9809319873559702;-0.1111451004384623;6.460672550659833
53.7129558;86.792431;12.0;90.0;2.6108525796983737;-1.0602686737271236;-0.0418068726419904;-1.0054043030488429;-0.0458855919241358;2.818238575423456
53.7128216;86.7924248;11.0;90.0;0.1358631248141646;-1.4404211723530795;0.0275313551544814;-0.8595900887121444;-0.0020393596410727;1.4470763345324709
53.7126998;86.792431;12.0;90.0;3.60432731571197;-1.7393062792493592;-0.0622004690527174;-1.0665850922810238;-0.0672988681553992;4.002528029904861
53.7125643;86.7924491;11.0;90.0;0.2336001300056981;-2.283445976445348;0.0132558376669725;-1.0003059039461608;-0.0040787192821454;2.2954019833822965
53.7123862;86.7924502;8.0;90.0;3.553863833197385;-2.7850083210410137;0.0244723156928724;-1.017640460895279;-0.0632201488732537;4.51517645141488
53.712289;86.7925066;11.0;90.0;0.7425490590490028;-3.220382342881849;-0.0491995513408789;-0.9822065871316406;-0.0127459977567043;3.3052476662561747
53.7121228;86.7925708;16.0;90.0;-1.3987336100116143;-3.5659570718133717;-0.0428265524625267;-1.0431324564086877;0.0254919955134087;3.8307100730005326
53.7119969;86.7924449;11.0;90.0;0.6637626718053952;-3.798121537681094;-0.0622004690527174;-0.8779443254817987;-0.0101967982053635;3.8561868468513834
53.7119566;86.7922766;11.0;90.0;2.262950698092116;-3.8932647703305294;-0.1896604466197614;-1.01458142143367;-0.040787192821454;4.507152928280162
53.7119575;86.7920727;12.0;90.0;-3.39547121876661;-3.827775799607215;-0.1233812582848985;-1.023758539818497;0.061180789232181;5.118233611748005
53.7120496;86.7919088;5.0;90.0;-6.126077225854826;-3.578043655356648;-0.0632201488732537;-1.01458142143367;0.1091057407973896;7.094731521629178
53.7121059;86.7918883;0.0;90.0;-2.4581085740557285;-3.1204573674243554;-0.0275313551544814;-0.9972468644845518;0.0428265524625267;3.9724438220415235
53.7121134;86.7919214;4.0;90.0;-3.880509447229532;-2.4314059656558555;-0.0010196798205363;-0.99214846538187;0.0672988681553992;4.579311037657463
53.7120687;86.7919791;6.0;90.0;0.2273620040500423;-1.48727847989666;0.003059039461609;-1.0278372591006424;-0.0040787192821454;1.5045597746091044
53.7120227;86.7920611;6.0;90.0;0.2060414814297941;-0.2644639399922812;-0.023452635872336;-0.99214846538187;-0.0035688793718772;0.3360718580235267
53.7119679;86.7921087;6.0;0.0;5.313816783434879;1.2606486242117474;0.0152951973080452;-0.9207708779443254;-0.0856531049250535;5.461329298321231
53.7251932;86.8441692;11.0;60.0;4.795801035580017;-4.356142269899474;-0.1040073416947078;-1.015601101254206;-0.0856531049250535;6.479699111502146
53.7250572;86.8441356;13.0;60.0;1.7179039484845746;-5.301393825245256;-0.023452635872336;-1.0196798205363515;-0.0305903946160905;5.572837741465006
53.7249121;86.8441441;14.0;60.0;3.267674756900598;-6.010601864177111;-0.1641684511063526;-1.058937493627001;-0.061180789232181;6.843389830111493
53.7247582;86.8441182;14.0;60.0;-0.0546297382095679;-6.503245891345959;-0.0418068726419904;-1.0686244519220964;0.0010196798205363;6.503609716626994
53.7246291;86.8439891;14.0;60.0;2.1443288581501987;-6.798805411402723;-0.15091261343938;-0.968695829509534;-0.0367084735393086;7.130545273042574
53.7245238;86.8438326;16.0;60.0;3.582399230571553;-6.916759928998324;-0.113184460079535;-0.9870500662791885;-0.0622004690527174;7.790247934732248
53.7244229;86.8436293;17.0;60.0;1.9368043338623877;-6.876588948783684;-0.1611094116447435;-0.951361272560416;-0.0326297542571632;7.145952899419541
53.7243741;86.8434013;13.0;60.0;3.770334979504928;-6.697771975409724;-0.1672274905679616;-1.0074436626899157;-0.0672988681553992;7.687882694595695
53.7244132;86.8431844;10.0;60.0;1.5435954315886062;-6.399788513527367;-0.1284796573875803;-1.0135617416131335;-0.0275313551544814;6.5845642905708255
53.7245245;86.8430653;13.0;60.0;3.723593686206641;-6.002118067787533;-0.1345977363107984;-1.009483022330988;-0.0662791883348628;7.064608112998166
53.7246822;86.843095;17.0;60.0;3.686335079330615;-5.524240142841145;-0.0948302233098807;-1.0084633425104517;-0.0652595085143265;6.641934074058097
53.7248643;86.8432259;18.0;60.0;4.018492802205044;-4.985634243339122;-0.0438462322830631;-0.986030386458652;-0.0693382277964719;6.403651747387176
53.7250451;86.8433555;20.0;60.0;5.47053931416276;-4.40577987393239;-0.0571020699500356;-0.9778729478943612;-0.0938105434893443;7.024311876030324
53.7252452;86.8434788;22.0;0.0;3.5544932837336867;-3.8041565392719536;-0.0050983991026817;-1.0013255837666972;-0.0622004690527174;5.206347613545111
53.7254742;86.8436054;25.0;0.0;2.6412125035489327;-3.39020273952561;-0.0316100744366268;-0.9941878250229428;-0.0458855919241358;4.2977293191633255
53.7259806;86.8438558;26.0;0.0;4.187932780777225;-2.6549459258048;-0.0356887937187723;-0.9880697460997246;-0.0723972672580809;4.958708756849213
53.7262357;86.8439829;23.0;0.0;4.176389493000673;-2.5110333314148616;-0.0254919955134087;-0.9911287855613338;-0.0723972672580809;4.873209151119834
53.7264481;86.8441441;22.0;0.0;3.2560809632071823;-2.0003572788074613;-0.0438462322830631;-1.020699500356888;-0.058121749770572;3.8217031509424726
53.7266609;86.8443057;22.0;0.0;4.640356865750162;-1.7830740264023712;-0.0356887937187723;-1.0043846232283062;-0.0815743856429081;4.971271317796137
53.7271344;86.8446256;26.0;0.0;3.416561194781253;-1.5060840716014292;-0.0458855919241358;-1.023758539818497;-0.061180789232181;3.734070850420874
53.7274065;86.8448209;28.0;0.0;2.232763682982226;-1.4845900594447867;-0.0152951973080452;-1.0329356582033242;-0.0402773529111858;2.6813196847275265
53.7276865;86.8449985;29.0;0.0;3.0211136366525846;-1.4446454081930802;-0.0214132762312633;-1.023758539818497;-0.0540430304884266;3.348818670722635
53.7279801;86.8451897;28.0;0.0;2.1866311149539404;-1.273713017433339;-0.0214132762312633;-1.01458142143367;-0.0387478331803813;2.5306439915687093
53.7282423;86.8454007;27.0;0.0;4.210045135370575;-1.2087015399664405;-0.037728153359845;-1.0105027021515245;-0.0744366268991536;4.380281140307164
53.7284944;86.845576;23.0;0.0;4.619163351166517;-1.031826570807156;-0.0183542367696543;-1.009483022330988;-0.0815743856429081;4.733040567646863
53.7287026;86.8457074;21.0;0.0;3.962464960319647;-0.8503012057053947;-0.0224329560517997;-0.986030386458652;-0.0683185479759355;4.052732897650949
53.7289032;86.8458568;21.0;0.0;4.012129778415894;-0.7501807965916235;-0.0316100744366268;-0.9880697460997246;-0.0693382277964719;4.081783407192535
53.7292901;86.8461669;21.0;0.0;3.4383861376437324;-0.3752300994415535;-0.0356887937187723;-1.017640460895279;-0.061180789232181;3.458984034230948
53.7294888;86.8462632;20.0;0.0;4.031016404544153;-0.1599503147330412;-0.0479249515652085;-0.9972468644845518;-0.0703579076170082;4.034473219376949
53.729694;86.8464428;19.0;0.0;3.648245004186279;0.1500966141000662;0.0127459977567043;-1.0074436626899157;-0.0642398286937901;3.651353593476433
53.7298554;86.8465786;16.0;0.0;5.534756384442991;0.5186827667544553;0.0277862751096155;-0.9992862241256244;-0.0968695829509533;5.559076553236605
53.7300106;86.8467082;13.0;0.0;6.556746801299846;0.6337656675588141;0.0163148771285816;-1.0023452635872336;-0.1152238197206077;6.587325232061019
53.730213;86.8469618;11.0;0.0;7.120922121480913;0.7436138632044643;0.0336494340776996;-0.9870500662791885;-0.1233812582848985;7.15972246125224
53.7303035;86.8471035;12.0;0.0;5.990517514677764;0.6827190462327606;0.0560823901294993;-0.9992862241256244;-0.1050270215152442;6.029556420188194
53.7303943;86.8472455;13.0;0.0;6.492395768866399;0.6120506918887348;0.0346691138982359;-0.9850107066381156;-0.1121647802589986;6.521273711208133
53.7304713;86.8473993;12.0;0.0;7.153850625878794;0.3845406686330873;0.0071377587437544;-0.9911287855613338;-0.1244009381054349;7.164181827035037
53.7305859;86.8476931;11.0;0.0;6.977347738453832;0.1900575654983597;0.0050983991026817;-0.974813908432752;-0.1193025390027531;6.979937631181484
53.7306375;86.8478727;13.0;0.0;5.881476285094613;-0.2152994397508517;-0.0224329560517997;-0.9895992658305292;-0.1019679820536351;5.885458383032249
53.7306986;86.8480874;19.0;0.0;3.963351845055238;-0.6310908757089475;0.0081574385642908;-0.986030386458652;-0.0683185479759355;4.013290431168641
53.7308039;86.8483975;23.0;0.0;4.353751168634913;-0.9805404405214192;0.014785357397777;-1.0043846232283062;-0.0764759865402263;4.462827287794274
53.7309319;86.8487559;21.0;0.0;4.457527459648265;-1.2305533119315533;-0.0224329560517997;-0.9676761496889976;-0.07545630671969;4.624317868025646
53.7311043;86.8489795;16.0;0.0;4.997032767862712;-1.53717889239866;-0.0040787192821454;-1.01458142143367;-0.0887121443866625;5.228123187749178
53.7312594;86.8490322;12.0;0.0;7.242301175837928;-1.8120195363139349;-0.0530233506678902;-0.9855205465483838;-0.1254206179259712;7.465731886241485
53.7313735;86.8490695;11.0;0.0;8.497902430484945;-2.0555014906390543;-0.0917711838482716;-0.99214846538187;-0.1488732537983073;8.74344634833692
53.7314784;86.8490976;10.0;0.0;7.939555165172602;-2.241578227372555;-0.0601611094116447;-0.9778729478943612;-0.1366370959518711;8.250141121783024
53.7315957;86.8491125;10.0;0.0;8.663735421278481;-2.463175094404257;-0.0836137452839808;-1.0003059039461608;-0.1529519730804527;9.007471024322491
53.7317061;86.8491717;11.0;0.0;7.727741968419308;-2.5424204115719204;-0.0713775874375446;-1.0043846232283062;-0.1366370959518711;8.135538841381994
53.7318581;86.8491957;13.0;0.0;5.976628015475312;-2.4210980193484164;-0.0601611094116447;-0.991638625471602;-0.1040073416947078;6.448675632542145
53.7319974;86.849207;14.0;0.0;5.820105703802669;-2.248714805688501;-0.0275313551544814;-1.0099928622412562;-0.1029876618741715;6.239479678328609
53.732155;86.849211;16.0;0.0;5.00197898655027;-2.0565370009195543;-0.0458855919241358;-1.012542061792597;-0.0887121443866625;5.408441892596045
53.7323327;86.8492095;17.0;0.0;4.894120213997933;-1.7948454114649264;-0.0010196798205363;-1.0003059039461608;-0.0856531049250535;5.212857542640775
53.732513;86.8491338;17.0;0.0;4.718085142597141;-1.718564564609973;0.0295707147955541;-1.0003059039461608;-0.0825940654634444;5.021420715564717
53.7326729;86.8490377;15.0;0.0;6.147486385813734;-1.4711857279381857;0.0173345569491179;-1.00336494340777;-0.1080860609768532;6.32109775250461
53.7327992;86.848908;13.0;0.0;7.684622318657798;-1.0888644130096672;-0.023452635872336;-0.9972468644845518;-0.1345977363107984;7.761417133259995
53.732898;86.8487764;11.0;0.0;7.658845220485238;-0.8222098283990862;-0.0183542367696543;-0.9931681452024064;-0.133578056490262;7.70287452781577
53.7329806;86.8486286;11.0;0.0;7.86051042502862;-0.5871471029728181;-0.061180789232181;-0.9952075048434792;-0.1376567757724074;7.882646062806832
53.7330516;86.8484692;11.0;0.0;6.528418127093266;-0.5611707369443554;-0.0209034363209952;-0.979912307535434;-0.1121647802589986;6.552525680362698
53.7331104;86.848272;12.0;0.0;6.372004362579195;-0.6846603550060577;-0.0112164780258998;-0.9952075048434792;-0.1111451004384623;6.40869138029166
53.7331566;86.8480622;13.0;0.0;5.895951221664079;-0.706193041659547;0.0081574385642908;-0.9972468644845518;-0.1029876618741715;5.938098682586409
53.7331891;86.8478131;14.0;0.0;5.516387137977437;-0.8045622608993519;0.0061180789232181;-1.0135617416131335;-0.0978892627714897;5.574754247372353
53.7332009;86.8475433;13.0;0.0;6.030367703976152;-0.9907847515480444;-0.0040787192821454;-0.9941878250229428;-0.1050270215152442;6.111219657728701
53.7332075;86.8473195;13.0;0.0;7.624533499188618;-1.1933089728320856;-0.0122361578464362;-1.0054043030488429;-0.1345977363107984;7.7173601126583335
53.7332114;86.847093;12.0;0.0;7.478738607441919;-1.2996215070725046;-0.0295707147955541;-0.986030386458652;-0.1294993372081166;7.59087752814266
53.733213;86.8468642;12.0;0.0;6.507276737558704;-1.462173949135458;-0.0479249515652085;-0.9911287855613338;-0.113184460079535;6.669700143011345
53.7332139;86.8466347;14.0;0.0;6.243088895044757;-1.4490797011483705;-0.0142755174875089;-0.9972468644845518;-0.1091057407973896;6.40907128389995
53.7332163;86.8463811;15.0;0.0;5.893749126783652;-1.2810838718997322;-0.0285510349750178;-0.9972468644845518;-0.1029876618741715;6.031440111441281
53.7332232;86.8460808;17.0;0.0;5.280798401644312;-1.1810495129475882;-0.0560823901294993;-1.0023452635872336;-0.092790863668808;5.411548294649647
53.7332315;86.8457819;18.0;0.0;5.2327330920568365;-1.1433754052373124;-0.0591414295911083;-1.0003059039461608;-0.0917711838482716;5.356519451911136
53.7332487;86.8454663;19.0;0.0;5.218803272812217;-1.2492492930107923;-0.0285510349750178;-0.9931681452024064;-0.0907515040277353;5.366315920443149
53.7332728;86.8451832;18.0;0.0;5.237337612516721;-1.5916839121694653;-0.0071377587437544;-0.9788926277148976;-0.0897318242071989;5.473866448073183
53.7332912;86.8448688;18.0;0.0;4.894031651906032;-1.881905410741151;-0.0061180789232181;-1.0003059039461608;-0.0856531049250535;5.24339119422961
53.7333059;86.8445763;17.0;0.0;4.878220366021591;-2.1552316871235817;-0.0209034363209951;-1.00336494340777;-0.0856531049250535;5.333150524624203
53.7333191;86.8442055;16.0;0.0;5.586488623696187;-2.3168550345757843;-0.037728153359845;-1.0105027021515245;-0.0989089425920261;6.047982788292475
53.7333293;86.8439085;15.0;0.0;6.098078121191462;-2.41599590879679;-0.0193739165901906;-1.011522381972061;-0.1080860609768532;6.559265839415327
53.733334;86.843606;14.0;0.0;5.553543672340914;-2.5640936295710324;-0.0193739165901906;-1.0013255837666972;-0.0973794228612215;6.116927235994278
53.7333247;86.8433663;13.0;0.0;5.8488483564980935;-2.641221157981192;-0.0254919955134087;-0.9901091057407974;-0.1014581421433669;6.417610625810295
53.7333065;86.8431177;14.0;0.0;4.909002247289374;-2.664865525037468;-0.0367084735393086;-1.0084633425104517;-0.0866727847455898;5.585799749584202
53.7332749;86.8428045;15.0;0.0;4.905761033498671;-2.697508174644473;-0.058121749770572;-0.9962271846640156;-0.0856531049250535;5.598787351548914
53.7332489;86.8424457;18.0;0.0;4.806071292369738;-2.591145582283196;-0.0805547058223717;-1.00336494340777;-0.0846334251045171;5.460663490507026
53.7332416;86.8421312;21.0;0.0;3.976714070483837;-2.467762294318466;-0.0723972672580809;-1.009483022330988;-0.0703579076170082;4.680742131751172
53.7332453;86.8415717;21.0;0.0;4.545215633750078;-2.640211593632584;-0.1029876618741715;-0.9758335882532884;-0.0780055062710309;5.257405146546758
53.7332688;86.8411856;21.0;0.0;4.823580289221473;-2.873883035229661;-0.0723972672580809;-1.0003059039461608;-0.0846334251045171;5.615280213048428
53.7333083;86.8408411;21.0;0.0;4.751952635113349;-2.8009277295696715;-0.0550627103089629;-1.0166207810747423;-0.0846334251045171;5.516274276601878
53.7333655;86.8404887;20.0;0.0;4.0785759678581295;-2.585437198018112;-0.037728153359845;-1.0003059039461608;-0.0713775874375446;4.829150116122046
53.733439;86.8401526;20.0;0.0;4.900820516003229;-2.4179942721713346;-0.0254919955134087;-1.0105027021515245;-0.0866727847455898;5.464923409542607
53.7335398;86.8398438;20.0;0.0;4.570209706720043;-2.250206792516815;-0.0244723156928724;-0.994697664933211;-0.0795350260018354;5.094197313289139
53.7336865;86.8394785;20.0;0.0;4.406067013450709;-2.2481252559628526;-0.0265116753339451;-1.0054043030488429;-0.0774956663607627;4.946533792712378
53.7338339;86.8392419;20.0;0.0;4.2019276391403855;-2.2722709251908726;0.0020393596410727;-0.9992862241256244;-0.0734169470786173;4.7769671551128985
53.7339727;86.8389711;19.0;0.0;5.135675155601056;-2.242647638629048;-0.0040787192821454;-0.9870500662791885;-0.0887121443866625;5.603984686886408
53.7340846;86.8387502;17.0;0.0;5.051152528017922;-2.016833721119518;-0.0244723156928724;-1.00336494340777;-0.0887121443866625;5.438966723025801
53.7341902;86.8381646;21.0;0.0;3.3398461766936447;-2.0164015063450345;-0.0387478331803813;-0.9952075048434792;-0.058121749770572;3.9015316112190934
53.7342093;86.8377485;23.0;0.0;3.641567214894316;-1.806208036471268;-0.0489446313857448;-0.99214846538187;-0.0632201488732537;4.065193086256546
53.7342223;86.8373007;26.0;0.0;3.4105170392296853;-1.579281236485257;-0.0718874273478127;-1.0069338227796472;-0.0601611094116447;3.759112062841584
53.7342644;86.8367284;26.0;0.0;3.597579111239181;-1.3878791932865582;-0.0081574385642908;-1.0217191801774244;-0.0642398286937901;3.856014867785934
53.7343376;86.8362896;25.0;0.0;3.04060917021135;-1.4384600771060112;0.0152951973080452;-0.9788926277148976;-0.0520036708473539;3.3637338572577167
53.734434;86.835874;25.0;0.0;3.90489162954138;-1.3502592464709229;-0.0428265524625267;-0.9401447945345162;-0.0642398286937901;4.131974441443023
53.7346006;86.8355542;28.0;0.0;2.929181924600436;-1.2232488752868886;-0.0693382277964719;-0.9839910268175792;-0.0504741511165494;3.175098793444152
53.7348143;86.8352047;30.0;0.0;1.2904534814539077;-1.1578208362351132;-0.0489446313857448;-0.9493219129193432;-0.0214132762312633;1.734420610335963
53.7350474;86.8348234;33.0;0.0;2.845254709314348;-0.9441828838810472;-0.0652595085143265;-1.023758539818497;-0.0509839910268175;2.9985353895762072
53.7352858;86.8344218;31.0;0.0;-3.6317460519352975;-0.8212215299385468;-0.0265116753339451;-1.0278372591006424;0.0652595085143265;3.7235315301352347
53.7354984;86.834148;22.0;0.0;0.3521638314773156;-0.787762041353876;0.0183542367696543;-0.9952075048434792;-0.0061180789232181;0.8630905375487589
53.7356794;86.8338938;20.0;0.0;0.8719971514239125;-0.5753510535034276;0.0326297542571632;-1.0043846232283062;-0.0152951973080452;1.045214125297685
53.7358268;86.8336316;20.0;30.0;-6.068392988613244;-0.4863504250766762;-0.0122361578464362;-1.0166207810747423;0.1080860609768532;6.087863329919742
53.7359561;86.8335305;12.0;0.0;0.2945262192413074;-0.4418831584996469;0.0734169470786173;-0.9890894259202612;-0.0050983991026817;0.5360937116815933
53.7359718;86.833239;15.0;0.0;4.949619007201825;-0.4394238258152352;0.0091771183848271;-1.012542061792597;-0.0876924645661262;4.969095072007531
53.7359057;86.8328913;17.0;0.0;4.707499377850136;-0.4266142326191871;-0.0244723156928724;-1.015091261343938;-0.0836137452839808;4.726854026746336
53.7358527;86.8325823;16.0;0.0;5.446206854744465;-0.8321797870746898;-0.0198837565004588;-0.9890894259202612;-0.0943203833996124;5.509454389179916
53.7358028;86.8321996;15.0;0.0;5.58779019299278;-0.7270356020574683;0.0056082390129499;-0.9901091057407974;-0.0968695829509534;5.634892320169941
53.7357623;86.8319031;19.0;0.0;3.731547909448604;-0.8800498490141583;-0.0244723156928724;-1.0003059039461608;-0.0652595085143265;3.833997448029336
53.7357134;86.8315214;25.0;0.0;3.056020826423963;-1.0991013452620435;-0.0387478331803813;-1.011522381972061;-0.0540430304884266;3.2478898462340147
53.7356559;86.8310287;29.0;0.0;1.6726244545450215;-1.224996719754389;-0.0152951973080452;-1.012542061792597;-0.0295707147955541;2.0732880823493236
53.7355682;86.8304802;29.0;0.0;1.401771682601202;-1.4072152365804873;-0.0601611094116447;-0.9982665443050882;-0.0244723156928724;1.987168319819064
53.7355075;86.8299075;31.0;0.0;1.1787635354762271;-1.80851636698273;-0.0448659121035994;-0.9901091057407974;-0.020393596410727;2.1592192737843265
53.7354411;86.8293803;33.0;0.0;3.224205397676638;-2.139350228688607;-0.0265116753339451;-0.9952075048434792;-0.0560823901294993;3.869499026531235
53.7353733;86.8287749;34.0;0.0;2.695995381074615;-2.351186891507777;-0.0571020699500356;-0.9727745487916796;-0.0458855919241358;3.5776712453726436
53.7352916;86.8282068;35.0;0.0;0.4070401958993112;-2.20949075926831;-0.0254919955134087;-1.0043846232283062;-0.0071377587437544;2.246815741934585
53.7352179;86.8276211;34.0;0.0;0.7012389808493092;-2.077340488265484;-0.0295707147955541;-0.9992862241256244;-0.0122361578464362;2.1927047315183996
53.7351647;86.8270303;34.0;0.0;1.1901760373293049;-1.6149559293516378;-0.0367084735393086;-0.9809319873559702;-0.020393596410727;2.006476804154607
53.7351037;86.8264573;34.0;0.0;1.8085839485524533;-1.3009369268583375;-0.0713775874375446;-1.0308962985622514;-0.0326297542571632;2.229014927409326
53.7349942;86.825119;34.0;0.0;0.2323520624965716;-0.8649047843513895;0.0270215152442133;-1.0054043030488429;-0.0040787192821454;0.8959787548968042
53.7349493;86.8245365;34.0;0.0;0.9653038471495828;-0.7480486321905331;-0.078515346181299;-1.0257978994595698;-0.0173345569491179;1.2237454527106042
53.7348769;86.8239521;34.0;0.0;0.7457264824633565;-0.6021788008000648;0.0397675130009177;-1.017640460895279;-0.0132558376669725;0.9593272381572687
53.7347763;86.8233651;34.0;0.0;-0.4738963603804665;-0.5900946138504681;0.020393596410727;-0.986030386458652;0.0081574385642908;0.7571032376444772
53.7345616;86.8222544;35.0;0.0;0.3484968719757362;-0.4279090687593627;-0.0438462322830631;-1.0048944631385746;-0.0061180789232181;0.5536052140187969
53.7344777;86.8216073;36.0;0.0;0.4733101018816724;-0.1447616125971484;-0.0285510349750178;-0.9870500662791885;-0.0081574385642908;0.49577569386075254
53.7344274;86.8209682;36.0;0.0;-0.1732475608608984;0.0215136158513404;0.0173345569491179;-1.011522381972061;0.003059039461609;0.1754367118817266
53.7343457;86.8203745;36.0;0.0;-2.0143137182898343;0.191496989776819;0.037728153359845;-0.9850107066381156;0.0346691138982359;2.0237475796996387
53.7341802;86.819825;33.0;30.0;-0.59268254376055;0.3092452884324251;0.0734169470786173;-0.9829713469970428;0.0101967982053635;0.6725290285292335
53.7339165;86.8194333;30.0;0.0;-1.6025523874672751;-0.0654107458552129;0.0122361578464362;-0.9839910268175792;0.0275313551544814;1.603933428733637
53.7336292;86.819274;26.0;0.0;0.6529829191004087;-0.0532562380477614;-0.0173345569491179;-0.9839910268175792;-0.0112164780258998;0.6553803524614641
53.7333474;86.8192226;26.0;30.0;-2.378007526636806;-0.0799892230755789;-0.020393596410727;-0.9819516671765066;0.040787192821454;2.3794398440229787
53.7329775;86.8191343;32.0;30.0;-1.4332773575312774;-0.4029577804116725;-0.020393596410727;-0.9778729478943612;0.0244723156928724;1.488984504681196
53.7326196;86.8189556;38.0;30.0;0.6260982797995713;-1.0036970574137225;-0.1080860609768532;-1.020699500356888;-0.0112164780258998;1.1878928552720736
53.7322517;86.8187157;38.0;0.0;0.173415974480638;-1.0145419738458206;-0.0193739165901906;-1.0105027021515245;-0.003059039461609;1.0294386166955691
53.7318845;86.8184253;38.0;0.0;-2.625818803386196;-1.6209439091094733;0.0071377587437544;-1.0227388599979603;0.0469052717446721;3.085844210632724
53.7315295;86.8181727;36.0;0.0;-0.3948604229685071;-1.796436761604268;0.0387478331803813;-1.0349750178443968;0.0071377587437544;1.839728563306629
53.731179;86.8179246;35.0;0.0;-0.1230636775035561;-1.6386633736165472;-0.0173345569491179;-0.9493219129193432;0.0020393596410727;1.6433693460746082
53.7307637;86.8176629;34.0;0.0;0.115185159487381;-2.126316655850352;-0.0418068726419904;-1.0135617416131335;-0.0020393596410727;2.1298445850608116
53.7304446;86.8174462;34.0;30.0;2.723584964768068;-2.8138517449201137;-0.0693382277964718;-0.9620679106760478;-0.0458855919241358;3.916693055695659
53.7300699;86.8169947;35.0;30.0;0.2860429190252864;-3.295841893800308;-0.0968695829509534;-1.0166207810747423;-0.0050983991026817;3.309649234670465
53.7297839;86.8164271;35.0;30.0;-1.2074406004552842;-3.525495323308616;-0.0948302233098807;-1.011522381972061;0.0214132762312633;3.727736960885484
53.7296257;86.8158593;36.0;30.0;0.1150418126270364;-3.6607654987025153;0.0132558376669725;-1.015601101254206;-0.0020393596410727;3.6625966707208484
53.7294795;86.8152779;37.0;30.0;1.094067796953197;-3.901693054822231;-0.0897318242071989;-1.0105027021515245;-0.0193739165901906;4.053177128951264
53.7293269;86.8146901;38.0;30.0;-0.6313070948835131;-4.066426158590766;-0.1080860609768532;-0.9656367900479248;0.0107066381156316;4.116558386309978
53.7291815;86.8140583;38.0;30.0;-1.9623826019185229;-4.214991374833531;-0.0520036708473539;-1.0105027021515245;0.0346691138982359;4.649709899339438
53.7290398;86.8134814;35.0;30.0;-1.7702218230560338;-4.50517770836934;-0.0091771183848271;-1.0227388599979603;0.0316100744366268;4.840495398852652
53.7288885;86.8129205;34.0;30.0;-3.201770159281451;-4.926290962035984;-0.1121647802589986;-1.0329356582033242;0.058121749770572;5.876415211115799
53.728738;86.8124628;28.0;30.0;-3.383924776646299;-4.810498445441029;-0.0428265524625267;-0.9992862241256244;0.0591414295911083;5.88163891285304
53.7286398;86.8120062;26.0;30.0;0.0575072004060027;-4.48794170892282;-0.0693382277964719;-1.0135617416131335;-0.0010196798205363;4.488845692449405
53.7286664;86.8115464;25.0;30.0;0.448143347989314;-3.9310904067976655;-0.2141327623126338;-1.020699500356888;-0.0081574385642908;3.9623423737303853
53.7289091;86.8112515;22.0;0.0;3.419926163528875;-3.272471601057503;-0.1040073416947078;-1.0013255837666972;-0.0601611094116447;4.734530902934692
53.7291399;86.8111495;25.0;0.0;0.8554294114315213;-2.7601029198084284;-0.0356887937187723;-1.023758539818497;-0.0152951973080452;2.8898445106742665
53.7293866;86.8110634;29.0;0.0;2.7838535063553023;-2.602841635441801;-0.0382379932701131;-1.0268175792801062;-0.0499643112062812;3.811310413514673
53.7297628;86.8108508;31.0;0.0;0.2256556350353286;-2.4862678185607416;-0.0744366268991536;-1.0329356582033242;-0.0040787192821454;2.4975966332973205
53.7300937;86.8107209;34.0;0.0;0.8095864546428028;-2.5651631159359694;-0.0265116753339451;-0.9737942286122158;-0.0137656775772407;2.6900176408024628
53.7304378;86.810553;35.0;0.0;-0.1196099541691388;-2.1018118827650825;-0.0091771183848271;-0.9768532680738248;0.0020393596410727;2.1052325171274298
53.730801;86.8104042;35.0;30.0;-1.79913337471711;-1.8905519382815457;-0.0356887937187723;-1.0706638115631693;0.0336494340776996;2.6100462105790747
53.7315512;86.8097976;28.0;30.0;-1.5923724493212994;-1.7765432536702843;-0.020393596410727;-1.0635260528194148;0.0295707147955541;2.385827288026834
53.73175;86.8093308;24.0;0.0;3.1105663356606823;-1.6022064257876696;0.0662791883348628;-1.0298766187417152;-0.0560823901294993;3.4995830166160014
53.7318107;86.8089563;19.0;0.0;4.785884637237179;-1.2057689908149611;0.0545528703986947;-0.9788926277148976;-0.0820842255531763;4.935741751330038
53.7318313;86.8085417;15.0;0.0;5.09260043473309;-0.8640755686882808;-0.0061180789232181;-0.9839910268175792;-0.0876924645661262;5.165388969587609
53.7318318;86.808235;15.0;0.0;4.79632037049902;-0.4078532019741038;-0.0193739165901906;-1.0084633425104517;-0.0846334251045171;4.813668941614954
53.7318222;86.8079182;16.0;0.0;5.2501785860971255;0.0325094816431696;-0.0295707147955541;-0.9982665443050882;-0.0917711838482716;5.250362509340002
53.7317999;86.8075887;20.0;0.0;3.12442202111758;-0.0946876575446011;-0.1040073416947078;-1.00336494340777;-0.0550627103089629;3.1275863290502706
53.73178;86.8071848;27.0;0.0;2.5918886223298765;0.0471002488984574;-0.0876924645661262;-0.9646171102273886;-0.0438462322830631;2.593799343116395
53.7317622;86.8067318;29.0;0.0;-2.275674530983426;0.1904125640475604;-0.0122361578464362;-0.9493219129193432;0.037728153359845;2.283659615413962
53.7317446;86.8062022;25.0;0.0;-2.978140431915408;-0.3258918840710127;-0.0244723156928724;-0.9992862241256244;0.0520036708473539;2.996018165256683
53.7317428;86.8057652;23.0;0.0;-1.192508712730301;-1.0519858709441474;0.037728153359845;-0.9299479963291526;0.0193739165901906;1.590652292664786
53.7317532;86.8053916;22.0;0.0;-1.6899984565883974;-1.471100431133162;0.003059039461609;-0.9676761496889976;0.0285510349750178;2.2405893464608297
53.7317577;86.8049609;25.0;0.0;-2.5244202518140613;-1.489080022859508;-0.003059039461609;-1.017640460895279;0.0448659121035994;2.930881485145837
53.7317327;86.8045263;24.0;0.0;-4.284648962952786;-1.795370710340203;-0.0050983991026817;-0.979912307535434;0.0734169470786173;4.645599930789702
53.7317107;86.8041203;25.0;0.0;-3.37720235633576;-2.0446525537176448;0.0397675130009177;-1.0359946976649332;0.061180789232181;3.94812376656991
53.7316871;86.8037127;25.0;30.0;-3.851489192020743;-2.37887394079068;0.040787192821454;-1.0594473335372694;0.0713775874375446;4.5271043524005306
53.7315312;86.8029168;27.0;0.0;-2.691006031263216;-2.348812329310388;-0.0448659121035994;-1.0186601407158151;0.0479249515652085;3.5721766149904153
53.7314047;86.8024831;27.0;0.0;-3.634168673749416;-2.2469787714577776;-0.0372183134495768;-1.026817579280106;0.0652595085143265;4.2728773386910515
53.7312749;86.8020717;27.0;0.0;-5.592235259561301;-2.3273299239634557;-0.0805547058223717;-1.0278372591006424;0.1009483022330988;6.057726374960041
53.7311722;86.8016362;27.0;60.0;-2.174931170779703;-2.535222501944636;-0.1029876618741715;-0.9880697460997246;0.037728153359845;3.3418984410801444
53.7310987;86.8011275;29.0;60.0;-0.1126383006687774;-2.779056903710658;-0.1794636484143978;-1.0217191801774244;0.0020393596410727;2.7871225057290947
53.7311666;86.8006578;27.0;0.0;2.317791556961025;-2.896886175943437;-0.1764046089527888;-0.99214846538187;-0.040787192821454;3.7141924834278295
53.7313709;86.8001709;28.0;0.0;-1.4261371606142943;-2.8380489253276133;0.0050983991026817;-0.9829713469970428;0.0244723156928724;3.1762265185454948
53.7315007;86.7997631;29.0;30.0;-3.508808405956153;-2.7439061610886943;0.0489446313857448;-1.0298766187417152;0.0632201488732537;4.454565413989398
53.7315161;86.7992153;30.0;30.0;1.23326294928343;-2.468618670992864;0.0076475986540226;-0.9472825532782706;-0.020393596410727;2.759542377028302
53.7314513;86.7986897;34.0;30.0;-1.6470651219378072;-2.4360837772723145;-0.1075762210665851;-1.0227388599979603;0.0295707147955541;2.9426009462943354
53.7314266;86.7980762;34.0;30.0;-0.5534025280025678;-2.450814182684904;-0.0560823901294993;-1.0013255837666972;0.0096869582950953;2.5131434003119963
53.7314431;86.7974783;33.0;0.0;-0.3956981927037289;-2.356742896701689;-0.0734169470786173;-1.0308962985622514;0.0071377587437544;2.3908584627662948
53.731451;86.7968974;30.0;0.0;0.7363906862774949;-1.9192136645077145;0.0713775874375446;-1.0288569389211788;-0.0132558376669725;2.056877996590409
53.7314472;86.7964072;30.0;0.0;1.6966912069388764;-1.386732064594555;0.0061180789232181;-0.9982665443050882;-0.0295707147955541;2.191306528436423
53.7314453;86.7958421;31.0;0.0;1.7909612620721949;-1.1651177905480132;-0.0540430304884266;-1.009483022330988;-0.0316100744366268;2.13727919496707
53.7314034;86.7952882;34.0;0.0;0.1752158138715684;-0.8791789990609741;0.0010196798205363;-1.0003059039461608;-0.003059039461609;0.8964693712377846
53.7313215;86.7946687;33.0;0.0;1.1462234464756829;-0.7822434713652012;0.0576119098603038;-1.017640460895279;-0.020393596410727;1.388903225535107
53.7311585;86.7941473;31.0;0.0;2.439048294102577;-0.4244826495259672;0.003059039461609;-1.029366778831447;-0.0438462322830631;2.4757123133425063
53.7309551;86.7937647;30.0;0.0;2.9133019322030838;-0.5930011227705378;-0.0489446313857448;-1.020699500356888;-0.0520036708473539;2.973444813129517
53.730719;86.7934006;29.0;0.0;2.7152840117229444;-0.8930876225941379;-0.040787192821454;-0.9666564698684612;-0.0458855919241358;2.8586773796718212
53.7304799;86.7930591;31.0;0.0;2.349387576309425;-0.8438608676791324;-0.0713775874375446;-0.9666564698684612;-0.0397675130009177;2.4973621899327414
53.7302614;86.7926358;30.0;0.0;2.780739314317761;-0.6912906313791709;-0.0678087080656673;-1.0054043030488429;-0.0489446313857448;2.866180715187819
53.7300437;86.7921365;25.0;0.0;3.4345149060604223;-0.4551176121013641;-0.0127459977567043;-1.0023452635872336;-0.0601611094116447;3.46456160881213
53.7299173;86.7917797;21.0;0.0;4.123838396888181;-0.5926911253694052;0.0214132762312633;-1.0074436626899157;-0.072652187213215;4.166267444864754
53.7297903;86.7913967;18.0;0.0;5.098591216547992;-0.8340666968685159;0.0132558376669725;-0.9941878250229428;-0.0887121443866625;5.166379328457962
53.7296802;86.7911586;17.0;0.0;5.908667001658446;-1.0652085383932235;-0.0224329560517997;-0.9850107066381156;-0.1019679820536351;6.003958544516315
53.7295818;86.7909322;18.0;0.0;5.850844397833847;-0.8130833011001971;-0.0214132762312633;-0.979912307535434;-0.1004384623228306;5.907109542795924
53.7294724;86.7906436;20.0;0.0;3.237101486911354;-0.8089101282364183;0.0163148771285816;-1.009483022330988;-0.0571020699500356;3.336679158586105
53.7293267;86.7903699;22.0;0.0;0.9885592851507016;-0.9370385611964768;0.020393596410727;-1.0043846232283062;-0.0173345569491179;1.3622432323933171
53.7290888;86.7900296;25.0;0.0;-0.0288393236829558;-1.05294741322438;0.0530233506678902;-1.011522381972061;0.0005098399102681;1.0546759868900275
53.7287877;86.7897541;28.0;0.0;1.3963818941813606;-0.951949561186262;-0.0723972672580809;-1.0013255837666972;-0.0244723156928724;1.691547139676184
53.7285359;86.7895023;27.0;0.0;-0.4032949320309136;-0.8280688632063654;-0.0311002345263586;-1.0135617416131335;0.0071377587437544;0.9215812872456212
53.7282042;86.7892474;27.0;0.0;-0.6975251998591966;-0.9447447238492088;-0.058121749770572;-1.00336494340777;0.0122361578464362;1.1757814998867449
53.7278755;86.7890211;25.0;0.0;-2.9201736978514807;-0.8917817657392421;-0.0193739165901906;-0.9992862241256244;0.0509839910268175;3.053369367104582
53.7276218;86.7889722;23.0;0.0;-2.037210456176223;-1.09946291796566;0.0112164780258998;-1.0319159783827878;0.0367084735393086;2.314988328289066
53.7273722;86.788953;25.0;0.0;-2.2203783781727773;-1.3800487225134448;-0.037728153359845;-1.0512898949729783;0.040787192821454;2.614581808305892
53.7270947;86.7889827;26.0;30.0;-2.034264715401908;-1.3856751024429204;-0.0530233506678902;-1.00336494340777;0.0356887937187723;2.4619382400002348
53.7268138;86.7889834;25.0;0.0;-4.573911166829615;-1.3623417750028377;0.0020393596410727;-0.968695829509534;0.0774956663607627;4.772488096680209
53.726547;86.788947;29.0;30.0;-3.0423473358202324;-1.219888374554718;-0.0336494340776996;-0.9778729478943612;0.0520036708473539;3.2779776147130666
53.7259138;86.7889538;32.0;0.0;0.443174731626472;-1.3616428941235776;-0.0520036708473539;-1.0533292546140511;-0.0081574385642908;1.432892039077274
53.7255803;86.7889531;30.0;30.0;-0.6135198970567834;-1.5086474665879717;-0.0224329560517997;-1.047211175690833;0.0112164780258998;1.6287808569737345
53.7252598;86.7890422;27.0;0.0;1.5205705610142628;-1.4748146626355982;-0.0489446313857448;-1.0359946976649332;-0.0275313551544814;2.118869674399459
53.7249411;86.7892611;24.0;0.0;0.4860604268683719;-1.468277417915247;-0.0010196798205363;-0.9615580707657796;-0.0081574385642908;1.546639697626524
53.724556;86.7897464;25.0;0.0;2.3881265190884244;-1.2229014913730512;0.0142755174875089;-1.0023452635872336;-0.0418068726419904;2.683065433263856
53.7243736;86.790076;28.0;0.0;2.3137740498324733;-1.402464899432937;-0.0214132762312633;-0.9839910268175792;-0.0397675130009177;2.705719253030247
53.7241856;86.7904512;28.0;0.0;1.260994939707325;-1.5629098360590372;0.0066279188334862;-0.9727745487916796;-0.0214132762312633;2.0081930492175375
53.7239994;86.7908794;28.0;0.0;1.76017098761685;-1.914740452334354;-0.0499643112062812;-0.9941878250229428;-0.0305903946160905;2.601332223659247
53.7237721;86.7913689;29.0;0.0;1.3326235543736178;-2.062084271655662;-0.020393596410727;-0.986030386458652;-0.0229427959620679;2.4552989593643377
53.7235801;86.7917657;29.0;0.0;-0.3193385795441185;-1.9404636325879072;-0.0101967982053634;-1.006169062914245;0.0056082390129499;1.9665910130159632
53.7233668;86.7922436;26.0;30.0;-1.7715376373991782;-2.0071520716953586;-0.0591414295911083;-1.0533292546140511;0.0326297542571632;2.6777794435552216
53.7232339;86.7926483;24.0;30.0;-2.4254821279573626;-1.9401743078268856;-0.0336494340776996;-1.0105027021515245;0.0428265524625267;3.106182895807306
53.7230795;86.7930059;27.0;30.0;-3.0582500124594683;-1.574690544990591;-0.0744366268991536;-0.951361272560416;0.0509839910268175;3.4406517206214327
53.7229113;86.7933753;25.0;30.0;-3.26740410875632;-1.5189614826589244;-0.0336494340776996;-1.0890180483328236;0.0622004690527174;3.603374235370624
53.7227733;86.7937493;25.0;30.0;1.1424976203539452;-1.4902299536804384;-0.0331395941674314;-1.0732130111145102;-0.0214132762312633;1.8780799663652268
53.7226219;86.7941099;25.0;0.0;-1.2089438777570405;-0.855458423420758;-0.0479249515652085;-1.0135617416131335;0.0214132762312633;1.481772997037767
53.7224296;86.7945064;24.0;0.0;-0.677865399514684;-0.7327771756106793;-0.0224329560517997;-1.0339553380238604;0.0122361578464362;0.9984824116990687
53.7222523;86.7947899;20.0;0.0;-2.7545650583772248;-0.5870681942858793;-0.0418068726419904;-0.9952075048434792;0.0479249515652085;2.8167402329953877
53.7219103;86.7950879;19.0;30.0;-2.8062824537288744;-0.2317573582848819;-0.0305903946160905;-1.0604670133578056;0.0520036708473539;2.816002211552489
53.72169;86.7951492;20.0;30.0;-2.750296911405114;0.040566523689476;0.0050983991026817;-1.0400734169470789;0.0499643112062812;2.7506007957175775
53.7214799;86.7951183;21.0;0.0;-1.5955858212465104;0.0679517642243877;0.0509839910268175;-0.9870500662791885;0.0275313551544814;1.597845713003959
53.7212534;86.7950966;23.0;90.0;-4.584340014257264;0.008129749040895;0.0499643112062812;-1.0288569389211788;0.0825940654634444;4.584619492557051
53.7210061;86.7950541;21.0;90.0;-2.3119194260742404;-0.0424236657421595;0.0214132762312633;-0.9595187111247068;0.0387478331803813;2.31240777729046
53.7207991;86.7949751;21.0;90.0;-5.902085504070999;0.0194980876488362;0.0550627103089629;-0.9156724788416436;0.0948302233098807;5.902374553927728
53.7206084;86.7948612;21.0;90.0;-2.3535831099468543;0.0087027242175559;0.0101967982053635;-0.942693994085857;0.0387478331803813;2.353621288043077
53.7204025;86.7947833;22.0;90.0;-5.4267191143452775;-0.0715119010103509;-0.0275313551544814;-0.9656367900479248;0.0917711838482716;5.4272601074117635
53.7201694;86.7947294;21.0;90.0;-6.316362097019415;-0.301764832945502;0.0397675130009177;-1.012542061792597;0.1121647802589986;6.32369145437666
53.7199569;86.7946705;22.0;90.0;-6.418252115653887;-0.4492268605545266;0.0418068726419904;-0.9962271846640156;0.1121647802589986;6.434089897331197
53.7197465;86.7945881;20.0;90.0;0.307902720862175;-0.7084300693849962;-0.1345977363107984;-0.93912511471398;-0.0050983991026817;0.7840878773091395
53.7195669;86.7944341;18.0;90.0;-3.1198013341480064;-1.0705605670004292;-0.0499643112062812;-1.0839196492301415;0.0591414295911083;3.2987507824269295
53.7194287;86.7942703;15.0;90.0;1.8674155645120616;-1.3954720633520314;-0.0173345569491179;-1.0319159783827878;-0.0336494340776996;2.331283692955986
53.7192828;86.79415;15.0;90.0;0.1148378536740077;-1.791808919738917;-0.06984806770674;-1.015091261343938;-0.0020393596410727;1.7968432569522483
53.7191046;86.7940486;18.0;90.0;1.6455707879236312;-2.169753657552547;-0.0968695829509534;-0.9890894259202612;-0.0285510349750178;2.724906946783935
53.7189191;86.7939911;19.0;90.0;0.6007905909652337;-2.550821736141007;0.0020393596410727;-1.0696441317426328;-0.0112164780258998;2.6206192059796707
53.7185387;86.7938923;17.0;90.0;-0.3969715172573321;-2.317754032267183;-0.0254919955134087;-1.0298766187417152;0.0071377587437544;2.351641975607603
53.7183495;86.7938311;18.0;90.0;4.211615370414555;-2.2738672297731903;-0.0010196798205363;-0.9554399918425616;-0.0703579076170082;4.786248765650973
53.7181665;86.7938017;19.0;90.0;2.442451166743716;-2.1072652292414795;-0.020393596410727;-0.979912307535434;-0.0418068726419904;3.22591852765572
53.717952;86.7937664;20.0;90.0;1.7321063255943214;-1.9211094335417689;-0.0555725502192311;-0.9931681452024064;-0.0300805547058223;2.5872653685203817
53.7175058;86.7936274;18.0;90.0;0.6092502209585016;-1.9573234537813844;-0.0305903946160905;-1.0543489344345875;-0.0112164780258998;2.0501796766877383
53.717331;86.7935806;19.0;90.0;-0.1081887258093708;-2.080014583306036;-0.0509839910268175;-1.07882125012746;0.0020393596410727;2.083450223667237
53.717133;86.7935874;20.0;90.0;1.1033598393167403;-1.810327941082857;-0.0555725502192311;-1.1104313245640869;-0.0214132762312633;2.1207966657886437
53.716906;86.7935652;20.0;90.0;0.4746468403054886;-1.666456649108555;-0.0295707147955541;-1.107372285102478;-0.0091771183848271;1.732986385850627
53.7167078;86.7935462;22.0;90.0;0.3457755916468361;-1.877923132294232;-0.020393596410727;-1.0135617416131335;-0.0061180789232181;1.9095999448468421
53.7164801;86.7934977;20.0;90.0;0.8875537467574606;-1.6790244141414918;-0.0122361578464362;-1.0859590088712143;-0.0168247170388498;1.899216775469622
53.7162722;86.793469;19.0;90.0;-1.943530612736189;-1.5090747540489196;-0.0112164780258998;-0.9013969613541348;0.0305903946160905;2.460638873408656
53.716086;86.7934364;18.0;90.0;1.5357887586050776;-1.5237298658598606;-0.0101967982053635;-1.026817579280106;-0.0275313551544814;2.1634472006186503
53.715911;86.7934406;17.0;90.0;-0.057256581714757;-1.4296111190597371;0.037728153359845;-1.0196798205363515;0.0010196798205363;1.43125458303016
53.7157641;86.7933961;15.0;90.0;0.0540567197303222;-1.2055736742962473;-0.1040073416947078;-1.0757622106658509;-0.0010196798205363;1.211258659506943
53.7155582;86.7933694;15.0;90.0;-2.566076355246224;-1.178759332952206;-0.0305903946160905;-0.9778729478943612;0.0438462322830631;2.824032081655313
53.7153547;86.7932939;15.0;90.0;0.991610855016452;-0.9244564731858173;-0.0922810237585398;-1.0563882940756602;-0.0183542367696543;1.358833192834037
53.7152089;86.7931993;14.0;90.0;3.4656148810385488;-0.7505806257979644;-0.0443560721933312;-0.9839910268175792;-0.0596512695013765;3.5462410014886916
53.7150484;86.7930644;15.0;90.0;2.1799492899560247;-0.7112570138831473;0.003059039461609;-0.9911287855613338;-0.037728153359845;2.293049237216719
53.7149254;86.7929414;15.0;90.0;3.88379314596172;-0.1748940465828509;0.0142755174875089;-1.0512898949729783;-0.0713775874375446;3.8877552544558274
53.7147065;86.7926969;12.0;0.0;5.765312298326898;0.2175666051981042;-0.0183542367696543;-1.0400734169470789;-0.1050270215152442;5.769445207551954
53.7145855;86.7926271;13.0;0.0;6.562326652937551;-0.0102967626883116;0.0703579076170082;-0.9635974304068522;-0.1111451004384623;6.562711890548043
53.7144602;86.7925274;14.0;30.0;5.995579957374006;-0.2179271349930258;0.0193739165901906;-0.9901091057407974;-0.1040073416947078;5.999570535469618
53.7143116;86.7924556;13.0;0.0;3.5677014326180734;-0.4761484447288487;-0.0305903946160905;-1.0298766187417152;-0.0642398286937901;3.599464769374125
53.7141617;86.7923825;15.0;0.0;4.098034826788683;-0.7230515717459033;0.0112164780258998;-0.9819516671765066;-0.0703579076170082;4.161348198163244
53.7140021;86.7923253;15.0;0.0;3.575254992306613;-0.8583309967656063;0.0254919955134087;-1.0359946976649332;-0.0647496686040583;3.676932172594057
53.7138358;86.7923126;15.0;30.0;1.348037533349514;-0.8990735889997712;-0.0632201488732537;-1.0380340573060058;-0.0244723156928724;1.6215841936142348
53.7136708;86.7923524;17.0;30.0;0.9598112830212407;-0.8117589353115361;-0.0214132762312633;-1.0344651779341287;-0.0173345569491179;1.257238559889075
53.7135027;86.7923891;17.0;30.0;2.7826385904847486;-1.2123065049644168;0.0224329560517997;-0.9228102375853982;-0.0448659121035994;3.0353365257828018
53.7133216;86.7923616;16.0;30.0;0.059124216938934;-1.3496302200640982;-0.0122361578464362;-0.9880697460997246;-0.0010196798205363;1.3509800618431609
53.7131358;86.7923294;14.0;30.0;1.088168699419213;-1.9579258500968744;-0.0005098399102681;-0.9126134393800348;-0.0173345569491179;2.2399966546425922
53.713001;86.7923482;10.0;30.0;3.108812809985994;-2.3119869034209586;0.0050983991026817;-0.9574793514836342;-0.0520036708473539;3.8742775484981014
53.7128953;86.7923705;9.0;30.0;3.7345464013767935;-2.4978738681919417;-0.1560110125420618;-1.00336494340777;-0.0662791883348628;4.495614543248446
53.7127894;86.7923926;9.0;30.0;3.6588259487747417;-2.645891808688363;-0.1967982053635158;-1.017640460895279;-0.0662791883348628;4.519566386319142
53.7126955;86.7923755;10.0;30.0;-0.5482614589574026;-2.8441484971328608;-0.0469052717446721;-1.064545732639951;0.0101967982053635;2.8968899540090667
53.7125969;86.7924049;10.0;30.0;1.9551158714953407;-2.6920895363434765;-0.037728153359845;-0.9850107066381156;-0.0336494340776996;3.327348427234359
53.7124927;86.7924543;10.0;30.0;1.7603500543167214;-2.769415100664388;-0.0163148771285816;-0.9952075048434792;-0.0305903946160905;3.2815786580145456
53.7123952;86.7924848;6.0;0.0;4.778132172379976;-3.043149166097193;-0.0020393596410727;-1.0003059039461608;-0.0836137452839808;5.6649190693988185
53.7123281;86.7925201;7.0;0.0;2.015706789627284;-3.108406868743994;-0.0305903946160905;-1.0135617416131335;-0.0356887937187723;3.7048890530820406
53.7122381;86.7925325;9.0;0.0;1.0493487244778317;-3.0213025565038523;-0.0591414295911083;-1.0003059039461608;-0.0183542367696543;3.1988903688926333
53.7121642;86.7925354;7.0;0.0;1.2163247160627024;-3.25946952077548;-0.0469052717446721;-1.0074436626899157;-0.0214132762312633;3.479337217960741
53.712097;86.792545;9.0;0.0;0.7106112616154505;-3.155535723552384;-0.0316100744366268;-0.986030386458652;-0.0122361578464362;3.2347137840241538
53.7120174;86.7924654;10.0;0.0;3.435913717941605;-2.710887697674284;-0.0683185479759355;-0.9656367900479248;-0.058121749770572;4.377108932907499
53.7119411;86.7923123;7.0;30.0;-3.474694387226566;-2.3118693350410675;0.0081574385642908;-1.074742530845315;0.0652595085143265;4.173524583697927
53.7118908;86.7922108;3.0;30.0;0.2271751686720538;-1.9763326013730145;-0.0418068726419904;-1.0278372591006424;-0.0040787192821454;1.9897856475286746
53.71188385;86.79220384999999;0.0;30.0;0.5847789464288661;-1.4484761519878375;-0.0504741511165493;-0.99775670439482;-0.0101967982053635;1.5628810636113306
53.7118849;86.7921793;0.0;30.0;1.563692684959319;-1.4671457886267798;-0.0469052717446721;-1.0074436626899157;-0.0275313551544814;2.1447264820013814
53.7118943;86.7921887;3.0;30.0;6.000858149552118;-1.9064508604580728;-0.0622004690527174;-1.0166207810747423;-0.1070663811563169;6.296723140867619
53.7118538;86.7918666;9.0;30.0;-0.2306884658255686;-1.3777645909122644;-0.0713775874375446;-1.0105027021515245;0.0040787192821454;1.3987663122283858
53.7118989;86.7917325;6.0;30.0;1.270939187996172;-0.9764322804249288;-0.026256755378811;-0.9878148261445906;-0.0219231161415315;1.6029335092396124
53.7119719;86.7917031;1.0;30.0;-2.0473733989190928;-0.5470228369698472;0.0081574385642908;-1.026817579280106;0.0367084735393086;2.1192070126752576
53.7119819;86.7916875;0.0;30.0;1.562119580153644;-0.0971597458404284;0.011726317936168;-1.009483022330988;-0.0275313551544814;1.5651821317161507
53.71198655;86.79169215;0.0;30.0;0.2915404028470356;0.365533507669887;0.0163148771285816;-1.001835423676965;-0.0050983991026817;0.4678426305258894
53.7119682;86.7917506;3.0;30.0;4.703927392070018;0.8334334382676606;0.0672988681553992;-0.9890894259202612;-0.0815743856429081;4.777664004881915
53.7119602;86.7917938;4.0;30.0;1.2110314299810518;1.2989165606594502;0.0285510349750178;-1.012542061792597;-0.0214132762312633;1.7761183850057605
53.7119976;86.7917288;7.0;30.0;2.2387887356949143;1.754359389551817;-0.0050983991026817;-0.9911287855613338;-0.0387478331803813;2.844288639441586
53.7120617;86.7916649;3.0;30.0;-5.659944252182796;2.192138439651317;-0.0040787192821454;-1.0288569389211788;0.1019679820536351;6.069633968565564
53.7120852;86.7916628;3.0;30.0;-3.3282212575850427;2.604630225664513;0.061180789232181;-1.050270215152442;0.061180789232181;4.2266888270674965
53.7120773;86.7917061;4.0;30.0;-1.7631760546687312;2.984211262297965;0.0469052717446721;-1.0257978994595698;0.0316100744366268;3.4664833422794126
53.7120371;86.7917939;5.0;30.0;2.266417135905318;3.323258064258229;0.0703579076170082;-1.0023452635872336;-0.0397675130009177;4.023138206766809
53.7119703;86.7918295;1.0;30.0;3.216386222690857;3.614147146251871;0.1539716529009891;-0.9768532680738248;-0.0555725502192311;4.840548233224535
53.7119612;86.7918204;0.0;0.0;0.1724842614389066;3.849255022985441;-0.0086672784745589;-1.0161109411644744;-0.003059039461609;3.8531273238940504
53.7252648;86.8442152;10.0;120.0;2.7657296115704813;-0.5476274681625295;-0.0050983991026817;-1.055368614255124;-0.0509839910268175;2.8194293965051362
53.7251415;86.8442199;13.0;120.0;4.261165017528894;-2.82030291384919;-0.0112164780258998;-0.9442235138166616;-0.0703579076170082;5.1099668924424115
53.7250049;86.8441601;16.0;120.0;2.468361078323044;-4.675200701964514;-0.1386764555929438;-1.055368614255124;-0.0458855919241358;5.288623561567358
53.7248706;86.8440514;13.0;120.0;3.720382948639414;-6.142749410406616;-0.0989089425920261;-0.9829713469970428;-0.0642398286937901;7.182228246338486
53.7247512;86.8438808;13.0;120.0;2.545598942012261;-7.253377617073607;-0.1498929336188436;-1.136942999898032;-0.0509839910268175;7.688564802418407
53.7246526;86.843731;14.0;120.0;2.735613373054105;-8.037513899863601;-0.0734169470786173;-1.0003059039461608;-0.0479249515652085;8.490618367672132
53.7245386;86.843617;13.0;120.0;1.2030068518362729;-8.52558683667471;-0.1361272560416029;-0.9615580707657796;-0.020393596410727;8.61111996345908
53.7244155;86.8434939;14.0;120.0;-0.2834038336221709;-8.748025005405049;-0.2131130824920974;-1.0084633425104517;0.0050983991026817;8.755208530585268
53.7243374;86.8433134;10.0;120.0;0.2807535196299802;-8.73525698395273;-0.243703477108188;-1.011522381972061;-0.0050983991026817;8.74316467300223
53.724357;86.8431282;10.0;120.0;-0.1404845052957376;-8.517711350215865;-0.2029162842867339;-1.0196798205363515;0.0025491995513408;8.52128614472329
53.7244571;86.8430235;7.0;120.0;6.749947598611797;-8.12581668209257;-0.1498929336188436;-0.9880697460997246;-0.1182828591822167;10.564712832184693
53.7245666;86.8430306;12.0;120.0;4.167359031251256;-7.590001557480955;-0.113184460079535;-0.9941878250229428;-0.0729071071683491;8.65955054606867
53.7247097;86.8430713;15.0;120.0;5.391147353130474;-6.940694554279131;-0.0795350260018354;-1.012542061792597;-0.095849903130417;8.788858657375645
53.7248631;86.8431735;17.0;120.0;4.938369300947508;-6.20832425038534;-0.0448659121035994;-0.9666564698684612;-0.0836137452839808;7.93301924241536
53.7250462;86.8433054;20.0;120.0;4.163079918632921;-5.549020673180207;-0.0632201488732537;-1.020699500356888;-0.0744366268991536;6.937352638256871
53.7252382;86.8434206;21.0;120.0;3.636322942269509;-4.75670897933181;-0.0469052717446721;-0.9615580707657796;-0.061180789232181;5.987597594949822
53.725466;86.8435204;25.0;120.0;4.025218340127099;-4.181116697344719;-0.0560823901294993;-0.9982665443050882;-0.0703579076170082;5.80407311781933
53.7257114;86.843689;26.0;120.0;2.478873033301835;-3.5132015324627184;-0.023452635872336;-1.012542061792597;-0.0438462322830631;4.2997612200049895
53.7259638;86.8438134;25.0;120.0;4.218477706944687;-3.054846149590268;-0.0591414295911083;-1.0074436626899157;-0.0744366268991536;5.208755789087243
53.7262063;86.8440047;22.0;120.0;3.893323191703748;-2.3511868891220806;-0.0550627103089629;-1.0023452635872336;-0.0683185479759355;4.548524723985173
53.7267442;86.8443634;21.0;120.0;3.576637085688778;-1.8210829729191624;-0.0774956663607627;-1.0084633425104517;-0.0632201488732537;4.014309606306558
53.72695;86.8445436;25.0;0.0;4.1039326257756;-1.5652679293042526;-0.0367084735393086;-0.979912307535434;-0.0703579076170082;4.392456510819819
53.7271785;86.8446953;27.0;0.0;3.0335533395741705;-1.5572712512608915;-0.0499643112062812;-0.9992862241256244;-0.0530233506678902;3.4102838659618326
53.7274423;86.8448823;27.0;0.0;3.6307873142692473;-1.7495844464312642;-0.0469052717446721;-0.9952075048434792;-0.0632201488732537;4.03061563054208
53.7277097;86.8450729;28.0;0.0;2.9715502201437864;-1.9275540300280336;0.020393596410727;-0.9819516671765064;-0.0509839910268175;3.542032064830648
53.7279985;86.8452593;27.0;0.0;3.634648767532783;-2.030351962542545;-0.0244723156928724;-0.9788926277148976;-0.0622004690527174;4.163363982330071
53.7282563;86.8454147;25.0;0.0;3.734085426858893;-2.028370991496027;-0.0356887937187723;-0.9992862241256244;-0.0652595085143265;4.2495831024018855
53.7284919;86.8455991;22.0;0.0;4.072547914277209;-1.95211625883197;-0.020393596410727;-1.0166207810747423;-0.0723972672580809;4.516283903925253
53.7286897;86.8457457;21.0;0.0;3.733339933928669;-1.848412245773096;-0.0183542367696543;-0.968695829509534;-0.0632201488732537;4.165908276786451
53.7288875;86.8458667;20.0;0.0;3.986039607754309;-1.887378263806855;-0.0499643112062812;-1.0084633425104517;-0.0703579076170082;4.410578748607831
53.7290833;86.8459857;21.0;0.0;4.714045511587915;-1.8035844666268035;-0.0509839910268175;-1.0003059039461608;-0.0825940654634444;5.04754805632603
53.7292805;86.8461317;21.0;0.0;4.420200635471123;-1.7709839220542318;-0.0152951973080452;-1.015601101254206;-0.078515346181299;4.76180550348863
53.729464;86.846264;19.0;0.0;4.891003938593173;-1.6365065595095685;-0.0254919955134087;-1.012542061792597;-0.0866727847455898;5.157588883236723
53.7297319;86.8463783;18.0;0.0;5.217205129057043;-1.5578437053548035;-0.037728153359845;-0.9931681452024064;-0.0907515040277353;5.44495452529483
53.7298769;86.8464721;15.0;30.0;6.512566334045664;-1.408396340127743;-0.0520036708473539;-0.9901091057407974;-0.113184460079535;6.663317858845681
53.7300153;86.8465593;13.0;30.0;5.883145991168129;-1.2372415210938588;-0.0622004690527174;-1.0074436626899157;-0.1040073416947078;6.012157868292103
53.7301059;86.8466755;10.0;0.0;8.204888350383898;-1.177513998399555;-0.0122361578464362;-0.9758335882532884;-0.1407158152340165;8.288961441715793
53.7301906;86.8467858;10.0;0.0;8.57706538818961;-1.1279000298333184;-0.0010196798205363;-0.9870500662791885;-0.1488732537983073;8.650908055824262
53.7302821;86.8468773;11.0;0.0;6.972615234713358;-0.8975919742873384;-0.0066279188334862;-0.99214846538187;-0.1213418986438258;7.030154940893545
53.7303875;86.8470339;13.0;0.0;6.410093922980843;-0.8317390941444158;-0.0152951973080452;-0.9982665443050882;-0.1121647802589986;6.463847767794721
53.7304802;86.8473058;14.0;0.0;6.773782983043453;-0.72781508046974;-0.0071377587437544;-1.0043846232283062;-0.1193025390027531;6.812774885487419
53.7306062;86.8477902;13.0;0.0;7.071320344803937;-0.513717062704403;-0.0336494340776996;-1.0105027021515245;-0.1254206179259712;7.090035890160603
53.7306511;86.8480143;17.0;0.0;4.063426137400025;-0.272952313234537;0.0275313551544814;-1.0043846232283062;-0.0713775874375446;4.072676382297324
53.7307347;86.8483795;23.0;0.0;4.110041328021687;-0.3480176366729485;-0.0122361578464362;-1.0074436626899157;-0.0723972672580809;4.124767353080721
53.7308541;86.8487293;21.0;0.0;3.395991198527053;-0.1948965646916939;0.0509839910268175;-1.012542061792597;-0.0601611094116447;3.4019612371017485
53.7310236;86.84895;18.0;0.0;5.2676541129298124;-0.0045725315178418;-0.0040787192821454;-1.006423982869379;-0.092790863668808;5.267657676563829
53.7311722;86.8491242;14.0;0.0;6.174016405833996;0.1586651731010485;0.0163148771285816;-1.0084633425104517;-0.1091057407973896;6.176076375165566
53.7312905;86.8492169;12.0;0.0;7.442781091926718;0.1396823900419112;-0.040787192821454;-0.9982665443050882;-0.130519017028653;7.444203459573626
53.731412;86.8492616;10.0;0.0;7.838593945318848;-0.062989455368367;-0.0265116753339451;-0.99214846538187;-0.1366370959518711;7.838891859185577
53.7315058;86.8493042;10.0;0.0;7.30660111804784;-0.2623636187961553;-0.0132558376669725;-0.986030386458652;-0.1264402977465075;7.311322061293566
53.7316218;86.8492922;11.0;0.0;7.635751853390106;-0.350439528648475;-0.0173345569491179;-0.9962271846640156;-0.133578056490262;7.643808914190257
53.731877;86.8492402;13.0;0.0;4.892543766237404;-0.4274876371269335;-0.0010196798205363;-1.012542061792597;-0.0866727847455898;4.911184299554619
53.7320336;86.8492176;15.0;0.0;5.419896392734573;-0.5100791861377313;0.020393596410727;-0.9992862241256244;-0.0948302233098807;5.443884053034445
53.7322084;86.849162;16.0;0.0;5.278308263900897;-0.7536430652463475;0.003059039461609;-1.0043846232283062;-0.092790863668808;5.331840709950067
53.7324023;86.8491511;17.0;0.0;5.214833842347955;-0.8942536094736752;-0.0173345569491179;-0.9941878250229428;-0.0907515040277353;5.29098119522446
53.7325746;86.8490418;16.0;0.0;6.097424438274063;-1.0223965235977277;-0.0295707147955541;-1.001835423676965;-0.1070663811563169;6.182617072009233
53.7327239;86.8489351;14.0;0.0;5.351874617858647;-0.9721316537497378;0.037728153359845;-0.9788926277148976;-0.0917711838482716;5.43957951417734
53.7328401;86.8487953;11.0;0.0;7.00050729962356;-1.0857552572223468;-0.0438462322830631;-0.9788926277148976;-0.1203222188232894;7.08434114246019
53.7329277;86.8486781;10.0;0.0;7.42572893898526;-1.0134562902101405;-0.0387478331803813;-0.9850107066381156;-0.1284796573875803;7.4946677926393654
53.7330001;86.8485457;10.0;0.0;7.396883174288819;-1.1096621420774009;-0.0560823901294993;-0.9880697460997246;-0.1284796573875803;7.479864704533063
53.7331176;86.8482024;12.0;0.0;6.674864578388955;-1.116730385263056;-0.0300805547058223;-1.005914142959111;-0.1177730192719485;6.767703357341598
53.7331823;86.8479343;13.0;0.0;4.915929639672132;-1.2030076342971283;0.0010196798205363;-0.9839910268175792;-0.0846334251045171;5.060987317720831
53.7332059;86.8477019;13.0;0.0;7.523384297212246;-1.2812485826810087;-0.0265116753339451;-1.00336494340777;-0.1325583766697257;7.631750263412116
53.7332157;86.8474813;13.0;0.0;7.125914902698162;-1.3545769305150506;-0.0275313551544814;-0.98654022636892;-0.1233812582848985;7.253571522822118
53.7332275;86.8472627;12.0;30.0;7.159606522871143;-1.462546497571524;-0.023452635872336;-0.9819516671765066;-0.1233812582848985;7.307500109204728
53.7332386;86.8470434;11.0;0.0;7.798140580428987;-1.472595071310952;-0.0305903946160905;-0.9972468644845518;-0.1366370959518711;7.936023470758224
53.7332481;86.8468225;12.0;0.0;6.261541148006862;-1.3241807157754022;0.0127459977567043;-0.9850107066381156;-0.1080860609768532;6.400040201176346
53.7332605;86.8466045;13.0;0.0;5.879891139111786;-1.2908626475133578;-0.0050983991026817;-0.9901091057407974;-0.1019679820536351;6.019922937731337
53.7332733;86.8463869;15.0;0.0;4.376793018575298;-1.3069417869639166;-0.0428265524625267;-0.9982665443050882;-0.0764759865402263;4.567958852218103
53.7332825;86.8460889;17.0;0.0;5.330227489274965;-1.398216147553418;-0.0469052717446721;-1.0043846232283062;-0.0938105434893443;5.510765245155982
53.7333038;86.8457774;17.0;0.0;5.132189789273977;-1.323595012402378;-0.0367084735393086;-0.9870500662791885;-0.0887121443866625;5.300247475544336
53.7333295;86.8454703;18.0;0.0;4.263034006378392;-1.466190986646836;-0.0254919955134087;-0.9982665443050882;-0.0744366268991536;4.508195291987502
53.7333308;86.8451644;18.0;0.0;4.695932820640353;-1.6303274664507443;-0.0127459977567043;-1.0054043030488429;-0.0825940654634444;4.970906875439307
53.7333484;86.8448748;17.0;0.0;4.893960805694005;-1.9097578070583592;-0.0081574385642908;-1.0003059039461608;-0.0856531049250535;5.253388791351102
53.7333458;86.8444882;16.0;30.0;5.36088672695186;-2.2242931940893675;-0.0387478331803813;-0.9880697460997246;-0.092790863668808;5.8041440460292755
53.7333625;86.8442233;15.0;30.0;6.045762317985154;-2.472644479672095;-0.0397675130009177;-0.986030386458652;-0.104517181604976;6.53198240838969
53.733366;86.843894;14.0;30.0;5.445135303153899;-2.6551383171206293;-0.0356887937187723;-1.015601101254206;-0.0968695829509534;6.058096371195507
53.7333601;86.8436321;13.0;0.0;6.67935728358943;-2.8132780898438234;-0.0305903946160905;-0.99214846538187;-0.116243499541144;7.247708817611069
53.7333534;86.843395;13.0;0.0;6.294705743211602;-2.942795168839237;-0.0469052717446721;-0.9972468644845518;-0.1101254206179259;6.948781468997433
53.7333425;86.8431793;13.0;0.0;6.263872485924691;-2.963470948744912;-0.0774956663607627;-1.0003059039461608;-0.1101254206179259;6.929954124111078
53.7333282;86.8429346;14.0;0.0;4.94321036515108;-2.951311437098917;-0.0601611094116447;-1.0003059039461608;-0.0866727847455898;5.757533089090638
53.7333172;86.842642;17.0;30.0;5.551301997339503;-2.987913341601433;-0.0703579076170082;-0.9941878250229428;-0.0968695829509534;6.304722851779422
53.7333112;86.8423288;19.0;30.0;3.9472245662729697;-3.014430582516243;-0.0713775874375446;-1.0023452635872336;-0.0693382277964719;4.967138841766602
53.7333017;86.8416025;21.0;0.0;4.716186391931629;-2.8293311158308767;-0.0520036708473539;-0.9997960640358928;-0.0825940654634444;5.500021184343882
53.7333079;86.8412503;21.0;0.0;4.284981790669988;-2.6601207158358164;-0.0622004690527174;-0.9778729478943612;-0.0734169470786173;5.043925065615331
53.7333314;86.8408898;20.0;0.0;4.197833524501895;-2.513845092366136;-0.0632201488732537;-0.9982665443050882;-0.0734169470786173;4.893385355259574
53.7333797;86.8405285;20.0;0.0;4.079033007476557;-2.248894637331852;-0.0560823901294993;-0.9850107066381156;-0.0703579076170082;4.65823814337415
53.7334551;86.8402455;19.0;0.0;4.521985858310854;-1.9522891891715328;-0.0224329560517997;-1.0054043030488429;-0.0795350260018354;4.925473826794394
53.7335429;86.8399493;19.0;0.0;4.647853602458016;-1.7649382771428712;0.0071377587437544;-1.00336494340777;-0.0815743856429081;4.971679915240511
53.7336467;86.8396691;19.0;0.0;3.789644437001848;-1.6665242201829684;-0.020393596410727;-0.9850107066381156;-0.0652595085143265;4.1399424916452725
53.7337704;86.8393576;20.0;0.0;5.085628879824712;-1.7686659965712288;-0.020393596410727;-1.0023452635872336;-0.0892219842969307;5.3844420704014455
53.7339087;86.8391119;19.0;0.0;4.00609579181897;-1.5621613707692297;-0.0142755174875089;-0.9972468644845518;-0.0698480677067401;4.299925049573863
53.734047;86.8388662;18.0;0.0;5.214389415561063;-1.462256222181793;-0.0499643112062812;-0.9931681452024064;-0.0907515040277353;5.4157683359629525
53.7341624;86.8386232;16.0;0.0;4.585459574969751;-1.4146339226990392;-0.003059039461609;-1.0043846232283062;-0.0805547058223717;4.798712119585323
53.7342445;86.8383981;18.0;0.0;3.3652021041904323;-1.6036336878854158;0.0275313551544814;-1.0054043030488429;-0.0591414295911083;3.727865901891501
53.7342636;86.8380588;22.0;0.0;4.502827423018294;-1.7105848594654158;0.0112164780258998;-0.9839910268175792;-0.0774956663607627;4.816812345555637
53.7342698;86.837681;25.0;30.0;2.426281165377066;-1.597019431754671;-0.0571020699500356;-0.9850107066381156;-0.0418068726419904;2.9052662537636866
53.7342543;86.8372559;26.0;30.0;3.327860956627117;-1.5338872446889995;-0.0550627103089629;-1.015601101254206;-0.0591414295911083;3.664764730256136
53.7342534;86.8368198;26.0;30.0;2.5798613943766155;-1.541396270963136;-0.0387478331803813;-1.017640460895279;-0.0458855919241358;3.0055097193171894
53.734313;86.836265;25.0;30.0;4.198363930404765;-1.5722587277243374;-0.061180789232181;-0.9982665443050882;-0.0734169470786173;4.483525430729726
53.7344159;86.8358559;25.0;30.0;3.0393458202037285;-1.6819538811946924;-0.0672988681553992;-1.015601101254206;-0.0540430304884266;3.474351883576383
53.7345774;86.8355054;27.0;30.0;2.334397765416598;-1.6820165373321891;-0.0672988681553992;-0.9982665443050882;-0.040787192821454;2.878041295168638
53.7348669;86.8351293;30.0;30.0;0.3465194123431789;-1.6701907444523652;-0.0469052717446721;-1.0105027021515245;-0.0061180789232181;1.7064035075275863
53.7351126;86.8347862;30.0;30.0;0.9151795119332652;-1.739769344158821;0.0356887937187723;-1.020699500356888;-0.0163148771285816;1.9661191723632432
53.7353576;86.8343912;29.0;30.0;0.6801221670461368;-1.6529360108390554;-0.0428265524625267;-1.0298766187417152;-0.0122361578464362;1.7879031661787192
53.7355641;86.8339833;27.0;0.0;0.5202026535881135;-1.589938278084176;-0.0224329560517997;-1.0105027021515245;-0.0091771183848271;1.6730265289093929
53.7357805;86.8337389;19.0;30.0;-2.2999638626126013;-1.6199667805268465;-0.0438462322830631;-1.01458142143367;0.040787192821454;2.813547339466641
53.7359067;86.8335835;14.0;0.0;0.5856894754311408;-1.4352357255212875;0.0499643112062812;-0.9962271846640156;-0.0101967982053635;1.5509449319165847
53.7359439;86.8333647;13.0;0.0;2.36621591575182;-1.245749438329651;0.0295707147955541;-1.0359946976649332;-0.0428265524625267;2.6742744530487865
53.7359449;86.8330585;17.0;30.0;5.961373051267234;-0.9570114294397796;-0.0520036708473539;-1.0533292546140511;-0.1101254206179259;6.037925464448462
53.7358964;86.832754;16.0;0.0;4.49955248864891;-1.001833139368347;-0.0311002345263587;-0.9972468644845518;-0.078515346181299;4.609838333589458
53.7358435;86.8324963;14.0;0.0;5.377620807367781;-1.05272317345871;-0.0346691138982359;-1.017640460895279;-0.095849903130417;5.479802329941324
53.7357983;86.8322719;14.0;0.0;5.690226783972203;-1.113380553445146;-0.0448659121035994;-0.991638625471602;-0.0989089425920261;5.798302342918429
53.7357657;86.8320089;18.0;0.0;3.9834762397903;-1.323765575476724;-0.0316100744366268;-0.9952075048434792;-0.0693382277964719;4.197789590796206
53.7357245;86.8314813;26.0;0.0;1.8367993772480176;-1.6105166595059963;-0.0418068726419904;-1.0166207810747423;-0.0326297542571632;2.443224033404461
53.7356669;86.8310397;28.0;0.0;0.4556046058557582;-1.7427988076979022;-0.0091771183848271;-1.0257978994595698;-0.0081574385642908;1.8013904242257035
53.7356081;86.8305457;29.0;0.0;1.0983628539304482;-1.8863338935829923;0.0040787192821454;-1.0105027021515245;-0.0193739165901906;2.182813128264807
53.7355489;86.8300513;32.0;0.0;2.933331820500975;-1.7380875998111252;-0.0397675130009177;-0.9941878250229428;-0.0509839910268175;3.409833651202217
53.7354824;86.8294728;33.0;0.0;2.6674651137702274;-2.061290738378432;-0.0265116753339451;-1.006423982869379;-0.0469052717446721;3.371200455362292
53.7354062;86.8288846;34.0;30.0;-0.0600786171450505;-2.380382832836317;-0.0367084735393086;-0.971754868971143;0.0010196798205363;2.381423814261018
53.7353486;86.828315;34.0;30.0;0.997640150186536;-2.6692834881877663;-0.0672988681553992;-0.9931681452024064;-0.0173345569491179;2.850419152902089
53.7352874;86.8277418;33.0;30.0;1.379642470408226;-2.445583722112127;-0.0326297542571632;-1.015601101254206;-0.0244723156928724;2.8080879239932646
53.7352447;86.8271871;33.0;30.0;0.5228216750700602;-2.0107348109071848;-0.0683185479759355;-1.00336494340777;-0.0091771183848271;2.078717010012319
53.7352021;86.8266325;32.0;30.0;1.681797804861984;-1.9289860023749985;-0.037728153359845;-1.006423982869379;-0.0295707147955541;2.559463667910371
53.7351469;86.8260909;31.0;30.0;1.2454756834210985;-1.7349655719251578;-0.0428265524625267;-0.9839910268175792;-0.0214132762312633;2.1361529269588044
53.7350377;86.8250345;31.0;0.0;0.5562572376581827;-1.634812560755571;-0.0316100744366268;-0.9972468644845518;-0.0096869582950953;1.7271460332169912
53.7349973;86.8244309;33.0;0.0;0.9827171992247046;-1.575292819328184;-0.0112164780258998;-1.0105027021515245;-0.0173345569491179;1.8567192490137792
53.7349029;86.8238245;35.0;0.0;0.4560705301541914;-1.594265923795804;0.0050983991026817;-1.0247782196390334;-0.0081574385642908;1.6582250022011558
53.7347797;86.8232405;35.0;0.0;-0.1729775926151799;-1.6323919461018648;-0.0591414295911083;-1.011522381972061;0.003059039461609;1.6425962443459003
53.7346487;86.8226743;36.0;0.0;0.7025875864797811;-1.4193809439621372;-0.0560823901294993;-0.9962271846640156;-0.0122361578464362;1.584745031618957
53.7345332;86.822098;36.0;30.0;0.5133319006729926;-0.9874008188448092;-0.0723972672580809;-1.0217191801774244;-0.0091771183848271;1.1152180870172368
53.7344804;86.8214564;36.0;0.0;0.1174042284365965;-1.0073672163547136;0.0091771183848271;-0.9952075048434792;-0.0020393596410727;1.0142271347892868
53.734435;86.8206686;35.0;0.0;-1.4201284498222504;-0.9090339435415709;0.0469052717446721;-0.986030386458652;0.0244723156928724;1.6868039687594791
53.7342977;86.8200705;33.0;0.0;-2.008864269980096;-1.1003099072356617;0.0418068726419904;-1.0166207810747423;0.0356887937187723;2.290843809988738
53.733735;86.8193286;28.0;0.0;-1.8788064069620007;-1.380847362932489;0.0020393596410727;-1.0257978994595698;0.0336494340776996;2.33166402244123
53.7334343;86.8192583;27.0;90.0;-2.3939462356884453;-1.540151034374677;-0.0601611094116447;-0.9493219129193432;0.0397675130009177;2.8472202491444007
53.7331465;86.8191497;29.0;90.0;-4.566869903028449;-1.648327694096293;-0.0305903946160905;-0.9697155093300704;0.0774956663607627;4.855329100128501
53.732842;86.8190244;34.0;90.0;-1.2432025780420966;-1.803306292719593;-0.058121749770572;-0.9850107066381156;0.0214132762312633;2.1910829224858173
53.7325045;86.8188405;36.0;90.0;-0.582340143028997;-2.2190731551754954;-0.0418068726419904;-1.0023452635872336;0.0101967982053635;2.29459223497415
53.7320813;86.8185197;36.0;90.0;0.059515856130603;-2.285744595721852;-0.0489446313857448;-0.980422147445702;-0.0010196798205363;2.287043084627856
53.7317353;86.8182761;36.0;90.0;-0.6030056835167257;-2.3137963374917048;-0.0163148771285816;-0.968695829509534;0.0101967982053635;2.3911368678850695
53.7313136;86.8179824;35.0;90.0;-0.5699865994001377;-2.2366915271220105;-0.0193739165901906;-1.0247782196390334;0.0101967982053635;2.3082567144144015
53.7309029;86.8176741;33.0;90.0;-0.8579045197467073;-2.7979888553244794;-0.0683185479759355;-0.985010706638116;0.014785357397777;2.9273553292211316
53.7304939;86.8174187;32.0;90.0;-0.9627807180500252;-3.4879289828019058;-0.1453043744264301;-1.021209340267156;0.0173345569491179;3.621285498458512
53.7302151;86.8171143;31.0;90.0;-2.225961832354096;-4.251837627756383;-0.061180789232181;-0.968695829509534;0.037728153359845;4.7996637778987505
53.7299849;86.8167561;31.0;90.0;-1.8215836158345309;-4.699606619765941;-0.1040073416947078;-1.020699500356888;0.0326297542571632;5.04135763233983
53.7297981;86.8163133;30.0;90.0;-0.5013760284900223;-4.892036400814796;-0.0316100744366268;-1.0482308555113695;0.0091771183848271;4.917763441407821
53.7296524;86.8158604;30.0;90.0;-1.175623547532571;-4.994388964780244;-0.0346691138982359;-0.9931681452024064;0.020393596410727;5.131005145630848
53.7294835;86.8153843;33.0;90.0;1.5015905006485806;-5.015050234109272;-0.0418068726419904;-1.0105027021515245;-0.0265116753339451;5.23519347272645
53.7293182;86.8148606;37.0;90.0;1.0336951172875042;-5.497851306655309;-0.1193025390027531;-1.067094932191292;-0.0193739165901906;5.595455985119355
53.7291124;86.8141172;38.0;90.0;0.1157049253382474;-5.556310360429094;-0.0948302233098807;-1.0054043030488429;-0.0020393596410727;5.558323958030175
53.7288404;86.8129492;34.0;90.0;0.4033571840113387;-5.395399555973158;-0.0254919955134087;-1.0135617416131335;-0.0071377587437544;5.4105159854051035
53.7286804;86.8124052;32.0;90.0;-2.102007689951068;-4.956123675485449;-0.1376567757724074;-1.0186601407158151;0.037728153359845;5.385215650578616
53.7286251;86.8118635;28.0;90.0;-0.7741321861553483;-4.3389518055606455;-0.1611094116447435;-1.044152136229224;0.0142755174875089;4.4104126400077535
53.728714;86.8114148;24.0;90.0;-0.1187608873300783;-3.369243619375085;-0.1937391659019068;-0.9646171102273886;0.0020393596410727;3.3768982187006342
53.7292435;86.8110995;26.0;90.0;1.9842874224158316;-2.6264888175762597;-0.0825940654634444;-0.9972468644845518;-0.0346691138982359;3.292819743511719
53.7295296;86.810976;30.0;90.0;2.6360029425436835;-2.193833252402855;-0.0428265524625267;-1.0400734169470789;-0.0479249515652085;3.429759461834499
53.7298549;86.8108149;33.0;90.0;0.2802191322948867;-2.103801655589177;-0.0265116753339451;-1.0421127765881513;-0.0050983991026817;2.1225472991414995
53.7301695;86.8106431;35.0;90.0;-0.4900439607336713;-1.9748220930836125;-0.023452635872336;-1.072703171204242;0.0091771183848271;2.0348502178077
53.7305219;86.8105091;35.0;90.0;0.2432576319222997;-2.01810020371702;-0.0163148771285816;-0.9605383909452432;-0.0040787192821454;2.032773692014643
53.7309561;86.8103289;36.0;90.0;-1.0797635982406102;-1.486262346082353;0.0071377587437544;-0.9737942286122158;0.0183542367696543;1.8370944823464073
53.7313461;86.8100021;34.0;90.0;0.4471126781831157;-0.9931628027032235;-0.003059039461609;-0.9146527990211074;-0.0071377587437544;1.0891700773468889
53.7316072;86.8095976;30.0;90.0;-1.9631476124892535;-0.5781051614370691;0.1453043744264301;-1.0910574079738962;0.037728153359845;2.051649942687566
53.7317931;86.8091179;27.0;0.0;1.9160695896721969;-0.4319078381626774;0.0948302233098807;-0.9707351891506067;-0.0326297542571632;1.9664332748369422
53.7318604;86.8086732;22.0;0.0;4.407412770384465;-0.2980527981279883;0.0469052717446721;-0.9646171102273886;-0.0744366268991536;4.417728251436188
53.7318477;86.8083021;19.0;0.0;4.035619532023047;0.2707254505023009;0.0040787192821454;-0.9972468644845518;-0.0703579076170082;4.044692066492401
53.7318242;86.807997;18.0;60.0;4.187562985808936;0.5453938840001485;-0.0530233506678902;-1.0013255837666972;-0.0734169470786173;4.223262923917699
53.7317992;86.8076648;22.0;60.0;3.9763901967456263;0.8192616617235599;-0.1458142143366982;-0.9941878250229428;-0.06984806770674;4.062527594029042
53.7317761;86.8072577;28.0;60.0;-0.3366197864536388;0.6435266530615759;-0.0948302233098807;-1.0370143774854697;0.0061180789232181;0.7324153228092166
53.7317836;86.8067788;30.0;60.0;-2.0174708613315318;0.2799752967240397;-0.0489446313857448;-0.9829713469970428;0.0346691138982359;2.0373930450551248
53.7317814;86.8062646;30.0;60.0;-1.7800238820525862;-0.2966138214803344;-0.0326297542571632;-1.0166207810747423;0.0316100744366268;1.804862731798075
53.7317881;86.8057337;30.0;60.0;-3.228580641458016;-0.9488248503814432;0.0316100744366268;-1.0298766187417152;0.058121749770572;3.365263845808336
53.7317871;86.8052207;28.0;60.0;-3.840156206395561;-1.4259964276443335;0.0662791883348628;-1.0232486999082289;0.0688283878862037;4.096908399266339
53.7317363;86.8047347;26.0;60.0;-4.365804208680224;-2.0495119166246183;-0.0346691138982359;-1.0278372591006424;0.078515346181299;4.823064112405595
53.731712;86.8042496;23.0;60.0;-2.984979372370549;-2.5219561006855167;-0.0214132762312633;-1.0166207810747423;0.0530233506678902;3.9077900347461774
53.7316811;86.8038603;23.0;60.0;-4.170031532302792;-2.9598047782499943;0.0071377587437544;-1.0069338227796472;0.0734169470786173;5.113673655343187
53.7315887;86.8032303;23.0;60.0;-5.17665071981601;-3.0537363421561645;0.0229427959620679;-0.9676761496889976;0.0876924645661262;6.0102865733892825
53.7314897;86.8028753;20.0;60.0;-4.073689344314728;-2.843665230165114;0.0397675130009177;-0.9727745487916796;0.0693382277964719;4.968194669125158
53.7313941;86.8025749;20.0;60.0;-2.387618884482688;-2.3184000461575733;-0.0254919955134087;-0.9778729478943612;0.040787192821454;3.328115465754914
53.7312804;86.8022564;26.0;60.0;-0.465508231357306;-2.001412374223828;-0.0734169470786173;-1.0013255837666972;0.0081574385642908;2.056146748964191
53.7311967;86.8018143;32.0;60.0;-1.093855167443954;-1.6489142751205654;-0.1794636484143978;-1.0257978994595698;0.0198837565004588;1.986868041703431
53.7311178;86.801249;34.0;60.0;0.3979410826605244;-1.7475796003611113;-0.1978178851840522;-1.0084633425104517;-0.0071377587437544;1.8031981257105452
53.7311843;86.8006755;28.0;60.0;0.5300095891104085;-2.072270706912201;-0.1091057407973896;-0.986030386458652;-0.0091771183848271;2.1417563143248404
53.7313334;86.8002614;26.0;60.0;-0.4024401449284687;-2.4446437566335835;-0.0346691138982359;-1.015601101254206;0.0071377587437544;2.477789965787273
53.7314903;86.7996759;32.0;60.0;-0.2890744909758964;-2.642212555500347;0.0050983991026817;-1.0105027021515245;0.0050983991026817;2.6579836800571326
53.7314535;86.7983847;40.0;60.0;-0.3792488203414981;-2.5214865209337023;-0.0448659121035994;-1.0003059039461608;0.0066279188334863;2.5502425165167435
53.7314431;86.7974783;39.0;60.0;1.918756302840751;-2.312014753476878;0.0091771183848271;-1.0043846232283062;-0.0336494340776996;3.0045169644200223
53.731455;86.7967734;38.0;60.0;-0.7957172884736834;-2.379426623017679;0.0040787192821454;-1.0278372591006424;0.0142755174875089;2.5089547013551696
53.7314751;86.7961023;38.0;60.0;0.8184550356455645;-2.327460662450326;0.0010196798205363;-0.9992862241256244;-0.0142755174875089;2.4671730422437395
53.7313672;86.7947912;36.0;0.0;1.5902751090407512;-1.937545633817042;0.0825940654634444;-0.951361272560416;-0.0265116753339451;2.5079632742940707
53.7312032;86.7942432;33.0;0.0;2.5764646964616715;-1.5438178039828756;0.040787192821454;-0.9962271846640156;-0.0448659121035994;3.0038653996319633
53.7309913;86.7938265;31.0;0.0;2.4292572320776533;-0.8424386423466618;-0.0642398286937901;-1.0074436626899157;-0.0428265524625267;2.571987620753855
53.7307444;86.793426;31.0;30.0;3.4054482142742497;-0.4810537806085181;-0.0275313551544814;-0.9763434281635566;-0.058121749770572;3.4393674208287295
53.7305115;86.7930651;32.0;30.0;2.084889589604762;-0.3013782190021643;-0.1040073416947078;-0.974813908432752;-0.0356887937187723;2.1091256384714563
53.7302721;86.7926721;31.0;30.0;3.5694416408268155;-0.4016400394591573;-0.1080860609768532;-0.974813908432752;-0.061180789232181;3.593593041113959
53.7299588;86.7918724;23.0;0.0;3.3991623822568293;-0.8981284393467306;-0.0316100744366268;-0.9952075048434792;-0.0591414295911083;3.5159548903987954
53.7298468;86.79153;19.0;0.0;4.542588137971695;-1.053543298742595;0.0183542367696543;-0.9880697460997246;-0.078515346181299;4.663196044728762
53.7297457;86.7912753;17.0;0.0;5.5347373293708015;-1.1725923337062718;-0.0112164780258998;-0.9890894259202612;-0.095849903130417;5.657598067694157
53.7296438;86.7910454;18.0;30.0;6.5661886486538;-1.2651586853458614;-0.0356887937187723;-0.9737942286122158;-0.1121647802589986;6.6870571673056
53.7295299;86.7908035;19.0;0.0;3.9700704938513263;-1.3717064801718837;0.003059039461609;-1.006423982869379;-0.06984806770674;4.200362811902905
53.729364;86.7904328;22.0;0.0;2.607139691386555;-1.4661247116797056;0.0244723156928724;-0.9850107066381156;-0.0448659121035994;2.991203425853289
53.7291788;86.7901452;26.0;0.0;1.990660073288947;-1.5799542217904954;0.020393596410727;-0.9972468644845518;-0.0346691138982359;2.5415347271117366
53.7289474;86.7899394;30.0;60.0;1.6857534633364526;-1.6471549905487883;-0.0423167125522585;-1.003874783318038;-0.0295707147955541;2.3572600633366387
53.7283455;86.7893887;33.0;60.0;-0.4267081372216005;-1.2630614238507492;-0.0086672784745589;-1.026817579280106;0.0076475986540226;1.3332213306526286
53.7280482;86.7891682;32.0;60.0;-2.1708108634226617;-0.7923830290984374;-0.0652595085143265;-0.9931681452024064;0.037728153359845;2.311828166842983
