lat;lon;vel;class;acc_X;acc_Y;acc_Z;fb_tilt;tilt;acc
53.7279963;86.8436443;6.0;0.0;7.434290607487972;-4.655157913663025;-0.0774956663607627;-0.9972468644845518;-0.130519017028653;8.771840035934767
53.7280542;86.8435742;9.0;30.0;4.277027428852013;-3.9512998247772986;-0.0214132762312633;-1.0359946976649332;-0.0774956663607627;5.822902408664989
53.728279;86.843543;18.0;0.0;4.467690032836607;-3.32197203098156;-0.1070663811563169;-0.986030386458652;-0.0774956663607627;5.568412306403435
53.7284443;86.8435803;17.0;0.0;4.145675677183367;-2.7618275283828524;-0.0173345569491179;-1.026817579280106;-0.0744366268991536;4.9814273661057955
53.7286017;86.8436865;15.0;0.0;5.559319764087746;-2.265519313088218;-0.1254206179259712;-1.0400734169470789;-0.1019679820536351;6.004526986262388
53.7287477;86.8438069;14.0;30.0;2.039424088718739;-1.827700381204699;-0.0917711838482716;-0.8973182420719894;-0.032119914346895;2.740102415474096
53.7290438;86.844103;21.0;30.0;0.22222395538119;-1.4430237288393366;0.0703579076170082;-1.0492505353319057;-0.0040787192821454;1.4617288406208888
53.7292345;86.8443193;21.0;30.0;2.859232248092906;-1.106142352099175;0.0642398286937901;-0.9778729478943612;-0.0489446313857448;3.0664126772553817
53.7294262;86.8444598;17.0;30.0;3.890944594844402;-0.8117092470912546;-0.0132558376669725;-1.0043846232283062;-0.0683185479759355;3.974732375795202
53.7296141;86.8445453;17.0;30.0;5.534634806673797;-0.5543774099226191;-0.0275313551544814;-1.0308962985622514;-0.0999286224125624;5.562398289532515
53.7297723;86.8446779;15.0;30.0;4.904492489069596;-0.32879983670031;-0.0469052717446721;-1.026817579280106;-0.0882023044763944;4.915725380091088
53.7299066;86.8448378;17.0;30.0;4.989612687288338;-0.1296295235313698;-0.0469052717446721;-0.991638625471602;-0.0866727847455898;4.991516672018352
53.7300538;86.844985;15.0;0.0;6.057483355410546;0.0484805334771598;-0.0193739165901906;-0.979912307535434;-0.1040073416947078;6.057708338294778
53.73017;86.8451524;11.0;0.0;7.653210304554614;0.210877338218242;-0.0040787192821454;-0.9788926277148976;-0.1315386968491893;7.656116107627021
53.7302577;86.8452657;11.0;0.0;8.259751740853538;0.3455457877320895;0.0193739165901906;-0.9972468644845518;-0.1447945345161619;8.266999217406306
53.7303237;86.8454341;9.0;30.0;8.877697339361994;0.7769301002236959;0.0254919955134087;-0.9788926277148976;-0.1529519730804527;8.911665403940157
53.730375;86.8455366;9.0;30.0;8.06599467516788;0.8356889452175156;0.0397675130009177;-0.99214846538187;-0.1407158152340165;8.109268004455497
53.7304329;86.8456713;10.0;30.0;8.931072038936378;1.3319238096877384;0.0876924645661262;-0.9758335882532884;-0.1539716529009891;9.030269030755727
53.7304887;86.8458039;11.0;30.0;5.8991142039859525;1.3766291523519705;0.0193739165901906;-1.006423982869379;-0.1040073416947078;6.057642409668812
53.7305609;86.8459785;18.0;30.0;4.276905358445998;1.3065067022016672;0.0163148771285816;-0.9952075048434792;-0.0744366268991536;4.472040404917837
53.7306394;86.8462618;22.0;30.0;3.20948459098522;1.690615586221493;0.0010196798205363;-0.9819516671765066;-0.0550627103089629;3.627529936457251
53.7307269;86.8466565;23.0;30.0;1.2615446326652315;2.133813476891377;0.0346691138982359;-0.971754868971143;-0.0214132762312633;2.4790838553441894
53.730799;86.8470102;25.0;30.0;1.7411584689850552;2.4047562495107786;-0.0010196798205363;-0.9727745487916796;-0.0295707147955541;2.96892008538904
53.7309112;86.8474296;27.0;30.0;0.5872625558194438;2.561331488950397;0.0193739165901906;-1.0941164474355052;-0.0112164780258998;2.6278644665203887
53.7309929;86.8478697;26.0;30.0;2.771902687431771;2.4765133405696456;-0.0050983991026817;-1.0951361272560416;-0.0530233506678902;3.7170672348350533
53.7310883;86.8482979;24.0;30.0;4.152266324344583;2.17082879474653;0.0448659121035994;-0.9962271846640156;-0.0723972672580809;4.685704454450327
53.7311948;86.8486348;20.0;30.0;4.351502867932807;2.1007969108113853;0.1182828591822167;-1.011522381972061;-0.0774956663607627;4.833520011842138
53.7313298;86.8489746;13.0;30.0;5.977604140278767;1.934080225666855;0.0795350260018354;-0.9901091057407974;-0.1040073416947078;6.28321123292497
53.7316794;86.8493242;11.0;30.0;6.626713136033274;1.7531668108433909;0.0458855919241358;-0.9819516671765066;-0.1142041399000713;6.854854217375084
53.7319436;86.8493324;16.0;0.0;4.8979760563495;1.6257529962023134;0.0672988681553992;-0.9972468644845518;-0.0856531049250535;5.161179263587809
53.7321378;86.8492962;17.0;0.0;4.672143381769886;1.5549397747065263;0.003059039461609;-1.0043846232283062;-0.0820842255531763;4.924101018511192
53.732312;86.8492144;18.0;0.0;4.615692489504218;1.663868514231066;0.0071377587437544;-0.99775670439482;-0.0805547058223717;4.906437255067574
53.7324943;86.8491407;17.0;0.0;4.77794191666964;1.532168091403955;0.0091771183848271;-1.0003059039461608;-0.0836137452839808;5.017604232986799
53.7326461;86.8490365;15.0;0.0;5.246734337281623;1.325710436057569;0.0193739165901906;-0.9880697460997246;-0.0907515040277353;5.411663765878847
53.7327943;86.8489031;13.0;30.0;6.133421705994143;1.198544198598132;0.0152951973080452;-0.9962271846640156;-0.1070663811563169;6.249448292658644
53.7328962;86.8487746;11.0;0.0;7.217159803786138;1.1090665127095196;-0.0142755174875089;-1.006423982869379;-0.1274599775670439;7.301892080372015
53.7329932;86.8485388;11.0;0.0;6.24255483750414;0.7827504562661219;-0.0193739165901906;-0.9972468644845518;-0.1091057407973896;6.291467597045637
53.7330643;86.8483283;13.0;0.0;6.027021913785643;0.4598704923934036;0.0071377587437544;-1.0043846232283062;-0.1060467013357805;6.0445450586976675
53.733123;86.8480286;14.0;30.0;6.539198812636988;0.0516570204028235;0.0520036708473539;-0.986030386458652;-0.113184460079535;6.539609616844991
53.7331541;86.8478037;14.0;0.0;6.050664909897222;-0.2471092559160728;-0.0173345569491179;-1.0003059039461608;-0.1060467013357805;6.055733590828247
53.7331731;86.8475155;14.0;0.0;5.41549991288634;-0.2065777661450027;0.003059039461609;-1.0003059039461608;-0.0948302233098807;5.419439365622596
53.7331944;86.8473064;13.0;0.0;6.9151754450461365;-0.2589302348469063;0.0193739165901906;-1.0003059039461608;-0.1213418986438258;6.920048529521376
53.7332041;86.8470601;12.0;0.0;7.44397259193467;-0.2995055908248649;0.003059039461609;-0.9911287855613338;-0.1294993372081166;7.449996033967558
53.7332032;86.84688;12.0;0.0;6.218333695117846;-0.139986025281203;-0.0071377587437544;-1.0013255837666972;-0.1091057407973896;6.219913261349541
53.7331986;86.846645;14.0;0.0;6.008700439807869;-0.2374924771752182;-0.0101967982053635;-1.0074436626899157;-0.1060467013357805;6.013400670731642
53.7331977;86.8463881;16.0;0.0;4.8974517851016826;-0.2457371486888274;-0.0010196798205363;-1.011522381972061;-0.0866727847455898;4.903613134555815
53.7331979;86.8460811;17.0;0.0;4.349320643159654;-0.2019198333064488;0.0152951973080452;-1.0054043030488429;-0.0764759865402263;4.354032110487692
53.7332215;86.8457463;18.0;0.0;4.023499515959398;-0.1899866580414246;-0.0387478331803813;-0.9850107066381156;-0.0693382277964719;4.028168899107315
53.7332266;86.845393;19.0;0.0;5.170148408461561;-0.2207985018871939;-0.0356887937187723;-1.0023452635872336;-0.0907515040277353;5.174984080550426
53.7332459;86.8451051;18.0;0.0;5.326390712760459;-0.390273298476264;-0.0112164780258998;-0.9952075048434792;-0.092790863668808;5.340681331240773
53.733273;86.8447738;18.0;0.0;5.353971729822754;-0.5592401779228838;-0.003059039461609;-0.9901091057407974;-0.092790863668808;5.383100613778912
53.7332897;86.8444321;17.0;0.0;5.016977385571179;-0.6054497657808093;-0.0081574385642908;-1.0105027021515245;-0.0887121443866625;5.053384811195422
53.7333005;86.8441101;16.0;0.0;5.547226802738175;-0.5146772609020708;0.0050983991026817;-0.99214846538187;-0.0963597430406852;5.571054108297626
53.7333106;86.8436082;14.0;0.0;5.549598634740588;-0.6619752473838697;-0.0081574385642908;-1.0074436626899153;-0.0978892627714897;5.588946482000652
53.7333144;86.843356;14.0;0.0;5.905269667034606;-0.7275774916543201;0.0173345569491179;-1.0054043030488429;-0.1040073416947078;5.949947842933215
53.7333179;86.8431035;14.0;0.0;4.778102520644402;-0.8148754617097758;0.0040787192821454;-1.0003059039461608;-0.0836137452839808;4.8470921542545575
53.7333163;86.8428715;15.0;0.0;5.83214760177423;-0.7334680206657757;-0.0214132762312633;-0.9880697460997246;-0.1009483022330988;5.878127211503612
53.7333051;86.8426043;17.0;0.0;3.97732137546212;-0.7041790048513968;0.0040787192821454;-0.9972468644845518;-0.0693382277964719;4.039179375879756
53.7332966;86.8423142;19.0;0.0;3.705532272318042;-0.6611874217859435;-0.020393596410727;-1.0074436626899157;-0.0652595085143265;3.76411398959875
53.7332854;86.8419702;21.0;0.0;3.891858308359711;-0.6037750295582629;-0.0418068726419904;-1.00336494340777;-0.0683185479759355;3.938635955920107
53.7332873;86.8414857;22.0;0.0;3.998841456311977;-0.271604481963449;-0.0265116753339451;-1.020699500356888;-0.0713775874375446;4.008142319862275
53.7333145;86.8411289;22.0;0.0;3.388217640161398;-0.0458867866909494;-0.0142755174875089;-1.0074436626899157;-0.0596512695013764;3.3885584198436405
53.7333714;86.8406482;20.0;0.0;4.003008211621061;-0.0989364412346506;0.0020393596410727;-1.0054043030488429;-0.0703579076170082;4.004231177229602
53.7334426;86.8402842;20.0;0.0;5.0664878965826246;0.0579858628080523;-0.0061180789232181;-0.9890894259202612;-0.0876924645661262;5.066823403020233
53.7335076;86.8399396;20.0;0.0;3.795733941672253;-0.0390129383832331;-0.0214132762312633;-0.9987763842153564;-0.0662791883348628;3.795994822668101
53.733615;86.8396118;20.0;0.0;3.438152790139609;-0.1041519578007722;-0.0086672784745589;-1.0013255837666972;-0.0601611094116447;3.4397408856445377
53.733721;86.8393082;20.0;0.0;3.590658255728489;0.153375696803253;0.0081574385642908;-1.0074436626899157;-0.0632201488732537;3.5939417576812467
53.7338631;86.8390663;20.0;0.0;3.295074095614188;-0.191735041543464;0.0091771183848271;-1.009483022330988;-0.058121749770572;3.300660515903625
53.7340153;86.8388345;19.0;0.0;5.06095007183424;-0.0843755050658422;0.0530233506678902;-1.0003059039461608;-0.0887121443866625;5.061931087161319
53.7341419;86.8386027;17.0;0.0;4.043876506915775;-0.1701052470576365;0.003059039461609;-0.9952075048434792;-0.0703579076170082;4.047453811470156
53.7342102;86.838287;21.0;30.0;4.031008022892603;-0.2732218760976054;0.0163148771285816;-0.9982665443050882;-0.0703579076170082;4.040289847203855
53.7342526;86.8378942;24.0;30.0;3.0311568560835846;-0.3639876527810143;0.0152951973080452;-0.9819516671765066;-0.0520036708473539;3.0529711496540948
53.7342662;86.8374982;26.0;30.0;2.588659874641312;-0.4731488445569126;0.0305903946160905;-1.0370143774854697;-0.0469052717446721;2.631722923851651
53.7342756;86.8365092;27.0;30.0;4.680091393417462;-0.7676200897438542;-0.0367084735393086;-1.020699500356888;-0.0836137452839808;4.742767500621146
53.7343396;86.8361124;26.0;0.0;3.4275119064210613;-1.0109953923284902;-0.0795350260018354;-1.0013255837666972;-0.0601611094116447;3.574391608697722
53.7344844;86.8356172;27.0;0.0;2.3953910043601456;-1.215558666570558;-0.0152951973080452;-0.9992862241256244;-0.0418068726419904;2.6862082716544884
53.7347568;86.8351984;32.0;0.0;1.309678232615693;-1.3432824190587171;-0.0795350260018354;-1.0227388599979603;-0.023452635872336;1.8777621123829071
53.7352281;86.8344153;33.0;0.0;0.2902490971058428;-1.43022439451947;-0.0020393596410727;-1.006423982869379;-0.0050983991026817;1.4593801821448333
53.7354795;86.8340523;31.0;0.0;0.7014524398781536;-1.6630291097970145;-0.0163148771285816;-0.9992862241256244;-0.0122361578464362;1.8049840776746442
53.7357396;86.833698;31.0;0.0;0.5629715215757489;-1.858585188712078;-0.1274599775670439;-1.0298766187417152;-0.0101967982053635;1.9461556678967424
53.7360448;86.8335168;29.0;60.0;-1.296601477139148;-2.004971020847536;0.0448659121035994;-0.9901091057407974;0.0224329560517997;2.3881158127332767
53.7363417;86.8334041;29.0;0.0;0.1185110223880122;-2.0736043865477685;-0.0622004690527174;-0.9839910268175792;-0.0020393596410727;2.0779193710748203
53.7366134;86.8332662;30.0;0.0;-0.2399472460890153;-1.9481930387662243;-0.0163148771285816;-0.9737942286122158;0.0040787192821454;1.9629816536123301
53.7369328;86.8331504;31.0;0.0;1.1931760816653576;-2.099782286482463;-0.0387478331803813;-0.9783827878046294;-0.020393596410727;2.4154205031546763
53.7372536;86.8330872;33.0;0.0;1.7968915826986631;-2.2105758766352195;-0.020393596410727;-0.9911287855613338;-0.0311002345263587;2.8488385291394525
53.7375908;86.8330404;36.0;0.0;0.9819378711634544;-2.18864183153586;-0.0418068726419904;-1.0105027021515245;-0.0173345569491179;2.3991879593257726
53.737948;86.832988;38.0;0.0;-0.057635893417328;-2.0486653112118542;-0.0142755174875089;-1.0135617416131335;0.0010196798205363;2.0495256143733145
53.738355;86.833011;38.0;0.0;0.6358085277561134;-2.023135041298433;-0.0214132762312633;-1.0105027021515245;-0.0112164780258998;2.120798530670928
53.7387371;86.8330091;38.0;0.0;0.70311007469834;-2.2064065441403;-0.0254919955134087;-0.9967370245742836;-0.0122361578464362;2.3158677546446174
53.7391527;86.8330663;39.0;0.0;-0.5778016839884098;-2.116468339321198;-0.0346691138982359;-1.0105027021515245;0.0101967982053635;2.1941957444192077
53.7395608;86.8331928;39.0;0.0;0.5076114332083602;-2.237785257212108;-0.0622004690527174;-1.0339553380238604;-0.0091771183848271;2.2954784082779094
53.7399264;86.8334816;37.0;0.0;0.1199010308292384;-2.060033196289872;-0.037728153359845;-0.9737942286122158;-0.0020393596410727;2.063864443360107
53.7405778;86.8342098;36.0;0.0;0.4579333122160866;-1.928440301261639;-0.0438462322830631;-1.0196798205363515;-0.0081574385642908;1.9825507322771583
53.7408587;86.8346443;37.0;0.0;0.4584293509526232;-2.1646803987082235;-0.0418068726419904;-1.0186601407158151;-0.0081574385642908;2.213085292745524
53.7411158;86.8351574;36.0;0.0;0.3529787624380384;-1.7976837078175278;-0.0622004690527174;-0.9911287855613338;-0.0061180789232181;1.8330656339682008
53.741328;86.8356768;34.0;0.0;0.5401236513198798;-1.7984674255192763;-0.07545630671969;-1.0247782196390334;-0.0096869582950953;1.8793382594926409
53.7414982;86.8361542;30.0;0.0;3.1062068845457427;-1.5487227434055253;-0.0214132762312633;-0.9768532680738248;-0.0530233506678902;3.4709540293613603
53.7417115;86.8365979;30.0;0.0;0.1736226885451498;-1.242642646438904;0.0020393596410727;-1.009483022330988;-0.003059039461609;1.2547150049768572
53.7420131;86.8370019;30.0;0.0;0.4030499261997061;-1.0660725375631874;-0.0122361578464362;-1.01458142143367;-0.0071377587437544;1.139784901599791
53.7423884;86.837198;31.0;0.0;-2.207033144054096;-0.8788678092226717;-0.0050983991026817;-1.0054043030488429;0.0387478331803813;2.3755904358105537
53.7427795;86.8373075;30.0;0.0;0.2307745261911933;-0.5211214788609445;-0.0142755174875089;-1.012542061792597;-0.0040787192821454;0.5701125047466717
53.7430914;86.8373634;30.0;30.0;0.1193595591490692;-0.4157622125253647;0.0101967982053635;-0.9788926277148976;-0.0020393596410727;0.4326764338600932
53.7434049;86.8374465;29.0;30.0;0.5949452336698119;-0.2388086712173796;-0.0040787192821454;-0.9819516671765066;-0.0101967982053635;0.6410975342847764
53.7437271;86.8374871;30.0;30.0;0.7623284938177343;-0.0842145147212562;0.0040787192821454;-0.9962271846640156;-0.0132558376669725;0.7669768268514601
53.7440362;86.8375658;33.0;30.0;-0.6718568947873935;-0.1901713526134071;-0.0081574385642908;-0.9564596716630978;0.0112164780258998;0.698300346722026
53.74438;86.8376536;35.0;30.0;-1.5165915698066943;-0.2386685094741561;0.0081574385642908;-1.0013255837666972;0.0265116753339451;1.5352782128419846
53.7450973;86.8378077;37.0;30.0;-2.357029803851024;-0.2595824251286739;0.0132558376669725;-1.015601101254206;0.0418068726419904;2.3713178295854673
53.7454595;86.8378883;37.0;30.0;-1.254236182648198;-0.2842179701660774;-0.0020393596410727;-1.0013255837666972;0.0219231161415315;1.286037486007696
53.7458637;86.8379597;38.0;30.0;0.790846169569552;-0.4607799559434593;0.0214132762312633;-1.0339553380238604;-0.0142755174875089;0.9155404743216137
53.7462649;86.8379513;39.0;30.0;-3.0496582168450943;-0.7834089459585358;-0.0081574385642908;-0.9952075048434792;0.0530233506678902;3.148684067985004
53.7471512;86.8380696;38.0;30.0;0.9932557322903878;-0.9617469572309302;-0.0560823901294993;-0.9982665443050882;-0.0173345569491179;1.383712178870051
53.7475238;86.8382886;38.0;30.0;-1.5338020212181416;-1.0414791170963211;-0.0040787192821454;-0.9901091057407974;0.0265116753339451;1.8539805898637591
53.7478855;86.8384967;37.0;30.0;-2.805538734591539;-1.054412252627548;-0.0316100744366268;-0.9982665443050882;0.0489446313857448;2.997304119803408
53.7482324;86.8387668;35.0;30.0;-2.45703815597504;-1.1004310807173987;-0.0703579076170082;-0.971754868971143;0.0418068726419904;2.6931274196536505
53.748515;86.8391262;33.0;30.0;-1.87784198907966;-1.057721608310967;-0.0061180789232181;-0.9952075048434792;0.0326297542571632;2.155250093963182
53.7487837;86.8395229;34.0;30.0;-0.2871812444745158;-0.9510812775777366;-0.0336494340776996;-1.0166207810747423;0.0050983991026817;0.9940628491954524
53.7491418;86.8400346;32.0;30.0;-3.003846225912281;-0.9764023283280772;-0.0458855919241358;-1.0288569389211788;0.0540430304884266;3.1588857439353792
53.7494814;86.840451;32.0;30.0;-2.051682736839106;-1.0708429198618028;0.0010196798205363;-0.9962271846640156;0.0356887937187723;2.3143266086291048
53.7498424;86.8408376;32.0;30.0;-1.2583862343018666;-1.1300238880932547;0.0010196798205363;-0.974813908432752;0.0214132762312633;1.6912985963716654
53.7501305;86.8411513;34.0;30.0;-0.7645795162526591;-1.007027730518038;-0.0163148771285816;-0.9931681452024064;0.0132558376669725;1.2644970786526875
53.7504319;86.8414527;37.0;30.0;-1.5923316767234883;-0.963408859968987;-0.023452635872336;-0.9901091057407974;0.0275313551544814;1.8612433549359253
53.7507805;86.8418013;38.0;30.0;-5.50169360491935;-0.944988194660911;-0.0122361578464362;-1.026817579280106;0.0989089425920261;5.582274172236419
53.7511097;86.8421049;35.0;30.0;-2.754711457551529;-0.9147765571252784;0.0071377587437544;-0.974813908432752;0.0469052717446721;2.9026371305127916
53.7514468;86.8424164;35.0;30.0;-2.477251971272568;-0.9325588824382004;0.0081574385642908;-1.0370143774854697;0.0448659121035994;2.6469812885987953
53.7520889;86.8429817;34.0;0.0;-1.9033271281635205;-1.157030479033822;0.0081574385642908;-1.012542061792597;0.0336494340776996;2.2274290628480986
53.7523489;86.8431137;36.0;0.0;0.1727003393166838;-1.0474998970679954;-0.0244723156928724;-1.01458142143367;-0.003059039461609;1.0619229424929713
53.7526911;86.8434303;38.0;0.0;-0.5299382145661464;-1.002198875157394;-0.0081574385642908;-0.99214846538187;0.0091771183848271;1.133712327016087
53.7530576;86.8437456;39.0;0.0;-2.532292880909664;-1.23620385429613;-0.0509839910268175;-0.9901091057407974;0.0438462322830631;2.8183872287929836
53.7534054;86.844119;38.0;30.0;-2.284251293217738;-1.3303670505276697;-0.0571020699500356;-0.9697155093300704;0.0387478331803813;2.644038786797421
53.7537401;86.8445305;37.0;30.0;-1.2843173375341337;-1.4426647524065404;-0.0367084735393086;-0.954420312022025;0.0214132762312633;1.9318644164010519
53.7540378;86.8449562;37.0;30.0;-2.703916092063391;-1.6416329121199615;-0.0050983991026817;-0.9931681452024064;0.0469052717446721;3.1632494123524686
53.754308;86.8454056;34.0;30.0;0.5654408425435712;-1.6790135087687688;-0.023452635872336;-1.0329356582033242;-0.0101967982053635;1.7718238442841199
53.7545799;86.8457799;30.0;30.0;1.4685467243981365;-1.851558994411589;-0.0662791883348628;-0.99214846538187;-0.0254919955134087;2.3641685900826275
53.7548362;86.8460874;30.0;30.0;2.374064315188772;-1.634557004934067;-0.0367084735393086;-0.9584990313041704;-0.0397675130009177;2.882586596628338
53.7551129;86.8464153;34.0;0.0;0.7950006164041816;-1.4739420872212368;-0.0438462322830631;-1.0278372591006424;-0.0142755174875089;1.6752473693907253
53.7553918;86.8467966;37.0;0.0;2.285941838549425;-1.66322555211362;-0.0142755174875089;-1.047211175690833;-0.0418068726419904;2.8270219519547273
53.7557008;86.8471824;38.0;0.0;3.24500712810814;-1.7160606061425283;-0.0122361578464362;-0.9890894259202612;-0.0560823901294993;3.670842544837049
53.7560395;86.8475723;38.0;0.0;2.183231954493567;-1.804560670152529;0.0091771183848271;-0.9895992658305292;-0.037728153359845;2.8324945187740425
53.7563531;86.8480139;37.0;0.0;3.536802805781289;-1.8831319210811996;-0.0438462322830631;-1.0054043030488429;-0.0622004690527174;4.007128948669207
53.7566459;86.8484603;37.0;30.0;2.825689493762364;-1.9112572541460189;-0.0601611094116447;-1.0105027021515245;-0.0499643112062812;3.4118975315461078
53.7569129;86.8489065;34.0;0.0;2.3264371367696195;-1.9608833482312087;-0.0305903946160905;-0.9783827878046294;-0.0397675130009177;3.042746954472887
53.7571682;86.8492642;31.0;0.0;2.015578032533744;-2.231703225742044;-0.0142755174875089;-0.9850107066381156;-0.0346691138982359;3.0072010048248488
53.7574136;86.8496632;30.0;0.0;1.0910913909879;-2.4108297940279084;-0.0356887937187723;-1.0166207810747423;-0.0193739165901906;2.6464796257023515
53.7576421;86.8500453;31.0;0.0;3.1494363932133087;-2.586182708332385;-0.0285510349750178;-1.0003059039461608;-0.0550627103089629;4.075304376040154
53.7578695;86.8504263;33.0;0.0;2.13727566814419;-2.770589523824577;-0.0356887937187723;-0.9829713469970428;-0.0367084735393086;3.4993409781221363
53.7581098;86.8507946;34.0;0.0;1.3116024076056991;-2.835703963286449;0.0209034363209951;-1.0018354236769655;-0.0229427959620679;3.124412712284593
53.7583965;86.8513629;36.0;0.0;2.5911126814384584;-2.913722167274503;-0.1244009381054349;-1.017640460895279;-0.046395431834404;3.9011687209578025
53.7585902;86.8520942;34.0;0.0;3.167280870187952;-3.076992504148032;-0.1498929336188436;-1.0023452635872336;-0.0560823901294993;4.4183728761604755
53.7585481;86.8527945;30.0;0.0;0.2242204686886587;-3.265045311620724;-0.0489446313857448;-1.041093096767615;-0.0040787192821454;3.273101172047225
53.7582742;86.8536982;20.0;0.0;3.7901849720386047;-3.488829568035686;-0.0693382277964718;-1.021209340267156;-0.0678087080656673;5.151916310160842
53.7581111;86.8540215;18.0;0.0;4.553394739008823;-3.487091755797754;-0.0479249515652085;-0.9911287855613338;-0.0790251860915672;5.735460693228436
53.7580147;86.8543859;15.0;0.0;3.800340969377543;-3.296649219654113;-0.0367084735393086;-1.0278372591006424;-0.0683185479759355;5.031086867964526
53.7579239;86.8547047;16.0;0.0;5.204654930789775;-3.209000859544946;-0.0790251860915672;-1.0043846232283062;-0.0917711838482716;6.1149296353426115
53.7578242;86.8550402;18.0;0.0;4.636082494156016;-3.3466903122804537;-0.0560823901294993;-1.0043846232283062;-0.0815743856429081;5.718106519942974
53.7577251;86.8553251;20.0;0.0;3.660884260663812;-3.564242516423553;-0.0244723156928724;-1.0196798205363515;-0.0652595085143265;5.109451749463214
53.7576124;86.8556476;21.0;0.0;3.2782759924364107;-3.1689118451124783;-0.0662791883348628;-1.012542061792597;-0.058121749770572;4.559987795541281
53.7574876;86.8559324;23.0;90.0;3.4646970473310783;-2.808885612979088;-0.058121749770572;-1.0594473335372694;-0.0642398286937901;4.460643692829768
53.7573607;86.8562663;25.0;90.0;5.022090173734366;-2.482515538007777;-0.0061180789232181;-1.009483022330988;-0.0887121443866625;5.60217016346871
53.7572174;86.8565838;24.0;90.0;2.4605446159645745;-2.2765408302718178;-0.0448659121035994;-1.0431324564086877;-0.0448659121035994;3.35245147751848
53.757052;86.8569048;26.0;90.0;5.866686022936749;-1.8654823684697075;-0.0887121443866625;-0.9584990313041704;-0.0989089425920261;6.1567766894174785
53.7568863;86.8572511;26.0;90.0;2.19561205532167;-1.8075745425488376;-0.0509839910268175;-1.0359946976649332;-0.0397675130009177;2.8444045759500374
53.7566805;86.8576085;27.0;90.0;0.426237573857437;-2.121829827060536;-0.0428265524625267;-0.9584990313041704;-0.0071377587437544;2.1646418636733986
53.7564997;86.8579397;24.0;90.0;0.6578042242221585;-2.210773151545104;0.0122361578464362;-0.9768532680738248;-0.0112164780258998;2.30659360281694
53.7563679;86.8582943;25.0;90.0;2.9257114863408398;-2.189750174111577;-0.0336494340776996;-1.0568981339859285;-0.0540430304884266;3.654576009709219
53.7563183;86.8587311;26.0;90.0;0.1664182335567544;-2.3372140013008784;-0.0540430304884266;-1.0517997348832466;-0.003059039461609;2.3437544592984536
53.7562256;86.8593296;28.0;90.0;-3.6075127085902112;-2.3571070289809457;-0.061180789232181;-0.9360660752523708;0.0591414295911083;4.309738342136601
53.7561565;86.8597725;27.0;90.0;0.6450417813417456;-2.597010406482258;-0.0081574385642908;-0.9962271846640156;-0.0112164780258998;2.6759313322388536
53.7560635;86.8601915;26.0;90.0;1.011189296622177;-2.597285763651774;0.0642398286937901;-0.8641786479045579;-0.0152951973080452;2.787924655951455
53.7560022;86.8606422;27.0;90.0;4.872814960420307;-2.8235583259312187;-0.07545630671969;-0.9778729478943612;-0.0836137452839808;5.632273156786276
53.7559635;86.8610387;26.0;90.0;-0.6995431134163014;-2.7616335829070486;-0.1019679820536351;-1.0808606097685327;0.0132558376669725;2.850680284271157
53.7558905;86.8615289;25.0;90.0;-1.418996483541212;-2.801601566012866;-0.1009483022330988;-1.148159477923932;0.0285510349750178;3.1420873499493633
53.7558143;86.8619391;24.0;90.0;-0.9483949640218424;-2.761233497567292;-0.0642398286937901;-1.0451718160497605;0.0173345569491179;2.920272280363648
53.7557194;86.8623306;24.0;90.0;-1.291951789539575;-2.968317766830106;-0.0550627103089629;-0.9931681452024064;0.0224329560517997;3.2377587454040406
53.7556071;86.8627047;25.0;90.0;1.4064937753069435;-3.262285727853961;-0.0953400632201488;-0.99214846538187;-0.0244723156928724;3.5538461753136765
53.755448;86.863032;25.0;90.0;-2.3667809716098165;-3.328349830113188;-0.0448659121035994;-1.0105027021515245;0.0418068726419904;4.084308718652116
53.7552722;86.8633682;23.0;90.0;-2.5140646798927864;-3.2016173459583186;-0.0265116753339451;-0.9982665443050882;0.0438462322830631;4.070820275270651
53.7550954;86.8636778;21.0;90.0;-0.7593305999110506;-2.9804544249819225;-0.0887121443866625;-0.9962271846640156;0.0132558376669725;3.0769402633000986
53.754921;86.863913;20.0;90.0;2.235494835351867;-2.685070428491228;-0.0254919955134087;-1.0706638115631693;-0.0418068726419904;3.493950515774113
53.754747;86.864123;21.0;90.0;0.28003846902106;-2.486093654203381;-0.0458855919241358;-1.0421127765881513;-0.0050983991026817;2.5022367372309535
53.7545519;86.8642095;22.0;90.0;-1.05643994842405;-2.2297914989478613;-0.0152951973080452;-0.9952075048434792;0.0183542367696543;2.4674418810717813
53.7543585;86.8643489;22.0;90.0;0.6876421925954747;-1.923091788080691;-0.0764759865402263;-1.0166207810747423;-0.0122361578464362;2.0437667153905315
53.7539453;86.8645757;18.0;90.0;0.950387413161049;-1.3407610170168236;0.040787192821454;-1.044152136229224;-0.0173345569491179;1.6439403684273928
53.7537904;86.8646768;16.0;90.0;0.9534329927471614;-1.2927873607484373;-0.0825940654634444;-0.9768532680738248;-0.0163148771285816;1.6084636804788284
53.753583;86.8646998;15.0;90.0;0.5329015239200787;-1.369540613840174;-0.0571020699500356;-0.9850107066381156;-0.0091771183848271;1.4706754140688698
53.7534312;86.8647016;14.0;90.0;0.3784458495007979;-1.2914477500316388;-0.0265116753339451;-0.9258692770470072;-0.0061180789232181;1.3460168724778956
53.7531488;86.864624;13.0;90.0;-2.0811525492979395;-1.1420030795119416;0.0372183134495768;-1.009483022330988;0.0367084735393086;2.3741845273525186
53.7530137;86.8645657;13.0;90.0;-1.8465306152711207;-0.9742086579866522;0.0356887937187723;-1.0431324564086877;0.0336494340776996;2.08806884762615
53.7528639;86.8645183;14.0;90.0;-0.2343018659767946;-0.975563181845462;0.0173345569491179;-0.9972468644845518;0.0040787192821454;1.0034547189770309
53.7527208;86.8644776;14.0;90.0;-1.9502042980897103;-0.9486563599772364;-0.0326297542571632;-1.017640460895279;0.0346691138982359;2.168942229400249
53.75257;86.8644804;12.0;90.0;-0.1668691148596273;-0.8260917359206972;0.0122361578464362;-1.050270215152442;0.003059039461609;0.8428656958313996
53.7523865;86.8644249;14.0;90.0;3.774315878911384;-0.9013581181091568;-0.040787192821454;-1.050270215152442;-0.0693382277964719;3.8806662322315417
53.752261;86.8643506;13.0;90.0;1.858716013576026;-0.8979721942547547;-0.029060874885286;-0.9421841541755888;-0.0305903946160905;2.06446695668101
53.7521452;86.8642092;15.0;90.0;-2.0980356294249223;-0.8918445365190291;-0.0723972672580809;-0.9156724788416436;0.0336494340776996;2.280872978480325
53.7520807;86.8639911;11.0;90.0;2.509914551539969;-0.8795847254675677;-0.0479249515652085;-0.9758335882532884;-0.0428265524625267;2.660006982376262
53.7521153;86.8637953;8.0;90.0;-1.1057674003487976;-0.8578023416659766;-0.0275313551544814;-1.00336494340777;0.0193739165901906;1.3997515410094798
53.7521923;86.8636931;6.0;90.0;-1.897485784472672;-0.8231069656798593;0.0137656775772407;-1.015601101254206;0.0336494340776996;2.068368166721229
53.7522759;86.8636999;1.0;90.0;-2.825543520747047;-0.7721081780748231;0.040787192821454;-1.011522381972061;0.0499643112062812;2.9294215847815237
53.7523095;86.8637335;1.0;90.0;-0.5208497320966367;-0.7014155594164717;-0.0050983991026817;-1.009483022330988;0.0091771183848271;0.8736671128582502
53.7523125;86.8637621;2.0;90.0;-2.7097252503289324;-0.607638690270411;-0.0101967982053635;-1.012542061792597;0.0479249515652085;2.7770379336403344
53.7523082;86.8637834;4.0;90.0;0.1181193926352125;-0.4873871512022465;-0.0163148771285816;-0.9890894259202612;-0.0020393596410727;0.5017614984126161
53.752258;86.8638356;5.0;90.0;2.588660480898396;-0.3372705227775832;-0.020393596410727;-0.99214846538187;-0.0448659121035994;2.610618775247421
53.7521877;86.8638677;4.0;90.0;-0.8715181897726905;-0.1538983855620252;0.0112164780258998;-1.0054043030488429;0.0152951973080452;0.8850731481423276
53.7521391;86.8638447;4.0;90.0;-2.260483404616169;0.0661196798788203;0.0040787192821454;-1.0074436626899157;0.0397675130009177;2.2614538842442413
53.7521037;86.8638349;1.0;90.0;-0.9129956221887048;0.3261740929793486;-0.0040787192821454;-1.023758539818497;0.0163148771285816;0.9695190462376814
53.7280145;86.8436369;11.0;0.0;6.580904187598554;-5.088573360381575;-0.0387478331803813;-0.9095543999184256;-0.1050270215152442;8.318856902538558
53.7281444;86.8436132;14.0;0.0;1.3123537296563588;-4.464812157989997;-0.0254919955134087;-0.9788926277148976;-0.0224329560517997;4.653758670119617
53.7283021;86.8436173;17.0;30.0;3.163651669831637;-3.920126736883851;-0.1529519730804527;-1.0217191801774244;-0.0571020699500356;5.039789661020521
53.7284544;86.8437184;16.0;30.0;5.508909677360932;-3.448748448530182;-0.1458142143366982;-1.0257978994595698;-0.0999286224125624;6.501016342054748
53.7286015;86.8438143;15.0;30.0;5.543220937539082;-3.044908644396037;-0.061180789232181;-1.0278372591006424;-0.0999286224125624;6.324753758373557
53.7287277;86.8439405;13.0;30.0;6.278420300362003;-2.702838675948462;-0.0142755174875089;-0.945243193637198;-0.1040073416947078;6.835503066095434
53.7288516;86.8440388;14.0;30.0;3.4477803955071864;-2.4167698946545046;-0.0428265524625267;-1.01458142143367;-0.061180789232181;4.210676963737288
53.7289887;86.8441503;18.0;30.0;-0.0571225703927013;-2.18093365198121;-0.1764046089527888;-1.0074436626899157;0.0010196798205363;2.188801765453453
53.7291354;86.8443482;19.0;30.0;7.809471003147895;-1.9895612993956255;0.0846334251045171;-0.8881411236871622;-0.1223615784643621;8.05936438745051
53.7292967;86.8445607;14.0;30.0;4.918306172802825;-1.836884188364798;-0.0163148771285816;-1.09003772815336;-0.0938105434893443;5.250156693481699
53.7294444;86.8446828;13.0;30.0;5.080167342475382;-1.7171336703557736;0.0693382277964719;-0.9839910268175792;-0.0876924645661262;5.36297082401693
53.7295817;86.8447689;14.0;30.0;5.076225608919099;-1.624541096835598;-0.0193739165901906;-1.0329356582033242;-0.0917711838482716;5.3298757543302955
53.7297187;86.8448291;15.0;30.0;4.471795899317604;-1.5533378192713192;0.0010196798205363;-0.9778729478943612;-0.0764759865402263;4.733900926897314
53.72986;86.8449448;15.0;30.0;5.306444485660941;-1.4977551891300116;-0.0632201488732537;-0.986030386458652;-0.0917711838482716;5.514129167256679
53.7300066;86.8450658;15.0;30.0;5.925410568897718;-1.215011087645677;-0.0479249515652085;-0.9911287855613338;-0.1029876618741715;6.048887431097493
53.7301322;86.8451914;12.0;0.0;8.288797015850921;-0.9544927669115008;-0.0520036708473539;-0.9855205465483838;-0.1437748546956255;8.343735182389667
53.7302202;86.8453306;10.0;0.0;8.836150713364875;-1.2402911382978572;-0.0509839910268175;-0.9957173447537472;-0.1549913327215254;8.922918855642463
53.7302988;86.8454348;9.0;0.0;9.071142875243163;-1.410826601073059;-0.0336494340776996;-0.9829713469970428;-0.1570306923625981;9.180261273285412
53.7303653;86.8455013;9.0;0.0;9.328344626902709;-1.3066137035272378;-0.0458855919241358;-0.99214846538187;-0.1631487712858162;9.419520069305868
53.7304312;86.8455928;9.0;0.0;8.99168073151886;-1.037430380358178;-0.0428265524625267;-0.9850107066381156;-0.1560110125420618;9.051431836193293
53.7304984;86.8456856;10.0;0.0;7.6565495555341885;-0.7756424721487777;-0.0305903946160905;-0.9931681452024064;-0.133578056490262;7.695798081628352
53.730564;86.845828;14.0;0.0;2.203602549091329;-1.0992867396040087;0.0336494340776996;-1.0329356582033242;-0.0397675130009177;2.4628089277580516
53.7306324;86.8461012;18.0;30.0;0.9255676908985724;-0.7582339353741256;0.0275313551544814;-1.009483022330988;-0.0163148771285816;1.1968091855867797
53.7306964;86.8463956;20.0;0.0;1.3210131609337312;-0.6398515424097063;-0.0285510349750178;-1.0166207810747423;-0.023452635872336;1.4680943189326607
53.73075;86.8467564;21.0;0.0;0.6799289194763597;-0.0452918937094007;0.0183542367696543;-1.0308962985622514;-0.0122361578464362;0.6816828948884299
53.7308305;86.8471185;22.0;0.0;1.886149451204321;0.401790280778482;-0.0081574385642908;-0.9753237483430204;-0.032119914346895;1.9284869006063647
53.7309191;86.8474375;22.0;0.0;1.3738607392919469;0.9007370414825506;-0.0050983991026817;-0.9778729478943612;-0.023452635872336;1.6428166490938552
53.7310037;86.8477781;20.0;0.0;1.9790135929567367;1.1985762912755062;-0.0071377587437544;-0.9737942286122158;-0.0336494340776996;2.3136833998443183
53.7311734;86.8484854;17.0;0.0;4.713306402095989;1.4342621444631671;0.0295707147955541;-1.0013255837666972;-0.0825940654634444;4.926787956290857
53.7312472;86.8487384;16.0;0.0;5.868245033151153;1.6120531191850445;0.0866727847455898;-0.9982665443050882;-0.1029876618741715;6.086257240685194
53.7313413;86.8489349;11.0;0.0;7.168826423870734;1.7580400603510666;0.0433363923727949;-0.9962271846640156;-0.1254206179259712;7.381372175435292
53.7314243;86.8490691;9.0;0.0;6.498154731424182;1.7717885505296098;0.0244723156928724;-1.0023452635872336;-0.1142041399000713;6.735417468542962
53.7315002;86.849145;9.0;0.0;8.244909267482127;1.6172709511641274;0.0183542367696542;-0.9850107066381156;-0.1427551748750892;8.402049216500663
53.7316102;86.8492294;10.0;0.0;7.463684895877241;1.4369808020295052;-0.0091771183848271;-0.9962271846640156;-0.130519017028653;7.600762479504886
53.7317112;86.8493048;11.0;0.0;6.74668531580702;1.2994396133160946;0.0061180789232181;-1.0084633425104517;-0.1193025390027531;6.870687264755315
53.7318234;86.8493402;12.0;0.0;4.91122826349881;1.3660429383037913;0.0672988681553992;-1.006423982869379;-0.0866727847455898;5.0981139162570885
53.7319586;86.8493474;15.0;0.0;4.906303648189467;1.4442586962744604;0.0672988681553992;-1.0074436626899157;-0.0866727847455898;5.114902521813751
53.732118;86.8493276;17.0;0.0;4.800249525825154;1.1289452597117071;0.0305903946160905;-0.9952075048434792;-0.0836137452839808;4.931313078871886
53.7322956;86.8492748;17.0;0.0;5.288986505340936;0.9613635416731544;0.003059039461609;-1.0023452635872336;-0.092790863668808;5.375649492913326
53.7324668;86.8491644;17.0;0.0;4.872972843431912;0.6934887251550169;0.0040787192821454;-1.0166207810747423;-0.0866727847455898;4.922073504194447
53.7326233;86.8490649;14.0;0.0;6.144351141604714;0.3868195301817553;-0.0122361578464362;-0.9850107066381156;-0.1060467013357805;6.1565274322322345
53.7327595;86.8489451;12.0;0.0;6.640334031370224;0.0287335061444864;-0.003059039461609;-1.0247782196390334;-0.1193025390027531;6.640396902314749
53.7328622;86.8488174;11.0;0.0;6.665245376927918;-0.2262134534544474;-0.0142755174875089;-1.00336494340777;-0.1172631793616804;6.66909830873577
53.7329619;86.8486611;10.0;0.0;6.940217465705081;-0.2570071017308167;-0.0351789538085041;-0.9962271846640156;-0.1213418986438258;6.9450636196084625
53.7330324;86.8485012;11.0;0.0;6.218410467067968;-0.3469812014098066;-0.0050983991026817;-1.0013255837666972;-0.1091057407973896;6.2280856356303955
53.7331057;86.8482673;13.0;0.0;5.935144621366988;-0.5158553765056041;0.0173345569491179;-1.0003059039461608;-0.1040073416947078;5.9575455460177436
53.7331392;86.8480448;14.0;0.0;5.330401906665209;-0.7154133611424269;0.0091771183848271;-1.0054043030488429;-0.0938105434893443;5.378204624536244
53.7331546;86.8478042;14.0;0.0;5.9233532845936265;-0.9485768051630186;-0.0152951973080452;-1.0023452635872336;-0.1040073416947078;5.998845391611629
53.7331561;86.8475497;13.0;0.0;6.5080568771199045;-1.2163416463829844;-0.0336494340776996;-1.009483022330988;-0.1152238197206077;6.620832545908944
53.7331579;86.8473211;12.0;0.0;7.7743879552126;-1.2442029347235857;-0.0550627103089629;-0.9992862241256244;-0.1366370959518711;7.873511346470271
53.7331622;86.8471206;11.0;0.0;6.743666043958973;-1.231466401732623;-0.0040787192821454;-1.0003059039461608;-0.1182828591822167;6.855184742003131
53.7331764;86.84693;12.0;0.0;6.719268568578584;-1.2146405007884051;-0.0152951973080452;-0.9952075048434792;-0.1172631793616804;6.828188309200639
53.7331909;86.8466629;14.0;0.0;5.989736908858243;-1.2909191905834392;-0.020393596410727;-1.0105027021515245;-0.1060467013357805;6.127302546204966
53.7332139;86.8464299;15.0;0.0;5.061941577883846;-1.204735339056867;-0.0193739165901906;-1.0013255837666972;-0.0887121443866625;5.203365749563037
53.7332346;86.8461434;16.0;0.0;4.834380702054184;-1.2360098973281886;-0.0193739165901906;-1.012542061792597;-0.0856531049250535;4.989923104350526
53.7332507;86.8458523;17.0;0.0;4.551657224225369;-1.244299661782417;-0.0214132762312633;-0.986030386458652;-0.078515346181299;4.718720553662166
53.7332541;86.8455485;18.0;0.0;5.1303713175222425;-1.2710997960532795;-0.0244723156928724;-1.0105027021515245;-0.0907515040277353;5.28554665492766
53.7332542;86.8452414;18.0;0.0;4.078879682739671;-1.4979947014426374;-0.0356887937187723;-1.0003059039461608;-0.0713775874375446;4.345402315299908
53.7332686;86.8449486;17.0;0.0;4.781320481000696;-1.549731717674626;-0.0265116753339451;-0.9992862241256244;-0.0836137452839808;5.026270665984123
53.7332708;86.8446692;16.0;0.0;4.554457901628696;-1.5120316577068726;-0.0193739165901906;-0.9982665443050882;-0.0795350260018354;4.798927157215445
53.7332897;86.8441249;15.0;0.0;5.603562473962684;-1.4853096695726444;-0.0418068726419904;-1.017640460895279;-0.0999286224125624;5.797223907072151
53.7332913;86.8438705;14.0;0.0;5.240126990913447;-1.4971032695512574;-0.0214132762312633;-1.011522381972061;-0.092790863668808;5.44983555797784
53.7332975;86.8436463;13.0;0.0;6.0013637043604255;-1.5403466224578417;-0.023452635872336;-1.0084633425104517;-0.1060467013357805;6.195932864021472
53.733297;86.8434154;13.0;0.0;5.653102541953841;-1.674057277742544;-0.0081574385642908;-1.009483022330988;-0.0999286224125624;5.895769895680435
53.7332909;86.8431789;14.0;0.0;6.0572230598821735;-1.563611366061215;-0.0214132762312633;-0.979912307535434;-0.1040073416947078;6.255820508106282
53.7332813;86.8429133;15.0;0.0;5.1102889405657885;-1.5031232098970015;-0.0071377587437544;-1.00336494340777;-0.0897318242071989;5.326770446321106
53.7332597;86.8425845;18.0;0.0;4.42857835964014;-1.5557222749084318;-0.0530233506678902;-0.986030386458652;-0.0764759865402263;4.69418678365436
53.733255;86.842247;20.0;0.0;4.351164168110333;-1.5506628833759648;-0.037728153359845;-1.0043846232283062;-0.0764759865402263;4.619373161943413
53.7332603;86.8418939;21.0;0.0;5.160183576348458;-1.454115421029008;-0.037728153359845;-1.026817579280106;-0.092790863668808;5.361284324939937
53.7332673;86.8415425;21.0;0.0;3.5801806975719788;-1.282014172705495;-0.0438462322830631;-0.9931681452024064;-0.0622004690527174;3.8030483376326094
53.7333004;86.841166;20.0;0.0;4.023318983604795;-1.0761219809120992;-0.0040787192821454;-1.0003059039461608;-0.0703579076170082;4.164750988665214
53.7333542;86.8408102;20.0;0.0;5.093341241641433;-0.8876895326519537;-0.0254919955134087;-1.006423982869379;-0.0897318242071989;5.170180611160561
53.7334065;86.8405041;19.0;0.0;3.9644090510830927;-0.860122340315014;-0.020393596410727;-1.0003059039461608;-0.0693382277964719;4.056693908023267
53.7334875;86.8402011;19.0;0.0;4.236259463908985;-0.6930724873571426;-0.0081574385642908;-1.0186601407158151;-0.07545630671969;4.292587828116483
53.7335791;86.8399087;19.0;0.0;4.193331009639954;-0.6339380944687616;-0.0061180789232181;-1.0013255837666972;-0.0734169470786173;4.2409833641404955
53.7336802;86.8396002;19.0;0.0;4.16369767825139;-0.7499346526069928;-0.0081574385642908;-1.0084633425104517;-0.0734169470786173;4.230702882838822
53.7337872;86.8393488;19.0;0.0;4.433988307676115;-0.8682563786436334;-0.0025491995513408;-1.012542061792597;-0.078515346181299;4.518199635926041
53.733924;86.8391272;19.0;0.0;4.387941470234603;-0.7732805449565491;-0.0285510349750178;-0.9962271846640156;-0.0764759865402263;4.4556490334193795
53.734052;86.8388456;17.0;0.0;4.615367278826335;-0.8337808124013479;-0.020393596410727;-0.9850107066381156;-0.0795350260018354;4.690119557150332
53.7341447;86.8386311;17.0;0.0;4.126228056621764;-0.7530314368341292;0.0193739165901906;-1.00336494340777;-0.0723972672580809;4.194423639638364
53.7342072;86.8383864;20.0;0.0;5.100353225887275;-0.9829894914659474;0.0163148771285816;-0.9595187111247068;-0.0856531049250535;5.1942408053888816
53.7342457;86.8380153;23.0;0.0;0.8425238558950601;-1.1474280293723715;-0.0010196798205363;-1.0400734169470789;-0.0152951973080452;1.4235303193429287
53.7342592;86.8371072;26.0;0.0;2.525297701032728;-1.3375264974375154;-0.0265116753339451;-1.0400734169470789;-0.0458855919241358;2.8577628451496215
53.7342869;86.8366741;25.0;0.0;2.6635831873181712;-1.62766220138969;-0.0458855919241358;-0.9962271846640156;-0.0463954318344039;3.1218688513681974
53.7343253;86.8362005;25.0;0.0;3.6344974405095463;-1.845758525598425;-0.0683185479759355;-0.9768532680738248;-0.0622004690527174;4.076893867135524
53.7344324;86.8358212;26.0;0.0;3.02127200821316;-2.1358881009661115;-0.023452635872336;-0.9850107066381156;-0.0520036708473539;3.7000881818668003
53.7345963;86.8354987;28.0;0.0;1.8906769008252784;-2.338559245457577;-0.0693382277964719;-0.986030386458652;-0.0326297542571632;3.0080435963701304
53.7348227;86.8351363;31.0;0.0;1.2863394688941407;-2.5982821630150195;-0.0836137452839808;-1.041093096767615;-0.023452635872336;2.9004707697677774
53.7350733;86.8347469;33.0;0.0;0.3543479497709104;-2.740427589971845;-0.0173345569491179;-0.9890894259202612;-0.0061180789232181;2.763296280215056
53.735352;86.83436;32.0;0.0;0.4652822558143787;-2.9169345913460902;-0.0152951973080452;-1.0043846232283062;-0.0081574385642908;2.953849849066095
53.7356687;86.8339087;30.0;0.0;0.1719806633708183;-3.016460115907281;-0.0713775874375446;-1.0166207810747423;-0.003059039461609;3.0222018032257933
53.735997;86.8336226;32.0;0.0;1.9829082841953225;-3.161171272996833;-0.0438462322830631;-1.0298766187417152;-0.0356887937187723;3.731869715415622
53.7363161;86.8334809;33.0;30.0;1.3886960720731216;-2.956224612890098;-0.0836137452839808;-1.0482308555113695;-0.0254919955134087;3.2672208374777703
53.736655;86.8333078;36.0;0.0;-0.1155332573355656;-2.879648085284516;-0.0418068726419904;-1.0105027021515245;0.0020393596410727;2.8822680033670443
53.7369955;86.8332131;37.0;0.0;0.8195256478037358;-2.936203680128136;-0.0591414295911083;-0.9962271846640156;-0.0142755174875089;3.049001811626261
53.7373918;86.833123;38.0;0.0;0.5711635426582623;-3.0312023782897075;-0.0662791883348628;-1.020699500356888;-0.0101967982053635;3.085256647576899
53.737751;86.8330982;37.0;0.0;0.234938828334604;-2.9718615285525263;-0.0550627103089629;-0.9931681452024064;-0.0040787192821454;2.9816420140614404
53.7381291;86.8330667;38.0;0.0;1.497068308385315;-2.965883472746816;-0.0418068726419904;-1.0135617416131335;-0.0265116753339451;3.3225631835202902
53.7385317;86.8330341;37.0;0.0;-0.8683854913793179;-2.9783438168396783;-0.0356887937187723;-1.0084633425104517;0.0152951973080452;3.1025632858883547
53.7389173;86.8330613;38.0;0.0;1.0461612936429356;-2.916572133880175;-0.0591414295911083;-1.00336494340777;-0.0183542367696543;3.099087635601339
53.7393122;86.8331746;39.0;0.0;-3.0347106764604304;-2.9442812318431137;-0.0224329560517997;-0.9421841541755888;0.0499643112062812;4.2283287596311325
53.7400508;86.833606;37.0;0.0;1.176177042558047;-3.166831876388945;-0.0479249515652085;-0.99214846538187;-0.020393596410727;3.3785371641786406
53.7403635;86.8339443;37.0;0.0;-0.6395476476400423;-3.120338914122545;-0.0295707147955541;-1.0043846232283062;0.0112164780258998;3.185343083525367
53.7406567;86.8343143;36.0;0.0;0.8179918945854149;-2.956160873189355;-0.0336494340776996;-0.9992862241256244;-0.0142755174875089;3.0674305423590016
53.7409377;86.8347489;35.0;0.0;2.1046006138079907;-2.7029015166421213;-0.0356887937187723;-0.9982665443050882;-0.0367084735393086;3.425827497452893
53.7411875;86.8351779;33.0;30.0;-0.9304408456450358;-2.40837711914381;-0.15091261343938;-0.9931681452024064;0.0163148771285816;2.5862666398024765
53.7413554;86.835653;29.0;0.0;0.1129645736877114;-2.2792090629145068;-0.0846334251045171;-1.0308962985622514;-0.0020393596410727;2.2835756532300375
53.7414797;86.8361101;27.0;0.0;0.4038091571797424;-2.04437727879763;-0.020393596410727;-1.012542061792597;-0.0071377587437544;2.0839760536677914
53.7416201;86.8365065;26.0;0.0;1.4420988348844137;-1.8315194298509327;0.0112164780258998;-1.012542061792597;-0.0254919955134087;2.3311452723663053
53.7418307;86.8368195;27.0;0.0;1.4825235501068632;-1.621541771416502;-0.0356887937187723;-1.023758539818497;-0.0265116753339451;2.1973956136906994
53.7420945;86.8370577;30.0;0.0;-0.7005655835333489;-1.4315459242952182;-0.0275313551544814;-1.0003059039461608;0.0122361578464362;1.5940118712589046
53.7424191;86.8372031;33.0;0.0;1.3362958391382442;-1.0586554699260882;-0.0448659121035994;-1.0043846232283062;-0.023452635872336;1.7054181081985433
53.7427527;86.8373063;34.0;0.0;0.4058881913605209;-0.6457387979604698;-0.0152951973080452;-1.0074436626899157;-0.0071377587437544;0.7628615615811556
53.7431099;86.8374075;34.0;0.0;0.3099512303053118;-0.4931435843392552;-0.0224329560517997;-0.9421841541755888;-0.0050983991026817;0.5828924407298198
53.7434581;86.8375253;35.0;0.0;0.122094627453712;-0.2822725669267629;0.0326297542571632;-0.9564596716630978;-0.0020393596410727;0.3092726967505658
53.7438339;86.8375683;35.0;0.0;0.6020016540193659;-0.1128073882824244;0.037728153359845;-0.9697155093300704;-0.0101967982053635;0.6136407025687736
53.7442047;86.8376575;36.0;0.0;-3.297802649867537;-0.0264618498006894;0.0418068726419904;-0.9901091057407974;0.0571020699500356;3.298173791898833
53.7445852;86.8377308;36.0;0.0;-2.4138351913830243;0.1417665332437202;-0.0265116753339451;-1.015601101254206;0.0428265524625267;2.4181399773454135
53.7449515;86.8377899;36.0;0.0;-2.192154851533893;0.2568597545943656;-0.0132558376669725;-0.9855205465483838;0.037728153359845;2.2071917777724064
53.7454059;86.8378859;35.0;0.0;-0.4212846717579614;-0.1131306584315504;0.0010196798205363;-0.9707351891506067;0.0071377587437544;0.43621137110614827
53.7457772;86.8378988;37.0;0.0;-1.0851902458622795;-0.471836393681611;0.0091771183848271;-1.0227388599979603;0.0193739165901906;1.1833645556712233
53.7461753;86.8379897;38.0;0.0;-2.514355775251341;-0.6465473080568266;0.003059039461609;-1.0217191801774244;0.0448659121035994;2.596154414478794
53.7465714;86.8380018;38.0;0.0;0.5272400017612694;-0.5413815701296474;-0.0050983991026817;-0.9972468644845518;-0.0091771183848271;0.7557129201004016
53.747342;86.8381836;38.0;0.0;-1.129920840868014;-0.5817790847179777;0.0071377587437544;-1.0339553380238604;0.020393596410727;1.2709205158636205
53.7477213;86.8384093;39.0;0.0;0.8933896813489002;-0.65074453693479;-0.0428265524625267;-0.979912307535434;-0.0152951973080452;1.1060956959897228
53.7480817;86.8386929;39.0;0.0;0.8182114479995795;-0.7350174840545205;-0.0683185479759355;-0.9972468644845518;-0.0142755174875089;1.101992785593874
53.7484912;86.8391536;38.0;0.0;-0.6652746432349386;-0.9084333663190232;-0.0305903946160905;-1.0533292546140511;0.0122361578464362;1.1264001527946699
53.7487882;86.839553;38.0;0.0;1.0893706960741252;-0.9902842395300674;-0.0198837565004588;-1.0186601407158151;-0.0193739165901906;1.472340569399362
53.7492748;86.8401676;39.0;0.0;-2.7297424159745574;-1.03669967903668;-0.0392576730906495;-1.015091261343938;0.0484347914754766;2.9202364710724815
53.7496966;86.8406662;40.0;0.0;-1.2515452245307082;-0.93603728172372;0.0010196798205363;-1.026817579280106;0.0224329560517997;1.5628602885636604
53.7500423;86.8410375;41.0;0.0;-1.7294953540765257;-1.0350956945119554;-0.0295707147955541;-0.9788926277148976;0.0295707147955541;2.0158005118917384
53.7504192;86.8414144;44.0;0.0;-0.4194112322362536;-1.2598878511081115;-0.0224329560517997;-0.974813908432752;0.0071377587437544;1.3280536196302353
53.7508272;86.8417712;45.0;0.0;-2.8338392290596324;-1.6213202822524106;-0.0142755174875089;-1.0298766187417152;0.0509839910268175;3.264893263829595
53.7512162;86.8421602;42.0;0.0;-1.6328725741168852;-1.7595157445732228;0.0214132762312633;-1.0013255837666972;0.0285510349750178;2.4005472349243875
53.7516063;86.8424991;42.0;30.0;-2.478814063028706;-1.82767322646346;0.0244723156928724;-1.012542061792597;0.0438462322830631;3.0798551063378956
53.7521014;86.8428918;38.0;0.0;-2.164869629754983;-1.864283843676993;-0.0254919955134087;-0.9707351891506067;0.0367084735393086;2.857072733667415
53.7524741;86.8431877;40.0;0.0;-1.5613048869003503;-1.8302553455905453;-0.0346691138982359;-1.009483022330988;0.0275313551544814;2.405973717100869
53.7528488;86.8435112;41.0;0.0;-2.345287666668008;-1.7574683258855432;-0.0346691138982359;-1.02018966044662;0.0418068726419904;2.9309164272245107
53.7532096;86.8438464;39.0;0.0;-2.7737016564792527;-1.929672876441574;-0.0703579076170082;-0.9972468644845518;0.0484347914754767;3.3796462129036957
53.753541;86.844229;37.0;0.0;-1.9174113444892888;-2.238827071515769;-0.0356887937187723;-1.0349750178443968;0.0346691138982359;2.9478952847964592
53.7538559;86.8446463;38.0;0.0;-1.467059401755092;-2.376187269921389;-0.0917711838482716;-0.9911287855613338;0.0254919955134087;2.7940921925017768
53.754142;86.845086;38.0;60.0;-0.9317735886065068;-2.4821897954412657;-0.0601611094116447;-1.0013255837666972;0.0163148771285816;2.6519969004701043
53.7544338;86.845557;35.0;60.0;0.7536364583251379;-2.479543634828977;-0.1040073416947078;-1.0023452635872336;-0.0132558376669725;2.593631060012999
53.7549566;86.8463102;33.0;0.0;0.6514407455841862;-2.296049643018912;-0.0295707147955541;-0.986030386458652;-0.0112164780258998;2.386858486669889
53.7552378;86.8466682;35.0;0.0;0.960584809741716;-2.550089547092061;-0.0499643112062812;-0.971754868971143;-0.0163148771285816;2.7254680895745302
53.7556042;86.8471114;36.0;0.0;0.5234783188888997;-2.7765678775824787;0.0091771183848271;-1.0043846232283062;-0.0091771183848271;2.825498707957848
53.7559852;86.8475436;35.0;0.0;3.33770274222489;-3.0814373298923114;-0.0326297542571632;-1.0135617416131335;-0.0591414295911083;4.5427503028861596
53.756274;86.8479604;35.0;0.0;2.467062089916205;-3.255886270175316;-0.0346691138982359;-0.9697155093300704;-0.0418068726419904;4.085142923726945
53.7565732;86.8483108;35.0;0.0;2.015105387670379;-3.351302747078262;-0.040787192821454;-0.9845008667278474;-0.0346691138982359;3.910696027702837
53.7569033;86.8488201;33.0;0.0;3.3099366175866973;-3.518576205299806;-0.0703579076170082;-1.02018966044662;-0.0591414295911083;4.831253373619261
53.7571983;86.8492943;29.0;0.0;2.247049361982288;-3.5266214787552705;-0.0713775874375446;-1.0370143774854697;-0.040787192821454;4.182270274574734
53.7574247;86.8496743;29.0;0.0;4.268046970641055;-3.813431308065347;-0.0448659121035994;-1.023758539818497;-0.0764759865402263;5.723678557973024
53.757649;86.8500266;29.0;0.0;1.229389004456401;-3.909169594622128;-0.0336494340776996;-0.9972468644845518;-0.0214132762312633;4.0980649736442905
53.7578907;86.8503963;31.0;30.0;2.595761261586888;-4.072401041017207;-0.0540430304884266;-0.9656367900479248;-0.0438462322830631;4.829632223594003
53.7581327;86.8507663;33.0;0.0;3.874720137171842;-4.5422408296692405;-0.058121749770572;-0.9768532680738248;-0.0662791883348628;5.970660435321681
53.7583586;86.8512226;35.0;0.0;1.8502056306316488;-4.610003720475212;-0.1345977363107984;-1.0329356582033242;-0.0336494340776996;4.969256657593402
53.7585158;86.8517126;33.0;0.0;2.9348629075259205;-4.805090623009816;-0.1845620475170796;-1.017640460895279;-0.0530233506678902;5.63350506618145
53.7585752;86.852412;31.0;0.0;2.9267602615028503;-4.79032422220928;-0.0968695829509534;-1.012542061792597;-0.0520036708473539;5.614491561869006
53.758519;86.8528934;28.0;30.0;3.2422533211699887;-4.674881225603694;-0.1091057407973895;-1.0201896604466196;-0.0581217497705719;5.690221888012335
53.7583545;86.8535225;19.0;0.0;3.488271416564116;-4.399989619968349;-0.0749464668094218;-1.017640460895279;-0.0622004690527174;5.615475323099075
53.7582279;86.8538055;19.0;0.0;5.783747594379781;-4.361576403968282;-0.0591414295911083;-0.9646171102273886;-0.0978892627714897;7.244210286279718
53.7581057;86.8540417;17.0;0.0;4.226484189744546;-4.20401815293525;-0.0530233506678902;-1.0196798205363515;-0.07545630671969;5.961522348535294
53.7580191;86.8543135;15.0;0.0;4.553486289786812;-4.013445315610887;-0.0560823901294993;-1.0227388599979603;-0.0815743856429081;6.070018610116288
53.7579818;86.8545578;16.0;0.0;5.350807412021803;-3.609824143516328;-0.1060467013357805;-0.9850107066381156;-0.092790863668808;6.455479549229867
53.7579139;86.8547971;17.0;0.0;4.432383656668967;-3.352823371620679;-0.0050983991026817;-0.9931681452024064;-0.0769858264504945;5.557650172048024
53.7578098;86.8551538;19.0;30.0;3.818633981140057;-2.964125645686729;-0.095849903130417;-1.0574079738961966;-0.0708677475272764;4.8349967455279055
53.7577002;86.8554282;19.0;0.0;3.840245409469379;-2.603037058987806;-0.0260018354236769;-0.9870500662791885;-0.0662791883348627;4.639392506660751
53.7575433;86.8558089;22.0;0.0;4.134738377392962;-2.290838428157062;0.0356887937187723;-0.9584990313041704;-0.0693382277964719;4.72707899694985
53.7574216;86.8561224;24.0;0.0;3.725941984792691;-2.0646137311278503;-0.0397675130009177;-1.0013255837666972;-0.0652595085143265;4.259912556366954
53.7572622;86.8564494;24.0;30.0;3.1704329884181046;-1.891636912065747;-0.0489446313857448;-1.0665850922810238;-0.0591414295911083;3.6921986834514846
53.7570983;86.8568231;25.0;0.0;1.4255274120274382;-1.9875532875524025;-0.0356887937187723;-1.023758539818497;-0.0254919955134087;2.446174597877083
53.7569468;86.8571324;26.0;0.0;-0.4146508941192636;-1.8272306692928533;-0.0805547058223717;-0.9829713469970428;0.0071377587437544;1.8754189781028776
53.7567722;86.8574698;27.0;0.0;-0.1100781986725733;-1.9538062823393247;-0.0657693484245946;-1.0594473335372694;0.0020393596410727;1.958009654195762
53.7565899;86.8577995;25.0;0.0;1.0343144235022383;-2.2429162698809115;-0.0010196798205363;-1.0166207810747423;-0.0183542367696543;2.469915132167137
53.756423;86.8581446;25.0;30.0;4.140312242276411;-2.238732318849848;-0.0132558376669725;-1.0563882940756602;-0.0764759865402263;4.706833710281148
53.7563228;86.8585564;27.0;30.0;1.4445895174682268;-2.1692623617397526;-0.0020393596410727;-1.0512898949729783;-0.0265116753339451;2.606250607103538
53.7562876;86.8591356;27.0;30.0;1.0937163197072506;-2.4760620866065444;-0.0866727847455898;-0.9574793514836342;-0.0183542367696543;2.7082486991301007
53.756151;86.860023;23.0;30.0;-0.4465351393827812;-2.796129965715711;-0.0560823901294993;-1.0451718160497605;0.0081574385642908;2.832116108205944
53.7560742;86.860407;22.0;30.0;1.9264734308476013;-2.793394353085901;-0.0683185479759355;-0.9676761496889976;-0.0326297542571632;3.393968078166244
53.7560031;86.8608223;22.0;30.0;0.917599709896882;-3.097674240135832;-0.0448659121035994;-1.017640460895279;-0.0163148771285816;3.231035109012719
53.7559239;86.8612807;23.0;30.0;2.322339746743384;-3.021634830887488;-0.0356887937187723;-0.9044560008157438;-0.0367084735393086;3.8111432196302575
53.7558612;86.8616276;20.0;0.0;-0.4583555413293756;-2.8343289620659617;-0.0020393596410727;-1.0196798205363515;0.0081574385642908;2.871152142687845
53.7558072;86.8619832;21.0;0.0;2.043694953950166;-2.787431818185007;-0.0622004690527174;-1.026817579280106;-0.0367084735393086;3.456925527717067
53.7557346;86.8623202;23.0;0.0;0.3621834484822163;-2.7131439286722974;-0.0652595085143265;-0.9656367900479248;-0.0061180789232181;2.7379893410123697
53.7556368;86.8626576;23.0;30.0;-1.7536557913434203;-2.5291444324033234;-0.1091057407973896;-0.9931681452024064;0.0305903946160905;3.079575337143742
53.7554883;86.8629955;21.0;30.0;-3.160193360516718;-2.6275085007581827;-0.0622004690527174;-0.9768532680738248;0.0540430304884266;4.1102909745857215
53.7553347;86.8632259;19.0;30.0;1.4701771741328369;-2.5822477037377203;0.0132558376669725;-0.9931681452024064;-0.0254919955134087;2.971464259255392
53.7551681;86.8634945;20.0;0.0;-0.8906094210930359;-2.324634461732153;-0.0693382277964719;-1.047211175690833;0.0163148771285816;2.4903650960143104
53.7550359;86.8636951;20.0;0.0;0.915061543832248;-2.284079312434122;-0.0897318242071989;-0.9534006322014889;-0.0152951973080452;2.462195714147383
53.7548913;86.8639345;19.0;60.0;0.5002678736549633;-2.020966002655391;0.020393596410727;-0.934026715611298;-0.0081574385642908;2.082063262265278
53.7547257;86.8641017;17.0;60.0;-0.5648706287885409;-1.9106909828748733;-0.0244723156928724;-1.0339553380238604;0.0101967982053635;1.9925907140059351
53.7545614;86.864219;18.0;60.0;1.722303661204747;-1.8215503086238136;-0.0193739165901906;-0.9493219129193432;-0.0285510349750178;2.5069405212112295
53.7543749;86.8643141;18.0;60.0;0.3748850239119162;-1.7640398749245816;-0.0010196798205363;-0.9350463954318344;-0.0061180789232181;1.8034346401309664
53.754201;86.8644218;17.0;60.0;-1.830486024331276;-1.819555123719801;-0.0642398286937901;-1.082899969409605;0.0346691138982359;2.5817797522479933
53.7540449;86.8645473;14.0;60.0;0.9669763482139362;-1.9115438465840424;-0.0122361578464362;-0.9967370245742836;-0.0168247170388497;2.1422401496978156
53.7538418;86.8646258;14.0;60.0;1.4278813779050086;-2.0867447330901334;-0.020393596410727;-0.9406546344447844;-0.023452635872336;2.5285894702821734
53.7536854;86.8646742;14.0;60.0;2.587895210288796;-2.167507221514392;-0.0316100744366268;-0.99214846538187;-0.0448659121035994;3.375838913745533
53.7534947;86.8646883;14.0;60.0;0.3575287990059553;-2.1924198136711923;-0.0550627103089629;-0.9788926277148976;-0.0061180789232181;2.2220628666991478
53.7533441;86.8646657;16.0;60.0;0.6010604932817726;-2.4641813857466417;-0.020393596410727;-0.971754868971143;-0.0101967982053634;2.536509317392493
53.7531498;86.8646762;17.0;60.0;1.5754966367027703;-2.3805646225764985;-0.058121749770572;-0.9992862241256244;-0.0275313551544814;2.855285574565339
53.75294;86.8646456;16.0;60.0;4.2216617537536365;-2.0667779762585647;-0.0662791883348628;-0.9508514326501478;-0.0703579076170082;4.700892691506583
53.7527692;86.8646028;15.0;60.0;-1.3699635090339528;-2.086229043121764;0.0020393596410727;-1.151218517385541;0.0275313551544814;2.4958276774323016
53.7526068;86.864594;14.0;60.0;0.2293812552275037;-2.0948639814369248;-0.0361986336290404;-1.018150300805547;-0.0040787192821454;2.1076957090738024
53.7524154;86.8646074;14.0;60.0;1.3365107196409207;-2.0891350443043923;-0.0887121443866625;-1.0451718160497605;-0.0244723156928724;2.4816558950864818
53.7522743;86.8645687;14.0;60.0;0.6826700001952769;-2.0654944848245504;-0.0662791883348628;-1.0247782196390334;-0.0122361578464362;2.176395811155127
53.7521359;86.8645071;14.0;60.0;-0.1720168299437279;-2.0203945560977843;-0.0938105434893443;-1.01458142143367;0.003059039461609;2.029872993604087
53.7520161;86.8643617;14.0;0.0;0.0599334166890926;-1.9502875112244764;-0.0443560721933312;-0.9737942286122158;-0.0010196798205363;1.951712287201833
53.7519919;86.8641327;10.0;30.0;-3.855445681091098;-1.8516256033050111;-0.0265116753339451;-0.9982665443050882;0.0672988681553992;4.277111366750655
53.7520521;86.8639881;1.0;30.0;-0.7668514106356571;-1.720861085439771;0.0672988681553992;-0.9880697460997246;0.0132558376669725;1.8851931198234948
53.7520835;86.8639939;3.0;30.0;-0.5757684560183184;-1.554446210729142;0.0132558376669725;-1.01458142143367;0.0101967982053635;1.6577056597080675
53.7520889;86.8640761;3.0;30.0;-0.4662742413603501;-1.3488332322735077;-0.0061180789232181;-1.0023452635872336;0.0081574385642908;1.4271650876935293
53.752081;86.8641194;3.0;30.0;-2.835495491284753;-1.1004744031732494;0.0254919955134087;-1.0084633425104517;0.0499643112062812;3.0416654048351437
53.752062;86.8642028;5.0;30.0;0.4867792710374243;-0.8058219765287529;-0.0550627103089629;-1.0186601407158151;-0.0086672784745589;0.9430456079294367
53.7520324;86.8642244;0.0;30.0;-2.872227267386004;-0.4613282054404033;-0.0571020699500356;-1.01458142143367;0.0509839910268175;2.909600287847648
53.7279147;86.8436139;9.0;30.0;4.58751358530142;-7.571183971378166;-0.1927194860813704;-1.0370143774854697;-0.0846334251045171;8.854673818051923
53.7279817;86.8435785;10.0;0.0;3.6075926826830313;-6.1966602486832745;-0.0520036708473539;-1.009483022330988;-0.0637299887835219;7.170497024861053
53.7282379;86.8436043;19.0;0.0;4.031244803767651;-5.044228787410607;-0.0571020699500356;-1.0329356582033242;-0.0729071071683491;6.457432878012605
53.7284139;86.8437291;18.0;30.0;4.796813218315703;-4.09539718636054;-0.0795350260018354;-1.0054043030488429;-0.0846334251045171;6.307774646087096
53.7285633;86.8438785;15.0;30.0;5.500176564916269;-3.3316730443334466;-0.0489446313857448;-1.047211175690833;-0.1009483022330988;6.430737368026602
53.7287053;86.8439693;14.0;30.0;5.235153720294631;-2.7345639601297016;-0.0917711838482716;-1.0308962985622516;-0.0948302233098807;5.907037876748368
53.7288503;86.8440631;14.0;30.0;1.0990416171235389;-2.28557753254968;-0.0285510349750178;-1.009483022330988;-0.0193739165901906;2.5362516229789884
53.7290148;86.8441508;20.0;0.0;1.9575594380695704;-1.966221360393754;-0.0244723156928724;-1.0737228510247785;-0.0367084735393086;2.7746466956856484
53.7292358;86.8441926;21.0;0.0;4.734956371646718;-1.7580030424623;-0.0836137452839808;-0.9442235138166616;-0.078515346181299;5.051472834441949
53.7294228;86.8443284;15.0;0.0;5.420383458508206;-1.6424301775556902;-0.0367084735393086;-1.009483022330988;-0.095849903130417;5.663875107860746
53.7295827;86.8444627;17.0;0.0;6.0726447090315565;-1.601010364474301;-0.023452635872336;-1.0013255837666972;-0.1065565412460487;6.280190918707206
53.7297388;86.8445676;15.0;0.0;7.342013135624939;-1.6152512020185077;-0.0734169470786173;-0.9666564698684612;-0.124910778015703;7.517950743216513
53.7298789;86.8447077;13.0;30.0;1.7948515419899131;-1.6666602889886812;0.023452635872336;-1.0084633425104517;-0.0316100744366268;2.449448632407866
53.7299798;86.8448342;11.0;0.0;5.941892727280894;-1.7367452241852304;-0.0071377587437544;-0.9992862241256244;-0.1040073416947078;6.190510811220967
53.7301737;86.8451049;10.0;0.0;7.401306352788691;-1.887242448488186;-0.023452635872336;-0.9809319873559702;-0.1274599775670439;7.638165343414299
53.7302611;86.8451923;10.0;0.0;9.393708105978968;-1.6080070005645424;-0.0168247170388498;-0.986030386458652;-0.1631487712858162;9.53035789282349
53.7303591;86.8453415;9.0;0.0;9.010878884239538;-1.335475536545046;-0.0295707147955541;-0.9962271846640156;-0.1580503721831345;9.109352754302458
53.730449;86.8454826;9.0;0.0;9.555953611468002;-1.0884489837198972;-0.0509839910268175;-0.979912307535434;-0.1651881309268889;9.617877623573209
53.7305045;86.8455893;9.0;0.0;8.329577743590884;-0.7672940210694399;-0.020393596410727;-0.974813908432752;-0.1427551748750892;8.364868283485883
53.7305608;86.8456968;12.0;0.0;5.926324944856245;-0.5275670711783131;0.0265116753339451;-0.9819516671765066;-0.1019679820536351;5.949819933035457
53.7306156;86.8459052;18.0;0.0;3.5193363898351877;-0.0647499128198249;-0.0418068726419904;-1.0105027021515245;-0.0622004690527174;3.52018024973558
53.7306575;86.8463055;23.0;0.0;2.1415827201276723;0.4158508195792776;-0.0438462322830631;-1.0079535026001836;-0.037728153359845;2.182024505678068
53.7307179;86.8466987;28.0;0.0;2.5067210911398004;0.6682708131303128;0.0112164780258998;-1.0247782196390334;-0.0448659121035994;2.5942941849039145
53.7308112;86.8472272;31.0;0.0;2.386193893488368;0.9997607062216404;-0.0428265524625267;-1.0023452635872336;-0.0418068726419904;2.587523310160084
53.7309473;86.8476961;33.0;0.0;2.703028121567584;1.4064598878096162;0.0326297542571632;-1.01458142143367;-0.0479249515652085;3.0472208884269456
53.7311055;86.8482127;32.0;30.0;3.3316904279420902;1.4249554255993582;0.0254919955134087;-1.015601101254206;-0.0591414295911083;3.623714794850893
53.7312707;86.8486851;24.0;30.0;5.206643745097213;1.6645374054016515;0.1111451004384623;-0.9671663097787296;-0.0887121443866625;5.4673738756090815
53.7314361;86.8489785;16.0;30.0;5.607918309506494;1.8741303440641528;0.0550627103089629;-0.9850107066381156;-0.0968695829509534;5.913048639636474
53.7315538;86.849173;13.0;30.0;6.235420070501486;1.9636493752439552;0.0448659121035994;-0.9788926277148976;-0.1070663811563169;6.537460919544959
53.7316952;86.8492632;12.0;30.0;5.806402130177293;1.9880464591304408;0.0560823901294993;-0.9911287855613338;-0.1009483022330988;6.137571152782763
53.7318267;86.8493179;14.0;0.0;5.248536927364044;1.981908923397728;0.0438462322830631;-0.9758335882532884;-0.0897318242071989;5.6104389623836886
53.7319708;86.8493084;17.0;0.0;5.4207650705356265;1.866960990556986;0.0571020699500356;-1.0084633425104517;-0.095849903130417;5.733541482939948
53.7321502;86.849283;17.0;0.0;5.100974603378186;1.6999496467476287;0.0356887937187723;-0.9931681452024064;-0.0887121443866625;5.3768991431664155
53.7323517;86.8492029;17.0;0.0;5.007376258339802;1.6963563706916231;0.0152951973080452;-0.9890894259202612;-0.0866727847455898;5.286934449379135
53.7325468;86.849142;16.0;0.0;5.542215496080366;1.373391263092993;0.0101967982053635;-0.9982665443050882;-0.0968695829509534;5.709856402855254
53.7328265;86.8488585;12.0;0.0;6.519711279229606;1.128636707467343;-0.0050983991026817;-0.9635974304068522;-0.1101254206179259;6.6166820972168425
53.7329183;86.8486943;11.0;0.0;7.182652962070507;0.9604011126391352;-0.0066279188334862;-0.9952075048434792;-0.1254206179259712;7.246579731156401
53.7329986;86.8485442;11.0;0.0;6.868950814690918;0.3985259912311656;-0.0418068726419904;-1.006423982869379;-0.1213418986438258;6.880629046455702
53.7330547;86.8483699;12.0;0.0;6.2184616499478125;0.110109826606206;-0.003059039461609;-1.0013255837666972;-0.1091057407973896;6.219437178998541
53.7331031;86.8481367;13.0;0.0;5.608522469904006;-0.2895622758637972;0.0132558376669725;-0.9967370245742836;-0.0978892627714897;5.616008041683506
53.7331313;86.8479089;14.0;0.0;5.823738338041931;-0.3496775389957102;-0.0101967982053635;-1.0196798205363515;-0.1040073416947078;5.834235732806066
53.7331443;86.8476659;14.0;0.0;5.044105530469282;-0.587032535008246;-0.003059039461609;-1.0166207810747423;-0.0897318242071989;5.078150958507578
53.7331608;86.8474264;13.0;0.0;6.83080252084979;-0.7917283023687143;0.0122361578464362;-1.0043846232283062;-0.1203222188232894;6.876543209140646
53.733166;86.84715;12.0;0.0;6.995101786695601;-0.9154264373422666;-0.0050983991026817;-0.9972468644845518;-0.1223615784643621;7.054748795108906
53.7331605;86.8469397;12.0;0.0;6.978409665077214;-1.0502962903822888;-0.020393596410727;-0.9911287855613338;-0.1213418986438258;7.057034763270508
53.7331685;86.8467173;14.0;0.0;6.190727206997493;-1.1266415580164746;0.0010196798205363;-0.9870500662791885;-0.1070663811563169;6.2924101575990505
53.7331918;86.8464078;15.0;0.0;4.65367981565385;-1.2281662455368851;-0.0122361578464362;-1.01458142143367;-0.0825940654634444;4.813032087661483
53.7332039;86.8461383;17.0;0.0;4.0130208487166295;-1.2922330867416325;0.0071377587437544;-0.9737942286122158;-0.0683185479759355;4.215952280363717
53.7332128;86.84584;17.0;0.0;4.895669839830375;-1.1547275673842186;-0.0530233506678902;-1.0105027021515245;-0.0866727847455898;5.030287309013064
53.7332314;86.8455258;19.0;0.0;3.650050539226958;-1.0659413640395785;-0.0571020699500356;-1.0054043030488429;-0.0642398286937901;3.8029410430447306
53.733257;86.8452186;18.0;0.0;5.762573870797487;-1.0595307407137118;-0.0142755174875089;-0.9901091057407974;-0.0999286224125624;5.8591865303397554
53.7332637;86.8449181;18.0;0.0;5.657902295710645;-1.272167926872133;-0.0448659121035994;-0.9870500662791885;-0.0978892627714897;5.799334666324993
53.7332996;86.84457;17.0;0.0;4.998182391013467;-1.2949463442456846;-0.0265116753339451;-1.0023452635872336;-0.0876924645661262;5.1632757157875435
53.7333169;86.8442801;16.0;0.0;5.354802745180618;-1.2400624193786804;-0.0326297542571632;-1.0003059039461608;-0.0938105434893443;5.496610950814335
53.7333273;86.8439833;15.0;0.0;5.715668813621747;-1.2023921686646797;-0.0142755174875089;-1.0288569389211788;-0.1029876618741715;5.840789390542508
53.7333295;86.8436527;14.0;0.0;4.8351373866048055;-1.1638759938081205;-0.020393596410727;-1.0003059039461608;-0.0846334251045171;4.973286315413677
53.7333339;86.8433499;13.0;0.0;5.367402171045825;-1.132386240267507;-0.020393596410727;-0.9982665443050882;-0.0938105434893443;5.485592088523277
53.7333369;86.8430457;14.0;0.0;6.64436249656405;-0.8496620858442127;-0.0101967982053635;-0.9890894259202612;-0.1152238197206077;6.698476141672944
53.7333381;86.8427909;16.0;0.0;5.467684503465013;-0.6512509828882946;0.0081574385642908;-1.0013255837666972;-0.095849903130417;5.506338912194594
53.7333256;86.8424456;19.0;0.0;3.1819600337483727;-0.7295427367395546;0.0265116753339451;-0.9901091057407974;-0.0550627103089629;3.2646294016366384
53.7332957;86.8421085;20.0;0.0;4.0021117695622825;-0.4238395576358482;0.0214132762312633;-1.0054043030488429;-0.0703579076170082;4.024549305833493
53.7332856;86.8415864;21.0;0.0;4.351327010259516;-0.1464980479057536;-0.0367084735393086;-1.0043846232283062;-0.0764759865402263;4.353947167833321
53.7332836;86.841226;21.0;0.0;4.073956909635043;-0.1323070251036737;-0.040787192821454;-1.0013255837666972;-0.0713775874375446;4.076308826076987
53.7333346;86.8408674;21.0;0.0;3.485144467928083;0.0166038977126567;-0.0193739165901906;-1.0043846232283062;-0.061180789232181;3.485237868552592
53.7333998;86.8404462;20.0;0.0;2.901175240208582;0.1389926697962137;0.0152951973080452;-1.005914142959111;-0.0509839910268175;2.9045431103216726
53.733491;86.8401278;20.0;0.0;4.7971914966544;0.0172947062880039;-0.0020393596410727;-1.0084633425104517;-0.0846334251045171;4.797223105237718
53.7335816;86.8397832;19.0;0.0;3.841152079366681;-0.0659049690840955;0.0010196798205363;-1.0023452635872336;-0.0672988681553992;3.8417175587905845
53.7336772;86.8394948;19.0;0.0;4.562271453057486;-0.2502230871679418;-0.0081574385642908;-1.009483022330988;-0.0805547058223717;4.569135470582925
53.733794;86.8392276;19.0;0.0;3.179788136169209;-0.2402876913237654;0.0050983991026817;-0.9911287855613338;-0.0550627103089629;3.1888582218715165
53.7340075;86.8387499;17.0;0.0;3.2809749444699987;-0.3137157974143822;0.0418068726419904;-0.9952075048434792;-0.0571020699500356;3.296204180931053
53.7340884;86.8384724;17.0;0.0;3.2673510397985623;-0.5110758604579154;-0.0438462322830631;-0.9992862241256244;-0.0571020699500356;3.3073711380038624
53.7341446;86.8381446;21.0;0.0;3.8795801791629567;-0.6494713455434628;-0.0448659121035994;-1.006423982869379;-0.0683185479759355;3.933823629155863
53.7342004;86.8377652;24.0;0.0;3.381830090826537;-0.7427994332550368;0.0723972672580809;-0.9635974304068522;-0.0571020699500356;3.4632018603555674
53.7342273;86.8373313;27.0;0.0;3.965098807205921;-0.973570709535504;-0.0458855919241358;-0.9992862241256244;-0.0693382277964719;4.083130412430823
53.7342363;86.8368795;26.0;0.0;3.204442166294577;-1.1063791458243182;-0.0224329560517997;-1.0196798205363515;-0.0571020699500356;3.3901368186193976
53.7342627;86.8364195;25.0;0.0;2.979660369327962;-1.3510313693752354;-0.003059039461609;-1.0186601407158151;-0.0530233506678902;3.2716465327571678
53.7343141;86.8359589;26.0;0.0;3.540938935872129;-1.6729303930981696;-0.07545630671969;-1.0023452635872336;-0.0622004690527174;3.916967998586485
53.7344627;86.8355955;26.0;0.0;2.7392666873412845;-1.833962663028681;-0.0520036708473539;-1.0003059039461608;-0.0479249515652085;3.2969236290127415
53.7346862;86.8352814;29.0;0.0;1.881293786610878;-2.0021790861485176;-0.0214132762312633;-0.9931681452024064;-0.0326297542571632;2.7474435267990795
53.7349282;86.8349602;35.0;0.0;1.978200954186743;-2.190757102374876;-0.0275313551544814;-1.00336494340777;-0.0346691138982359;2.951855970786506
53.7351959;86.8345111;35.0;0.0;2.314821020846025;-2.444680037825702;-0.0101967982053635;-0.9584990313041704;-0.0387478331803813;3.366743355319462
53.7355516;86.8340732;35.0;0.0;-0.6342482292799605;-2.5691012608080435;-0.066789028245131;-1.0110125420617926;0.0112164780258998;2.6470762888372095
53.7358991;86.8335759;35.0;30.0;1.1070634300303692;-2.4906878417013654;-0.0672988681553992;-1.0003059039461608;-0.0193739165901906;2.7264710709201756
53.7362527;86.8334175;34.0;30.0;2.3221873797907744;-2.4160605093201823;-0.0469052717446721;-1.0298766187417152;-0.0418068726419904;3.351432934742016
53.7365989;86.8332773;36.0;30.0;1.7422501009925722;-2.6617336092307;-0.0683185479759355;-1.00336494340777;-0.0305903946160905;3.1819693029497405
53.7369615;86.8331535;37.0;0.0;1.041709032762964;-2.957155040963154;-0.0774956663607627;-1.006423982869379;-0.0183542367696543;3.1362285030811194
53.7373617;86.8331185;39.0;0.0;-0.5700655884658704;-2.868113364519282;-0.0091771183848271;-1.0247782196390334;0.0101967982053635;2.92423208148548
53.7377833;86.8330281;39.0;0.0;-0.3474829965941002;-3.1117144162420463;-0.0254919955134087;-1.0084633425104517;0.0061180789232181;3.1311596706341644
53.7381787;86.8329883;39.0;0.0;-1.3722208056307432;-3.181469350227806;-0.0458855919241358;-0.9992862241256244;0.0239624757826042;3.465089126327208
53.7385975;86.8330487;38.0;0.0;1.218042887764854;-3.049802408423756;-0.0372183134495768;-1.006423982869379;-0.0214132762312633;3.2842515752782884
53.7389967;86.8330383;39.0;0.0;0.2300705242923164;-3.191731726202652;-0.0805547058223717;-1.012542061792597;-0.0040787192821454;3.2010268538121998
53.7393712;86.83308;39.0;0.0;0.9478839156772648;-3.441348398167882;-0.0458855919241358;-0.9850107066381156;-0.0163148771285816;3.569799462535471
53.7397606;86.8333158;39.0;0.0;-0.6455382938312236;-3.296617370269777;-0.0509839910268175;-0.9941878250229428;0.0112164780258998;3.3596138382421232
53.7404425;86.8339721;37.0;0.0;0.4778765460831105;-3.0837011264319787;-0.0173345569491179;-0.9778729478943612;-0.0081574385642908;3.1205575010434914
53.740754;86.834386;36.0;0.0;3.303831577481514;-2.7934534739068333;-0.0601611094116447;-1.0227388599979603;-0.0591414295911083;4.32692786655056
53.7410354;86.8347954;36.0;0.0;1.5867439707474298;-2.545943635466292;-0.1193025390027531;-1.023758539818497;-0.0285510349750178;3.0023022032245756
53.7412547;86.8352707;33.0;0.0;0.4731023125559118;-2.3677369885788098;-0.07545630671969;-0.9850107066381156;-0.0081574385642908;2.415718919794639
53.7414217;86.8357449;30.0;0.0;0.7326432217560587;-2.034200620525674;-0.058121749770572;-1.0349750178443968;-0.0132558376669725;2.1628953725801274
53.7415698;86.8361746;28.0;0.0;1.6467381025315575;-1.8232065820578096;-0.0438462322830631;-0.99214846538187;-0.0285510349750178;2.457183572969992
53.7417407;86.8365759;29.0;0.0;0.9737767279280432;-1.7383193757190187;-0.0183542367696543;-1.0196798205363515;-0.0173345569491179;1.9925692574818576
53.7420041;86.8368649;33.0;0.0;0.288350612804707;-1.40284364423038;0.0010196798205363;-1.0130519017028652;-0.0050983991026817;1.4321722682028721
53.7423457;86.8370785;33.0;0.0;-0.3472251842082067;-1.1738605234542705;-0.0101967982053635;-1.009483022330988;0.0061180789232181;1.224180473527657
53.7426736;86.8372272;34.0;0.0;-0.5795738167521778;-1.0252681243140973;-0.0336494340776996;-1.0074436626899157;0.0101967982053635;1.1782244354166924
53.7432091;86.8373787;34.0;0.0;0.2336108091498688;-0.8320358240993558;-0.0091771183848271;-1.0003059039461608;-0.0040787192821454;0.8642579720420285
53.7435758;86.8374638;36.0;30.0;-1.5415553812782283;-0.9058738688108576;0.0652595085143265;-0.9829713469970428;0.0265116753339451;1.789206322142236
53.7443252;86.8377012;41.0;0.0;-1.2730274231641456;-0.6733703169416891;0.0020393596410727;-1.009483022330988;0.0224329560517997;1.4401494932311163
53.7448473;86.8377881;41.0;0.0;-3.306160723433337;-0.6498659157025427;-0.0071377587437544;-1.023758539818497;0.0591414295911083;3.369432501945251
53.7452791;86.8378871;37.0;0.0;-1.9728982220345856;-0.6519138623958374;0.0061180789232181;-1.006423982869379;0.0346691138982359;2.077824946760626
53.7456759;86.8378999;36.0;0.0;-2.638055945542917;-0.603693223914732;-0.0275313551544814;-1.017640460895279;0.0469052717446721;2.7063892284613345
53.7460609;86.8379265;37.0;0.0;0.2412247182710465;-0.6655362528434645;-0.0122361578464362;-0.968695829509534;-0.0040787192821454;0.7080095988845834
53.7465626;86.8379674;38.0;0.0;-5.011771251945564;-0.9365324242304728;-0.0469052717446721;-1.0105027021515245;0.0887121443866625;5.098739468533419
53.7469162;86.8380394;38.0;0.0;-1.250648262675521;-1.0591637166953842;-0.0428265524625267;-0.979912307535434;0.0214132762312633;1.6394459336291345
53.7473025;86.8381697;37.0;0.0;-3.5925135407180147;-1.1290746669363;-0.0305903946160905;-1.0227388599979603;0.0642398286937901;3.765886205928476
53.7476829;86.8383197;35.0;0.0;-1.2041105819014366;-1.2723554994070827;-0.0479249515652085;-1.017640460895279;0.0214132762312633;1.7524461792879662
53.7480155;86.8385499;35.0;0.0;-2.8359017733034677;-1.3447675585378454;-0.0275313551544814;-1.0288569389211788;0.0509839910268175;3.138709389197769
53.7483102;86.8388702;34.0;0.0;-0.7100903458606533;-1.3065157071484772;-0.020393596410727;-0.9870500662791885;0.0122361578464362;1.4871541584801324
53.7485906;86.839253;34.0;0.0;-1.58272886730789;-1.225453678840213;-0.0275313551544814;-1.0329356582033242;0.0285510349750178;2.0018804564482293
53.7488704;86.8396608;35.0;0.0;1.1094824813196364;-1.2442758277915158;0.0122361578464362;-1.0003059039461608;-0.0193739165901906;1.6671302995087944
53.7491705;86.8400633;36.0;0.0;-1.6342421670356515;-1.036443720145542;-0.0632201488732537;-1.0166207810747423;0.029060874885286;1.9362230844533566
53.7494699;86.8404139;37.0;0.0;0.5875761932282135;-1.0448078056914023;-0.0132558376669725;-0.9941878250229428;-0.0101967982053635;1.1987680555113633
53.7497964;86.840766;37.0;0.0;-0.5835736567811916;-1.0125894682856926;0.0397675130009177;-1.0003059039461608;0.0101967982053635;1.169391764663302
53.7502169;86.8411865;39.0;30.0;-1.972944926083384;-1.0144826012638848;-0.0071377587437544;-1.0359946976649332;0.0356887937187723;2.2184989468614114
53.7506554;86.8415994;41.0;30.0;-3.4126859853227884;-1.0368094396440417;-0.0571020699500356;-0.9901091057407974;0.0591414295911083;3.567164153069794
53.7510084;86.841978;38.0;30.0;-2.803556977847645;-1.079783986147457;0.0193739165901906;-0.9992862241256244;0.0489446313857448;3.0043702390722014
53.7515233;86.8424673;36.0;0.0;-2.936666939993512;-1.2393870587225289;-0.0183542367696543;-1.0135617416131335;0.0520036708473539;3.1875429214031197
53.7519448;86.8427864;36.0;0.0;-1.838457290773942;-1.311936658935916;-0.0397675130009177;-0.9839910268175792;0.0316100744366268;2.2589122298464974
53.7522939;86.8430587;38.0;0.0;-2.5707357741191164;-1.2735941819319836;0.0010196798205363;-0.9992862241256244;0.0448659121035994;2.8689241189570955
53.7526393;86.8433529;40.0;0.0;-1.4717226261745333;-1.3834044942477268;0.0071377587437545;-1.012032221882329;0.0260018354236769;2.0198580224111686
53.7531863;86.8438487;40.0;30.0;-4.82195216946553;-1.605786935761215;-0.0356887937187723;-1.026817579280106;0.0866727847455898;5.082425414865606
53.7535187;86.8441811;39.0;30.0;-2.1081863389894835;-1.6944970995628474;-0.095849903130417;-1.0482308555113695;0.0387478331803813;2.706465825437095
53.7539537;86.8447697;41.0;30.0;-0.5989051706110429;-1.9759463505968813;-0.0571020699500356;-0.9737942286122158;0.0101967982053635;2.0655052723763148
53.7542584;86.8452536;38.0;0.0;-1.713974612841949;-1.7370958461788404;-0.0479249515652085;-0.9870500662791885;0.0295707147955541;2.4408006377541405
53.7545599;86.8456575;35.0;0.0;0.9377278933309032;-2.09945300414799;-0.0285510349750178;-0.934026715611298;-0.0152951973080452;2.2995329265211617
53.7548585;86.8460329;35.0;0.0;0.967893028723246;-2.2920956235812047;-0.0509839910268175;-1.0247782196390334;-0.0173345569491179;2.4885977236251327
53.7551423;86.8464191;38.0;0.0;0.7167659987378885;-2.2397804847631164;-0.0193739165901906;-0.9778729478943612;-0.0122361578464362;2.351753700011221
53.7554645;86.8468693;41.0;0.0;0.1752413999407691;-2.476868808364709;-0.0418068726419904;-0.9992862241256244;-0.003059039461609;2.483412260721791
53.7558017;86.8472833;41.0;0.0;2.6880466469322903;-2.856785071076064;-0.0183542367696543;-0.9554399918425616;-0.0448659121035994;3.922646121741598
53.7561346;86.847693;39.0;0.0;4.159300955658709;-3.124025465828652;-0.0122361578464362;-0.9534006322014889;-0.0693382277964719;5.201871708764857
53.7564573;86.8481693;38.0;0.0;3.4776691245483047;-3.301351043461082;-0.0428265524625267;-0.9554399918425616;-0.058121749770572;4.795303469603772
53.7567656;86.84858;36.0;0.0;3.247570218156109;-3.438778014125332;-0.0815743856429081;-0.9850107066381156;-0.0560823901294993;4.730598369411559
53.75729;86.8494116;31.0;0.0;3.333530278678958;-3.4566500331788275;-0.078515346181299;-1.0298766187417152;-0.0601611094116447;4.802813574388513
53.7574968;86.8498232;31.0;0.0;3.534725706734569;-3.553157691620113;-0.0326297542571632;-1.006423982869379;-0.0622004690527174;5.012013577818026
53.7577193;86.8502249;31.0;0.0;3.705886538073535;-3.597612484188202;-0.0734169470786173;-0.9890894259202612;-0.0642398286937901;5.1654429304348914
53.7579689;86.8506025;33.0;0.0;1.6123186734842554;-3.853577578619825;-0.0244723156928724;-1.050270215152442;-0.0295707147955541;4.177347310619843
53.7583506;86.8512658;37.0;30.0;1.8796667643597684;-3.817743735290848;-0.1641684511063526;-1.0278372591006424;-0.0341592739879677;4.258552060704424
53.758546;86.8519476;35.0;0.0;3.065553860330706;-4.099235764392523;-0.0672988681553992;-0.968695829509534;-0.0520036708473539;5.119168239110553
53.7585505;86.8526945;31.0;0.0;2.215434552080352;-3.916570500879713;-0.0922810237585398;-1.050270215152442;-0.040787192821454;4.500687784134616
53.7584714;86.853153;27.0;0.0;4.571203113892005;-3.975675006809326;-0.1101254206179259;-0.9758335882532884;-0.078515346181299;6.0592092946597065
53.75835;86.853518;21.0;0.0;2.01666904442242;-4.35208687132337;-0.0601611094116447;-0.9972468644845518;-0.0351789538085041;4.797002556739209
53.7582245;86.8538021;20.0;0.0;5.08579737192185;-4.193273196327558;-0.0642398286937901;-0.971754868971143;-0.0866727847455898;6.591889089090997
53.7581278;86.854115;17.0;0.0;5.914196543215729;-3.88606805259837;-0.0081574385642908;-0.9646171102273886;-0.0999286224125624;7.076673809425901
53.7580288;86.8543488;15.0;0.0;5.024932228620248;-3.547810929357216;-0.0469052717446721;-0.9962271846640156;-0.0876924645661262;6.151349965431199
53.7579375;86.8546671;17.0;0.0;4.327976503860601;-2.9200339396913333;-0.078515346181299;-1.0074436626899157;-0.0764759865402263;5.221507779033245
53.757877;86.8549138;19.0;0.0;4.527960728823431;-2.6777680603537743;-0.0683185479759355;-0.9890894259202612;-0.078515346181299;5.260944551201388
53.7578005;86.8552469;20.0;0.0;4.09357512379576;-2.5550820589186154;-0.0112164780258998;-1.011522381972061;-0.0723972672580809;4.825549443467196
53.7576928;86.8555232;21.0;0.0;3.6861070121501696;-2.231830070767977;-0.0428265524625267;-0.9962271846640156;-0.0642398286937901;4.309325293291592
53.7575871;86.8558783;22.0;0.0;4.741975208078887;-2.016466171975143;-0.0285510349750178;-0.9829713469970428;-0.0815743856429081;5.152987469260238
53.757441;86.8561674;24.0;0.0;3.4300626645334247;-1.7331120401376343;-0.0968695829509534;-0.9819516671765066;-0.0591414295911083;3.84426728290285
53.7571783;86.8566215;24.0;30.0;0.487779450102218;-1.8127137009621528;0.0173345569491179;-1.0778015703069237;-0.0091771183848271;1.8772746843396546
53.7568317;86.8572989;28.0;30.0;3.2487021131890925;-1.8533630387601183;-0.0999286224125624;-0.9829713469970428;-0.0560823901294993;3.7415245159237815
53.7566339;86.8577155;30.0;30.0;1.563692684959319;-1.8372517947800824;-0.0469052717446721;-1.0074436626899157;-0.0275313551544814;2.4130538897702554
53.7564527;86.8581231;31.0;30.0;4.045831614056438;-1.690380264764184;0.1213418986438258;-0.9727745487916796;-0.0693382277964719;4.386440783273979
53.7563149;86.8586509;33.0;30.0;-0.9578518713625372;-1.725672000077255;-0.0178443968593861;-0.9146527990211074;0.0152951973080452;1.9737635323975928
53.7562293;86.8592565;34.0;30.0;1.1327815468145337;-1.8091266101978172;-0.0244723156928724;-0.92790863668808;-0.0183542367696543;2.1346503270476744
53.7561375;86.8599327;31.0;30.0;-1.4005790203176516;-1.8324982882169336;-0.0040787192821454;-0.8340980931987356;0.020393596410727;2.306444927680461
53.7560649;86.8604233;30.0;30.0;-3.2166832000516905;-1.7442955416902788;-0.1244009381054349;-0.9901091057407974;0.0560823901294993;3.661296674630025
53.7559652;86.8608868;28.0;30.0;0.9559572934878674;-1.7052347969159296;-0.061180789232181;-0.9758335882532884;-0.0163148771285816;1.9558688986117225
53.7558883;86.8613475;26.0;30.0;-2.193379407169407;-1.7266253338168531;-0.0285510349750178;-1.064545732639951;0.040787192821454;2.791587976183291
53.7558191;86.8618159;24.0;30.0;-0.9996135174228044;-1.4465034705573547;-0.0458855919241358;-1.1094116447435505;0.0193739165901906;1.7588931070690714
53.7557204;86.8622036;23.0;30.0;-0.3362970135164952;-1.6545716762118583;-0.0509839910268175;-1.041093096767615;0.0061180789232181;1.6891721286960824
53.7555933;86.8625373;23.0;30.0;-0.59800840014278;-1.6821547159181471;-0.0122361578464362;-0.9768532680738248;0.0101967982053635;1.7853314141878063
53.7554519;86.8628567;22.0;0.0;-2.27891456842434;-1.8949057291758995;-0.0418068726419904;-0.9727745487916796;0.0387478331803813;2.9640963458093674
53.7553;86.8631656;24.0;0.0;0.9369418517728602;-1.8356095055249144;0.0193739165901906;-0.9350463954318344;-0.0152951973080452;2.0609943326028386
53.7551194;86.863497;22.0;30.0;-5.974547622443787;-2.3606704916386354;-0.0122361578464362;-0.9839910268175792;0.1029876618741715;6.424027878714487
53.7549676;86.8637548;19.0;30.0;0.8282411042775483;-2.636266523050581;-0.0989089425920261;-0.9115937595594984;-0.0132558376669725;2.76508001444746
53.7548225;86.8639681;18.0;30.0;-0.678416255727203;-1.9320707370587664;-0.0295707147955541;-1.0329356582033242;0.0122361578464362;2.04793075473934
53.754672;86.8640992;18.0;30.0;-0.332683423151134;-2.210204907743371;-0.0265116753339451;-1.0533292546140511;0.0061180789232181;2.235259909536574
53.754491;86.8642254;21.0;0.0;2.712224297228067;-2.595355435207197;0.0275313551544814;-1.0543489344345875;-0.0499643112062812;3.7540362876576543
53.7542847;86.8643007;23.0;60.0;0.9872087698432872;-2.627297817507009;-0.0326297542571632;-0.9758335882532884;-0.0168247170388498;2.8068380213320956
53.7540489;86.8644233;21.0;60.0;5.848143235233732;-2.915961366862609;-0.0632201488732537;-0.9635974304068522;-0.0989089425920261;6.535105720649734
53.7538299;86.8645371;21.0;60.0;-1.2941837036996464;-3.2523347349628398;-0.0662791883348628;-1.0359946976649332;0.023452635872336;3.5009978031946645
53.7536206;86.8646094;20.0;60.0;-0.5090975250712025;-3.3492864534440634;-0.1284796573875803;-1.0247782196390334;0.0091771183848271;3.3901927761736452
53.7534458;86.8646394;20.0;60.0;2.754319699122622;-3.5543543663480843;-0.0142755174875089;-1.0808606097685327;-0.0520036708473539;4.496656063893719
53.7532361;86.8646345;21.0;60.0;2.0119361513001444;-3.700672389365697;-0.0520036708473539;-0.9564596716630978;-0.0336494340776996;4.212548823705626
53.7530124;86.8646156;21.0;60.0;1.3682869936696216;-3.772814269062057;-0.0887121443866625;-0.9992862241256244;-0.0239624757826042;4.014250446901064
53.7527979;86.8645547;20.0;60.0;-0.5560958157250255;-3.7553537520023816;-0.0729071071683491;-0.942693994085857;0.0091771183848271;3.79700405651889
53.7523643;86.8644027;18.0;60.0;2.340647980265245;-3.6328645847518857;-0.0163148771285816;-0.9727745487916796;-0.0397675130009177;4.321643695849993
53.7521773;86.8643437;18.0;60.0;0.8512185679442307;-3.389920513875783;-0.0499643112062812;-0.9595187111247068;-0.0142755174875089;3.49551578071151
53.7520339;86.8641747;16.0;60.0;-3.4567722889732764;-3.0110952859392928;-0.1927194860813704;-1.011522381972061;0.0622004690527174;4.588366842258239
53.7520597;86.8639701;9.0;60.0;-2.2390951293293493;-2.4809626475076314;-0.0081574385642908;-1.0431324564086877;0.040787192821454;3.341973847940528
53.7521273;86.8638841;3.0;60.0;0.9923568193138862;-1.7840963451460108;0.0540430304884266;-0.9992862241256244;-0.0173345569491179;2.042227331798911
53.75215695;86.86386255;1.0;60.0;-1.2730182935898735;-0.9050701254196476;0.0043336392372794;-1.009483022330988;0.0224329560517997;1.5619687218925509
53.75215965;86.86389084999999;4.0;60.0;-0.5514605481956526;0.171542265106241;-0.032119914346895;-1.005914142959111;0.0096869582950953;0.5784178194278609
53.7521313;86.8639649;5.0;0.0;-1.8996999735963571;1.4611670798664451;0.0438462322830631;-1.0135617416131335;0.0336494340776996;2.3970381133917864
53.7520861;86.8640733;4.0;0.0;-1.7402265003802544;2.979230572295737;0.0295707147955541;-1.006423982869379;0.0305903946160905;3.450373530894997
53.7277838;86.8435086;5.0;0.0;5.3464046874388345;-5.762922702235915;-0.0509839910268175;-0.9574793514836342;-0.0897318242071989;7.861165341166351
53.7278391;86.8435127;5.0;0.0;4.676088086551156;-5.573492574990038;-0.0938105434893443;-1.0054043030488429;-0.0825940654634444;7.275879307322552
53.7278653;86.8435133;10.0;30.0;4.050269985992318;-5.3422221953496685;-0.1050270215152442;-0.9880697460997246;-0.0703579076170082;6.704853139268988
53.7279497;86.8434697;8.0;30.0;2.6354314398355867;-5.074154480305662;-0.1315386968491893;-1.0105027021515245;-0.0469052717446721;5.719252135799635
53.7280699;86.8434619;12.0;30.0;1.821677852462;-4.774332346848873;-0.116243499541144;-0.9870500662791885;-0.0316100744366268;5.111386515174098
53.728177;86.8435178;15.0;30.0;3.285874978785817;-4.447798711970157;-0.1662078107474253;-1.0166207810747423;-0.0591414295911083;5.532405696870714
53.7283257;86.8436409;14.0;0.0;7.654442801755659;-4.0995964926603685;-0.0479249515652085;-0.9319873559702252;-0.1254206179259712;8.683287557657223
53.72862;86.8439352;13.0;0.0;6.279285126493447;-3.734768605910362;-0.0672988681553992;-1.0171306209850108;-0.1121647802589986;7.306329268322805
53.7287017;86.8440425;13.0;60.0;4.084253883533897;-3.358357968710993;0.0254919955134087;-0.9850107066381156;-0.0703579076170082;5.287754520871936
53.7288151;86.8441815;14.0;60.0;0.4257560197407851;-2.9754074980531144;-0.0020393596410727;-0.9605383909452432;-0.0071377587437544;3.0057149110991808
53.7289536;86.8442688;15.0;60.0;-1.7339153728700825;-2.5909601109275826;0.0489446313857448;-1.0767818904863873;0.0326297542571632;3.1180013459962708
53.7291617;86.8442465;20.0;60.0;3.3227620992299856;-2.2100587243252523;-0.1315386968491893;-1.0278372591006424;-0.0601611094116447;3.992794755783749
53.7294464;86.844352;14.0;0.0;5.682562351412368;-1.8377462552369772;-0.037728153359845;-0.9727745487916796;-0.0968695829509534;5.972457583765895
53.7296111;86.8444911;15.0;0.0;6.529768401361988;-1.479065620653643;-0.0550627103089629;-0.9962271846640156;-0.1142041399000713;6.695412040172853
53.7297876;86.8446164;14.0;0.0;4.622899534816519;-1.0010769752328963;-0.0173345569491179;-0.9330070357907616;-0.07545630671969;4.730079883703113
53.7299589;86.8447621;17.0;0.0;4.758977018597492;-0.5966946228298193;0.003059039461609;-1.041093096767615;-0.0866727847455898;4.79623978697641
53.730092;86.8449464;15.0;30.0;5.066083187219879;-0.3389581687449785;-0.0214132762312633;-1.0349750178443968;-0.0917711838482716;5.077455073990299
53.7301723;86.8451035;12.0;30.0;7.845439794811705;-0.3428097183505654;-0.0081574385642908;-1.0359946976649332;-0.1427551748750892;7.8529300659572066
53.7302409;86.8452233;10.0;30.0;8.696210174726296;-0.4025696621832049;0.0326297542571632;-0.9727745487916796;-0.1488732537983073;8.705584324833477
53.7303176;86.8453512;8.0;0.0;8.864261663534876;-0.617900561514005;-0.0356887937187722;-0.9931681452024064;-0.1549913327215254;8.8858432145481
53.7304045;86.8454893;9.0;0.0;9.381240390001834;-0.5238983208594414;-0.0300805547058223;-0.9870500662791885;-0.1631487712858162;9.395905786318448
53.7304794;86.8455898;8.0;0.0;8.793969834218247;-0.6133361609588694;-0.0152951973080452;-0.9885795860099929;-0.1529519730804527;8.815345746738522
53.7305519;86.8457647;12.0;0.0;5.87959409930229;-0.3169068821427184;0.0265116753339451;-0.979912307535434;-0.1009483022330988;5.8881881435148395
53.7306169;86.8459577;19.0;30.0;-1.7447847994013326;-0.0361894647481444;0.037728153359845;-1.0370143774854697;0.0316100744366268;1.7455678408863546
53.730657;86.846305;19.0;0.0;1.837955232341456;0.4915806511716484;0.0101967982053635;-0.9850107066381156;-0.0316100744366268;1.9025863836870374
53.730688;86.8466176;20.0;0.0;0.7702108532084277;0.4920794892063312;-0.0040787192821454;-0.986030386458652;-0.0132558376669725;0.9139932264785121
53.7307454;86.8469566;20.0;0.0;1.27161900635621;0.6713380037080849;-0.0142755174875089;-1.0105027021515245;-0.0224329560517997;1.438024131559915
53.7308336;86.8473776;21.0;0.0;2.237431079526988;0.8889037220780787;0.0040787192821454;-0.9656367900479248;-0.037728153359845;2.4075432080667936
53.7309024;86.847728;21.0;0.0;1.2754174277697077;1.1636541812491543;-0.0173345569491179;-1.0074436626899153;-0.0224329560517997;1.7265807700371156
53.7309973;86.8480533;19.0;0.0;1.4938312033539705;1.4750303863156198;-0.0020393596410727;-1.0166207810747423;-0.0265116753339451;2.099345246417588
53.731088;86.8483488;14.0;30.0;1.3448105390385534;1.6093089958235172;0.0387478331803813;-0.9982665443050882;-0.023452635872336;2.097592006211846
53.7311593;86.8485737;11.0;30.0;4.861902564979653;1.7422411166318184;0.0560823901294993;-1.0054043030488429;-0.0856531049250535;5.1649439391266245
53.7312183;86.8487095;11.0;30.0;7.398829572661485;2.068919881278794;0.0346691138982359;-0.9809319873559702;-0.1274599775670439;7.68272806156116
53.7313038;86.8488974;10.0;30.0;8.126970922268049;2.187303054069788;0.0275313551544814;-0.9850107066381156;-0.1407158152340165;8.416217024129669
53.7313928;86.8490632;9.0;30.0;8.061138794213555;2.219076037210723;0.0693382277964719;-0.9911287855613338;-0.1407158152340165;8.36128368782758
53.7314548;86.8491764;9.0;30.0;7.110155752528772;2.110662933841499;0.0565922300397674;-0.9997960640358928;-0.124910778015703;7.417035494455401
53.7315655;86.8492615;10.0;30.0;7.207767771943561;2.162613814929297;0.0565922300397675;-0.9901091057407974;-0.1254206179259712;7.525424735341665
53.7317825;86.8493505;11.0;30.0;6.030975090124729;2.320384286006032;0.0530233506678902;-1.0023452635872336;-0.1060467013357805;6.462171094002755
53.7319007;86.8493407;14.0;30.0;5.134286910245304;2.284023054599853;0.0428265524625267;-0.99775670439482;-0.0897318242071989;5.619563817971618
53.732046;86.8493068;16.0;0.0;5.54925799591003;2.214510348641592;0.0550627103089629;-0.9850107066381156;-0.095849903130417;5.9750608609016425
53.7322023;86.8492583;17.0;0.0;5.114308783485877;2.025620741823496;0.0122361578464362;-0.9911287855613338;-0.0887121443866625;5.500858428109672
53.7323737;86.8492249;16.0;0.0;4.11848120590244;1.8363162240292008;0.0091771183848271;-1.0054043030488429;-0.0723972672580809;4.50932688297337
53.7325365;86.8491317;14.0;0.0;4.676272153783422;1.5107571441752692;0.0061180789232181;-0.9972468644845518;-0.0815743856429081;4.914259439205115
53.7326695;86.8490343;13.0;0.0;5.661598908781813;1.2238197299613132;0.0270215152442133;-0.9870500662791885;-0.0978892627714897;5.792423249180613
53.7327781;86.8489381;11.0;30.0;7.668700615637953;0.9421641562100644;0.0305903946160905;-0.9574793514836342;-0.1289894972978484;7.726420788552466
53.7328605;86.8488157;10.0;0.0;7.022492101629413;0.8717843902200768;0.0091771183848271;-0.9850107066381156;-0.1213418986438258;7.076403575261994
53.7329542;86.8486022;10.0;0.0;7.212397108916401;0.6963095637418859;-0.0101967982053635;-0.9829713469970428;-0.1244009381054349;7.245938382290987
53.7330218;86.8484138;11.0;0.0;5.94781970544597;0.4534314272316009;-0.0091771183848271;-0.9982665443050882;-0.1040073416947078;5.965085374677761
53.7330689;86.8482561;13.0;0.0;6.057858638442877;0.2477062789641011;0.0285510349750178;-1.0084633425104517;-0.1070663811563169;6.062988111945575
53.7331092;86.8480404;14.0;0.0;5.546513126395198;0.1518855127351764;0.0132558376669725;-1.0079535026001836;-0.0978892627714897;5.5486081847149125
53.7331472;86.84772;14.0;0.0;6.231265656058491;0.0628420090336125;-0.0163148771285816;-1.0084633425104517;-0.1101254206179259;6.231603884209036
53.733159;86.8474758;13.0;0.0;5.557881454501559;-0.0673334086124756;0.0101967982053635;-1.005914142959111;-0.0978892627714897;5.55829866280154
53.7331742;86.847235;12.0;0.0;6.888418045276337;-0.2255281897272428;-0.0081574385642908;-1.0043846232283062;-0.1213418986438258;6.892113803083511
53.7331837;86.8470141;11.0;0.0;6.948736284835526;-0.3105319268313282;-0.0015295197308045;-0.9997960640358928;-0.1218517385540939;6.95567166945091
53.7331944;86.8467944;12.0;0.0;6.171748202455101;-0.5399275861546615;-0.0010196798205363;-0.9901091057407974;-0.1070663811563169;6.195320711032279
53.7332048;86.8465488;14.0;0.0;5.241809114030599;-0.7017739546387693;0.0020393596410727;-1.0003059039461608;-0.0917711838482716;5.288577656641844
53.733215;86.846303;15.0;0.0;2.942627522274176;-0.821951774506544;-0.0173345569491179;-1.011522381972061;-0.0520036708473539;3.0553169952272605
53.7332291;86.8460099;14.0;0.0;2.9818456142232628;-0.9298476204240262;0.0122361578464362;-0.9982665443050882;-0.0520036708473539;3.1234867676732
53.7332422;86.845767;13.0;0.0;5.0879402960551285;-1.0225108750708516;-0.0392576730906495;-1.0013255837666972;-0.0892219842969307;5.189817541181597
53.7332533;86.8454965;14.0;0.0;4.427000118203523;-1.1440243751945514;-0.0367084735393086;-1.0003059039461608;-0.0774956663607627;4.572577974145752
53.7332618;86.845249;14.0;0.0;4.146339894735296;-1.2825024371661682;-0.0346691138982359;-0.9839910268175792;-0.0713775874375446;4.340293650373113
53.7332691;86.8450003;13.0;0.0;4.851962007007855;-1.3931305288994835;-0.003059039461609;-0.9850107066381156;-0.0836137452839808;5.048005283844488
53.7332731;86.8447739;12.0;0.0;4.558336841104658;-1.3596779785456252;-0.0428265524625267;-1.009483022330988;-0.0805547058223717;4.756994121912464
53.7332868;86.8445572;12.0;0.0;4.967645679185229;-1.355391047204216;-0.0438462322830631;-1.0196798205363515;-0.0887121443866625;5.149418508613806
53.7332967;86.8443111;11.0;0.0;5.149974243650106;-1.3921744185962188;-0.0285510349750178;-0.9952075048434792;-0.0897318242071989;5.3349038870115875
53.733295;86.8441558;11.0;0.0;5.5469821410711;-1.2811000595411606;-0.020393596410727;-0.9972468644845518;-0.0968695829509534;5.693034703450582
53.7333049;86.8439353;11.0;0.0;5.431315469443519;-1.299902354901447;-0.0163148771285816;-0.9972468644845518;-0.0948302233098807;5.5847291819846125
53.7333096;86.8437608;10.0;0.0;6.005956333702793;-1.308783206868167;-0.0010196798205363;-0.9982665443050882;-0.1050270215152442;6.146903773825628
53.7333149;86.8436125;9.0;0.0;5.455698447918945;-1.2950751400495937;-0.020393596410727;-1.00336494340777;-0.095849903130417;5.6073417117003155
53.7333218;86.8433378;9.0;0.0;5.919647956507506;-1.256095762301163;-0.0387478331803813;-1.0023452635872336;-0.1040073416947078;6.051570861159159
53.7333192;86.8432072;10.0;0.0;5.980124589570871;-1.1743537754192457;-0.0183542367696543;-0.9829713469970428;-0.1029876618741715;6.094369021862642
53.7333066;86.8430154;10.0;0.0;5.263116684369888;-0.9346868281515244;-0.0040787192821454;-0.9962271846640156;-0.0917711838482716;5.345470356850146
53.7332967;86.8428519;11.0;0.0;4.160695329510217;-0.8880106342757477;-0.0020393596410727;-0.9952075048434792;-0.0723972672580809;4.254403914837271
53.7332973;86.8426477;13.0;0.0;3.6743453165609865;-0.8442889466637544;-0.0091771183848271;-1.0003059039461608;-0.0642398286937901;3.77010895735045
53.7332952;86.8424152;14.0;0.0;3.980944781802564;-0.7729101164102791;-0.0152951973080452;-0.9962271846640156;-0.0693382277964719;4.0553107583600925
53.7332898;86.842077;15.0;0.0;3.7284372383066113;-0.5130096341336265;-0.0152951973080452;-1.0013255837666972;-0.0652595085143265;3.763596294472355
53.7332842;86.8417898;16.0;0.0;4.212863193420442;-0.357173293994262;-0.0071377587437544;-1.0105027021515245;-0.0744366268991536;4.227982970166659
53.7332811;86.8415051;15.0;0.0;3.481748412222629;-0.2372262920929879;-0.0173345569491179;-1.0054043030488429;-0.061180789232181;3.4898637232046195
53.7332777;86.8411689;15.0;0.0;3.2550489329181214;-0.0269445074747565;-0.0367084735393086;-1.00336494340777;-0.0571020699500356;3.255367425376749
53.733288;86.8409232;13.0;0.0;4.073160302166567;0.0903475048719028;-0.0101967982053635;-1.0166207810747423;-0.0723972672580809;4.074174946351207
53.7333309;86.8406077;13.0;0.0;4.807385966000981;0.0065042788928542;0.003059039461609;-0.9941878250229428;-0.0836137452839808;4.807391339330461
53.733424;86.8401376;12.0;0.0;4.097860658023599;0.0402040332140519;0.0112164780258998;-0.9962271846640156;-0.0713775874375446;4.098073223631269
53.7334719;86.8399551;13.0;0.0;3.518500605637419;0.0090571327916665;0.0254919955134087;-0.994697664933211;-0.061180789232181;3.5186046077046713
53.7335276;86.8397548;13.0;0.0;4.199661990010889;0.0333601897390768;0.0081574385642908;-0.9997960640358928;-0.0734169470786173;4.199802409209935
53.733599;86.8395446;13.0;0.0;4.596807529709467;0.1364769553443736;0.0;-1.01458142143367;-0.0815743856429081;4.598833050300231
53.7336855;86.8393495;13.0;0.0;4.504165498937296;0.0715314620505873;0.0183542367696543;-1.009483022330988;-0.0795350260018354;4.504770856535053
53.7337718;86.8391798;13.0;0.0;4.45044769920952;0.1266697890052371;0.0254919955134087;-1.0084633425104517;-0.078515346181299;4.452322966798477
53.7338545;86.8390321;12.0;0.0;4.326025076735509;0.1757354570027665;0.0214132762312633;-0.9972468644845518;-0.07545630671969;4.3296459952046185
53.7339255;86.8388727;11.0;0.0;4.608765973539411;0.163370342337598;-0.0020393596410727;-0.9992862241256244;-0.0805547058223717;4.611661070221653
53.7339856;86.838728;10.0;30.0;4.992131182732784;0.1264775487752929;-0.0137656775772407;-0.99214846538187;-0.0866727847455898;4.99375207732987
53.7340355;86.8385731;12.0;0.0;4.55909344066283;0.0159541091597705;-0.0193739165901906;-0.9972468644845518;-0.0795350260018354;4.55916251990845
53.7341092;86.838314;15.0;0.0;2.515592226181183;0.0352868828166711;-0.0560823901294993;-1.0196798205363515;-0.0448659121035994;2.5164647120523576
53.7341525;86.8380757;18.0;0.0;2.943863738419616;-0.2306653304898235;-0.0387478331803813;-1.0105027021515245;-0.0520036708473539;2.9531409718548947
53.7341864;86.8378024;19.0;30.0;1.1019008629161513;-0.5114377784056653;0.0260018354236769;-1.0334454981135923;-0.0198837565004588;1.215084444934294
53.7342143;86.8374463;21.0;0.0;1.924074620309205;-0.7755162969158668;0.0132558376669725;-1.0319159783827878;-0.0346691138982359;2.074527509707298
53.734224;86.8369696;21.0;0.0;3.0152518211957813;-1.019333323869979;0.020393596410727;-0.9870500662791885;-0.0520036708473539;3.1829545816977753
53.7342303;86.8366431;18.0;0.0;3.018137547292972;-1.1163473053777184;-0.0224329560517997;-1.0054043030488429;-0.0530233506678902;3.2180566803772974
53.7343242;86.835969;17.0;0.0;4.003753935953156;-1.2653781044840524;-0.0479249515652085;-1.0186601407158151;-0.0713775874375446;4.19922899208302
53.7344526;86.8356622;18.0;0.0;3.437980755862592;-1.4502824870858064;0.0132558376669725;-1.0013255837666972;-0.0601611094116447;3.7313813376900473
53.7345861;86.8354373;21.0;0.0;2.3062248593119783;-1.4767501536595131;-0.0214132762312633;-1.012542061792597;-0.040787192821454;2.7385986647263425
53.7347331;86.8352259;23.0;0.0;1.3463853595909652;-1.5596041253832498;-0.0346691138982359;-0.9972468644845518;-0.023452635872336;2.060660212624059
53.734969;86.834873;27.0;0.0;0.3480918549570808;-1.6017550801015572;-0.0346691138982359;-1.006423982869379;-0.0061180789232181;1.6395088360777736
53.7352227;86.8344867;26.0;0.0;1.090841577088321;-1.575583431238602;-0.0418068726419904;-1.0166207810747423;-0.0193739165901906;1.91680627860466
53.7354133;86.8341397;27.0;0.0;0.293015139165739;-1.5392400883590636;-0.0193739165901906;-0.9967370245742836;-0.0050983991026817;1.5670013624869568
53.7356259;86.8338403;27.0;0.0;-0.790306688167758;-1.5776016470290974;-0.0907515040277353;-1.0308962985622514;0.0142755174875089;1.766818455177245
53.7359251;86.8335507;26.0;30.0;0.5020773292800681;-1.915154630067432;-0.0469052717446721;-1.0461914958702967;-0.0091771183848271;1.9804289954863745
53.7362645;86.8334293;24.0;30.0;1.7929851559408283;-2.1365949559644406;-0.0265116753339451;-0.9768532680738248;-0.0305903946160905;2.789361332672026
53.7365134;86.8333454;23.0;30.0;0.2340490647285432;-2.1897059670491887;-0.020393596410727;-0.9982665443050882;-0.0040787192821454;2.2022731632578396
53.7367349;86.8332341;25.0;0.0;0.7773914433351509;-2.169649510940708;-0.0122361578464362;-0.9768532680738248;-0.0132558376669725;2.3047486153710572
53.737042;86.8330804;26.0;0.0;1.021872379659857;-2.0710636463304875;-0.0367084735393086;-1.0283470990109107;-0.0183542367696543;2.3097348980982684
53.7377123;86.8330083;28.0;0.0;1.3329120495147455;-2.0230572463684298;-0.0316100744366268;-1.0074436626899157;-0.023452635872336;2.4228937968122546
53.7380007;86.8330151;30.0;0.0;1.1008246614434962;-2.1365143323207065;-0.0244723156928724;-1.0079535026001838;-0.0193739165901906;2.403561382966816
53.7383847;86.8330407;29.0;0.0;0.2892631980873935;-2.1323349587189497;-0.0530233506678902;-1.0084633425104517;-0.0050983991026817;2.152518768712306
53.7387506;86.8330226;29.0;0.0;0.3532557689204903;-2.1215270453998016;-0.0173345569491179;-0.99214846538187;-0.0061180789232181;2.1508061580493587
53.7393025;86.8330881;30.0;0.0;-0.1676765319958355;-2.0139123867219304;-0.0152951973080452;-1.0451718160497605;0.003059039461609;2.020938510651639
53.7396129;86.8332193;29.0;0.0;-0.5727952400053423;-1.9650432481099471;-0.0509839910268175;-1.0186601407158151;0.0101967982053635;2.047459089031156
53.7398759;86.8334311;28.0;0.0;-0.2550071698261814;-2.0433428356180854;-0.0734169470786173;-1.0283470990109107;0.0045885591924135;2.0605020380123045
53.7401281;86.8336833;26.0;0.0;1.0917018555460565;-2.072509559610465;-0.0652595085143265;-1.01458142143367;-0.0193739165901906;2.3433667274950793
53.740366;86.8339212;27.0;0.0;1.5196019769367253;-2.3161718947704824;-0.0132558376669725;-0.9992862241256244;-0.0265116753339451;2.7702018214684183
53.7405853;86.8342429;27.0;0.0;0.4557331727021439;-2.344829045873904;-0.0397675130009177;-1.0247782196390334;-0.0081574385642908;2.3890369260782394
53.7407891;86.8345747;27.0;0.0;-0.2900432542245323;-2.3135647580043592;-0.020393596410727;-1.0069338227796472;0.0050983991026817;2.3317638983343683
53.7410212;86.8349092;26.0;0.0;0.8835182723177876;-2.247238199875472;-0.0367084735393086;-0.9911287855613338;-0.0152951973080452;2.414959953400583
53.7411854;86.835227;25.0;0.0;1.0909713931575935;-2.1681435104403186;-0.0387478331803813;-1.0166207810747423;-0.0193739165901906;2.4274608662404558
53.7413318;86.8356038;23.0;0.0;1.158851235328214;-1.9865846835955097;-0.0591414295911083;-1.006423982869379;-0.020393596410727;2.3006417798979655
53.7414423;86.8359191;22.0;0.0;2.064391260482788;-1.890577302854712;-0.0387478331803813;-1.017640460895279;-0.0367084735393086;2.7995526801621873
53.7415941;86.8364293;21.0;0.0;2.16438044472252;-1.749164713831307;-0.0025491995513408;-0.9982665443050882;-0.037728153359845;2.782827052482451
53.7417206;86.836735;21.0;0.0;0.7007129167432579;-1.6087482316296455;-0.0183542367696543;-1.0003059039461608;-0.0122361578464362;1.7548237354417542
53.7419195;86.8369339;23.0;0.0;0.7213204333669211;-1.3369639270352052;-0.0616906291424492;-1.0105027021515245;-0.0127459977567043;1.5203885830635637
53.7422092;86.83707;24.0;0.0;-0.3492993997400948;-1.031035977114044;-0.0489446313857448;-1.0023452635872336;0.0061180789232181;1.0896975881884794
53.7424449;86.8371265;25.0;0.0;0.5992421324366849;-0.8683948279705369;-0.0142755174875089;-0.974813908432752;-0.0101967982053635;1.0551798429333172
53.7427982;86.8372238;25.0;0.0;0.2350551987636943;-0.7769778500050402;0.0050983991026817;-0.9941878250229428;-0.0040787192821454;0.811770607707439
53.7431254;86.8373206;25.0;0.0;0.3514769838578641;-0.8008026743184293;0.0122361578464362;-0.9972468644845518;-0.0061180789232181;0.8746260440532356
53.7434955;86.8374091;26.0;0.0;0.7477303349654206;-0.7452370759617774;-0.0132558376669725;-1.015601101254206;-0.0132558376669725;1.055772073152067
53.7437031;86.8374631;27.0;0.0;-1.066349836020598;-0.6579590542421024;-0.0091771183848271;-0.986030386458652;0.0183542367696543;1.2530348396362199
53.7440609;86.8375393;27.0;30.0;-4.601391368617318;-0.4689967056417772;-0.003059039461609;-1.0135617416131335;0.0815743856429081;4.625231863897335
53.7442916;86.8376164;26.0;30.0;-2.830813258885029;-0.2131584207484627;0.0193739165901906;-1.0308962985622516;0.0509839910268175;2.838893370251743
53.7445516;86.8376716;24.0;0.0;-2.9454337377425164;-0.0565370073960096;-0.0254919955134087;-0.9707351891506067;0.0499643112062812;2.9460865870629807
53.7447925;86.8377589;23.0;0.0;-0.40185127551169;-0.0472668313947535;0.0091771183848271;-1.017640460895279;0.0071377587437544;0.40472561134961715
53.7450453;86.8377813;25.0;0.0;-0.688126935529654;-0.0692697590039065;0.0152951973080452;-1.0186601407158151;0.0122361578464362;0.6917737505677589
53.7452978;86.8378546;25.0;0.0;-1.615110599764664;0.0938301649713059;-0.0081574385642908;-1.012542061792597;0.0285510349750178;1.6178544103641233
53.745632;86.8378816;25.0;0.0;-2.024562824534818;0.326387112473872;-0.0142755174875089;-1.009483022330988;0.0356887937187723;2.0507527808287787
53.7458019;86.8378979;27.0;0.0;-1.3253271982000492;0.2977010903878105;-0.0173345569491179;-1.0135617416131335;0.023452635872336;1.3584618538521815
53.7461175;86.8379319;28.0;0.0;-3.9410726347532026;0.2438657105198657;-0.0081574385642908;-1.006423982869379;0.0693382277964719;3.948618814341521
53.7464228;86.83793;27.0;0.0;-1.9725694795814384;0.0859053143639675;-0.0193739165901906;-1.006423982869379;0.0346691138982359;1.9745342294972257
53.7467085;86.8379597;27.0;0.0;-2.07406518469624;0.0215537927836826;0.0112164780258998;-1.0135617416131335;0.0367084735393086;2.0742075030554963
53.7469964;86.8380172;27.0;30.0;-2.1403110581921903;0.0437000789504012;0.0458855919241358;-1.0084633425104517;0.037728153359845;2.1412488436111934
53.7472626;86.8381554;25.0;30.0;-1.6361267493760754;-0.0143277775741081;0.023452635872336;-0.9992862241256244;0.0285510349750178;1.6363575560871457
53.7474975;86.8382623;26.0;30.0;-1.5242203999307589;-0.0074855457660882;0.0152951973080452;-0.9962271846640156;0.0265116753339451;1.524315519838721
53.7477452;86.838382;27.0;30.0;-1.4445607899720725;-0.0827985807756321;-0.0275313551544814;-1.0105027021515245;0.0254919955134087;1.4471936485556587
53.7482465;86.8388321;25.0;30.0;-2.6441505314615696;-0.1978510108421595;-0.0112164780258998;-1.015601101254206;0.0469052717446721;2.6515661155059043
53.7484699;86.8391323;22.0;0.0;-0.4151793186929481;-0.3404432245867959;0.0010196798205363;-0.9850107066381156;0.0071377587437544;0.536913862350687
53.7485981;86.8393373;22.0;0.0;-0.6593571831389008;-0.3491323147865443;0.023452635872336;-1.0186601407158151;0.011726317936168;0.7464551522458915
53.7487755;86.8396171;23.0;0.0;-1.085016374368424;-0.2421991789668545;0.0015295197308045;-1.009483022330988;0.0191189966350565;1.1117208797042653
53.7490242;86.839917;25.0;0.0;-0.2305712233627779;-0.2854481445401681;-0.0448659121035994;-1.012542061792597;0.0040787192821454;0.3696710461117027
53.7492309;86.8401749;23.0;0.0;-2.546204490764756;-0.2956508163611563;-0.0305903946160905;-1.0084633425104517;0.0448659121035994;2.5634941946976193
53.74943;86.8403996;22.0;0.0;-2.718586748246952;-0.3516740040444662;-0.040787192821454;-1.0084633425104517;0.0479249515652085;2.7415419216132477
53.7496341;86.8406037;20.0;0.0;-2.299632700918071;-0.4370507314792768;0.0122361578464362;-1.015601101254206;0.040787192821454;2.3408275512256678
53.7497935;86.8407631;21.0;0.0;-0.6407865113111159;-0.5388442660910501;0.0066279188334862;-1.0028551034975015;0.0112164780258998;0.8372600703995959
53.7500175;86.8410127;21.0;0.0;-1.2078256307349715;-0.4820579578124215;-0.0081574385642908;-1.015601101254206;0.0214132762312633;1.300495741152021
53.75022;86.8412408;22.0;0.0;-0.8750853110129662;-0.431186038382776;-0.0091771183848271;-1.0013255837666972;0.0152951973080452;0.9755920872725146
53.7505866;86.8415306;24.0;30.0;-3.232252363475827;-0.4706283231924525;-0.0356887937187723;-1.0105027021515245;0.0571020699500356;3.266530276881436
53.7508123;86.8417307;22.0;0.0;-1.7199728459512034;-0.4921536701558613;-0.0112164780258998;-1.0186601407158151;0.0305903946160905;1.78903539239353
53.7512217;86.8421401;23.0;0.0;-0.8454784432329244;-0.6302787160967188;0.0336494340776995;-1.0013255837666972;0.014785357397777;1.0550911535738734
53.7514995;86.8423923;25.0;0.0;0.1752126277794413;-0.7936925518636547;0.0061180789232181;-1.0003059039461608;-0.003059039461609;0.8128251735194525
53.7517987;86.8426403;27.0;0.0;-1.5669709570485422;-0.989050706560061;0.0;-1.006423982869379;0.0275313551544814;1.8530027739808108
53.7521839;86.8429487;28.0;0.0;-2.0178516686511707;-1.054147374131446;-0.0285510349750178;-1.012542061792597;0.0356887937187723;2.2767887922828245
53.7523801;86.8430937;28.0;30.0;-2.690111794961377;-1.1176005228441084;-0.0061180789232181;-0.9982665443050882;0.0469052717446721;2.913034470949744
53.7527715;86.8434083;27.0;30.0;-2.858245671969348;-1.3874020525740354;-0.0295707147955541;-1.0003059039461608;0.0499643112062812;3.1773144641334565
53.7529803;86.8436171;25.0;30.0;-2.624861685759115;-1.6136838021734494;-0.0316100744366268;-1.011522381972061;0.0463954318344039;3.081375257830346
53.7532569;86.8438681;26.0;30.0;-2.975184359554479;-1.8103972411678204;-0.023452635872336;-1.000305903946161;0.0520036708473539;3.482787701008348
53.7534893;86.8441005;26.0;0.0;-0.5684620784810928;-1.8475074032078511;-0.0428265524625267;-1.026817579280106;0.0101967982053635;1.9334598142125135
53.7537117;86.8443997;28.0;0.0;-2.1957633082917427;-1.8367101348957109;-0.0774956663607627;-0.9809319873559702;0.037728153359845;2.863718946400575
53.7539208;86.8447112;28.0;0.0;0.5331920169908606;-1.9140278178329864;-0.0469052717446721;-0.9850107066381156;-0.0091771183848271;1.9874597653634973
53.7541449;86.8450633;29.0;30.0;-0.4646041506108181;-2.0932790638672203;-0.0336494340776996;-1.0054043030488429;0.0081574385642908;2.144482814200985
53.7544389;86.8455365;26.0;0.0;0.7616645809251382;-2.3532797301888646;-0.0418068726419904;-0.9962271846640156;-0.0132558376669725;2.4738242130260075
53.7546403;86.8458147;24.0;0.0;2.329036004382397;-2.4619839234296164;-0.0550627103089629;-1.0013255837666972;-0.040787192821454;3.389514043487942
53.7548859;86.8461115;25.0;0.0;2.4282714071073856;-2.4244154340880257;-0.040787192821454;-0.9850107066381156;-0.0418068726419904;3.431611256934236
53.7550902;86.8463926;27.0;0.0;1.478795712190105;-2.376320924154711;-0.0173345569491179;-1.026817579280106;-0.0265116753339451;2.798935222514441
53.7553101;86.8466893;29.0;0.0;0.117499731342717;-2.102541413478521;-0.0224329560517997;-0.9941878250229428;-0.0020393596410727;2.1059415518420947
53.7555537;86.8469841;29.0;0.0;1.6855014062858344;-2.016769025649736;-0.0326297542571632;-0.9697155093300704;-0.0285510349750178;2.628561772961517
53.7558534;86.847335;26.0;0.0;0.620283063608621;-1.849562874496844;-0.0142755174875089;-0.9888345059651268;-0.0107066381156316;1.950855631797561
53.756218;86.8477764;23.0;0.0;1.643060008313119;-1.7255848840658916;-0.0163148771285816;-0.9952075048434792;-0.0285510349750178;2.3827621698882
53.7563805;86.8479901;24.0;0.0;1.9122133101788064;-1.812204291534778;-0.0433363923727949;-1.0069338227796472;-0.0336494340776995;2.634866634345265
53.7566165;86.8483285;25.0;0.0;2.5352219096055384;-1.7469372894638968;-0.0453757520138676;-1.012287141837463;-0.0448659121035994;3.079155563321581
53.756894;86.8486828;23.0;0.0;3.286546611114566;-1.7013278976258956;-0.0652595085143265;-1.0278372591006424;-0.0591414295911083;3.7013732648464837
53.7570893;86.8490573;22.0;0.0;3.096052671277755;-1.770057580949188;-0.0530233506678902;-1.0166207810747423;-0.0550627103089629;3.5667152197670426
53.757217;86.8492874;22.0;0.0;3.4937557858965334;-1.8018361741084885;-0.0163148771285816;-1.0186601407158151;-0.0622004690527174;3.9310570162523897
53.757422;86.8496204;23.0;0.0;3.2972349373954484;-1.85527021845178;-0.0081574385642908;-0.9911287855613338;-0.0571020699500356;3.7833652162670224
53.7575829;86.8499349;23.0;0.0;3.063488298241365;-1.9314167088426264;-0.0249821556031406;-1.009483022330988;-0.0540430304884266;3.621595665553629
53.7577602;86.8502402;26.0;0.0;1.615864563269827;-2.051307136265432;-0.0061180789232181;-1.0482308555113695;-0.0295707147955541;2.6113055518292736
53.757956;86.850564;27.0;0.0;2.131648305688972;-2.186563958988614;-0.0101967982053635;-1.0135617416131335;-0.037728153359845;3.053701102038028
53.7583367;86.8512519;27.0;0.0;-0.2887660791474727;-2.338926419234705;-0.0795350260018354;-1.0084633425104517;0.0050983991026817;2.3580263915871247
53.7584717;86.8516429;23.0;0.0;0.9218031252425262;-2.388224002058471;-0.0540430304884266;-1.012542061792597;-0.0163148771285816;2.5605186066223853
53.7585589;86.8520117;21.0;0.0;3.660911149569429;-2.4185672820504265;-0.058121749770572;-1.0023452635872336;-0.0642398286937901;4.3880652092514465
53.7585648;86.8524016;20.0;0.0;2.582635512621934;-2.461129907338518;-0.0708677475272764;-0.99214846538187;-0.0448659121035994;3.5682192827083448
53.7584717;86.8530509;17.0;0.0;3.8324896936557535;-2.424073576244488;-0.0050983991026817;-1.050270215152442;-0.0703579076170082;4.534769668759123
53.7583941;86.8533061;14.0;0.0;7.1920397146480175;-2.486038884664058;-0.0346691138982359;-1.009483022330988;-0.1274599775670439;7.609666651082328
53.7583122;86.8535058;12.0;0.0;6.314167725989561;-2.613870682578963;-0.0448659121035994;-0.9850107066381156;-0.1091057407973896;6.8339627572326505
53.7582328;86.853708;14.0;0.0;6.122852997954462;-2.8310900063780178;-0.0606709493219129;-0.989089425920261;-0.1063016212909146;6.745967715818469
53.7581288;86.853988;15.0;0.0;5.912500182957523;-3.0490296889159363;-0.0601611094116447;-1.0074436626899157;-0.104517181604976;6.652658101574829
53.7579823;86.8544303;14.0;0.0;4.770704707132369;-3.108322270415323;-0.0458855919241358;-1.0130519017028652;-0.0846334251045171;5.694154566479649
53.7579245;86.8546541;14.0;0.0;6.154683701465983;-3.0174721423088355;-0.0509839910268175;-1.0105027021515245;-0.1091057407973896;6.854769796429484
53.757848;86.8549616;17.0;0.0;4.0989391942536;-2.840425307759177;-0.0601611094116447;-1.0084633425104517;-0.0723972672580809;4.987277594663526
53.7577655;86.8552119;19.0;30.0;5.261661610062246;-2.5166790939647754;-0.0509839910268175;-0.9952075048434792;-0.0917711838482716;5.832782863106016
53.7576585;86.8554633;20.0;30.0;4.025918898180035;-2.2305248396466637;-0.0158050372183134;-0.9995411440807588;-0.0703579076170081;4.602555141897313
53.7575178;86.8558602;21.0;30.0;2.1756973201591503;-2.169009545653961;-0.0428265524625267;-0.99214846538187;-0.037728153359845;3.072473816272734
