acc_X_std;acc_X_kurt;acc_X_var;acc_X_iqr;acc_Y_std;acc_Y_kurt;acc_Y_var;acc_Y_iqr;acc_Z_std;acc_Z_kurt;acc_Z_iqr;acc_Z_range;acc_std;acc_var;acc_iqr;acc_kurt;acc_cv;hole
0.04725297397097583;-0.1011224113562778;0.0022328435491017194;0.0441011522381971;0.031429469879961584;-1.6314432092149882;0.0009878115769354123;0.04384623228306306;0.028490883335806613;-2.498236360549818;0.042826552462526805;0.06525950851432649;0.026945208371765787;0.0007260442541978771;0.02705259313261655;0.47998772766986636;0.3629960272535459;1
0.04725297397097583;-0.1011224113562778;0.0022328435491017194;0.0441011522381971;0.031429469879961584;-1.6314432092149882;0.0009878115769354123;0.04384623228306306;0.028490883335806613;-2.498236360549818;0.042826552462526805;0.06525950851432649;0.026945208371765787;0.0007260442541978771;0.02705259313261655;0.47998772766986636;0.3629960272535459;1
0.04725297397097583;-0.1011224113562778;0.0022328435491017194;0.0441011522381971;0.031429469879961584;-1.6314432092149882;0.0009878115769354123;0.04384623228306306;0.028490883335806613;-2.498236360549818;0.042826552462526805;0.06525950851432649;0.026945208371765787;0.0007260442541978771;0.02705259313261655;0.47998772766986636;0.3629960272535459;1
0.07094464028794127;-0.6777770391543451;0.00503314198558538;0.0805547058223717;0.03343243868819205;-1.4553269334775625;0.0011177279566397203;0.04384623228306306;0.022016585151968922;2.06628857207958;0.010196798205363504;0.0601611094116448;0.03937683504877297;0.0015505351384582752;0.042187729365894724;-0.1592022597367991;0.4103293746583706;1
0.0666937057809401;1.5309695559256025;0.004448050390794602;0.036453553584174604;0.0551824868292574;-0.1644499340909699;0.0030451068526611666;0.06220046905271748;0.04646205537180271;1.1819478931600074;0.0387478331803814;0.1193025390027531;0.03880274149677642;0.0015056527476656546;0.04419844328780698;-0.8910813366183549;0.36387443233459454;1
0.08236273998121683;0.6907037757060787;0.006783620937213535;0.07647598654022641;0.05615001901400521;-0.1934771745305106;0.003152824635273147;0.06220046905271748;0.04457762157030103;1.3232872853130135;0.0326297542571633;0.1193025390027531;0.045498655547654324;0.0020701276566440956;0.03948387952474569;0.9155183508149811;0.3638749573294653;1
0.04652355529753408;-2.5233487161154513;0.0021644411975227113;0.07239726725808089;0.058200408670673325;-0.5880642993788984;0.003387287569433387;0.07341694707861735;0.04484273157396964;0.9269323561714474;0.0367084735393087;0.1193025390027531;0.023706705737155057;0.0005620078969080605;0.028302826841780954;-1.5007464037889295;0.16387844786472716;1
0.04365253956365953;3.572722985549433;0.0019055442103568607;0.02651167533394519;0.060486870640132716;-0.58523009597103;0.0036586615198361495;0.07341694707861735;0.03552819698212366;2.5758191771452723;0.0203935964107271;0.0917711838482716;0.018294098951041185;0.00033467405643048623;0.013940958763490024;1.3338072829263983;0.11798416973228808;1
0.046877554864780666;4.396973862474013;0.002197505150100521;0.015295197308045294;0.05759431092760618;3.706028245437414;0.0033171046512257773;0.027531355154481574;0.03288052409068511;3.368377690813849;0.0203935964107271;0.078515346181299;0.02086033097320825;0.0004351534083117914;0.020955065054537675;1.1688814777949486;0.1306611344816008;1
0.017193023411287797;1.0231756939526189;0.00029560005402109026;0.015295197308045294;0.021176469339179778;-1.3911661717101242;0.0004484428536732212;0.027531355154481574;0.02874520638931417;3.436222410236456;0.0050983991026817;0.0764759865402264;0.009868920875404575;9.73955992449962e-05;0.013119007271135963;-1.2298568490606492;0.05924070659448565;1
0.01634671106544444;0.8710654211239515;0.00026721496265712377;0.012236157846436307;0.01567457179872734;-1.117171931718545;0.0002456922010734584;0.01733455694911812;0.02967513551429278;-0.24816075083422837;0.0300805547058223;0.0764759865402264;0.008959637480308195;8.02751037785434e-05;0.0061049009800883125;0.7329931765626606;0.05428603354745638;1
0.045738067690437055;2.5391026109743287;0.002091970836055002;0.0336494340776996;0.010709065649528834;2.039414470877677;0.00011468408708591842;0.0040787192821454266;0.023547760852933405;-0.9338816290168156;0.028551034975017903;0.058121749770571995;0.03442083876765416;0.0011847941414688434;0.0061049009800883125;4.434892443626256;0.22517910223972354;1
0.07560085257085745;-0.6872535597418015;0.005715488909440525;0.0938105434893444;0.005268893925874894;1.2283802550181353;2.7761243202121352e-05;0.005098399102681839;0.019586082614655668;0.8716440389382534;0.014275517487509007;0.053023350667890295;0.05255828351395393;0.0027623731659331616;0.07415477992718353;-1.9655821892278134;0.40064474570213676;0
0.07988200609730325;-2.7070232273973485;0.006381134898129595;0.1396961354134801;0.020520660546036667;4.004298125285776;0.0004210975092456658;0.006118078923218251;0.01767240747673804;1.1894858850487797;0.014275517487509007;0.046395431834404;0.05144027905961922;0.002646102309731499;0.09416796993541257;-3.0421328794888893;0.47179268005114844;0
0.07084243440664066;1.2247666905137617;0.005018650512659184;0.06933822779647181;0.018939712063838852;4.726780088216756;0.0003587126930611229;0.0040787192821454266;0.009215277045819512;-1.0969842566648573;0.01121647802589991;0.021923116141531605;0.043786876774519645;0.001917290577666968;0.025406135937763696;3.3874026272085445;0.47987615692105334;0
0.03232883574269842;-0.11490171521931695;0.0010451536204783747;0.0336494340776995;0.020309298601218845;4.5559613979434275;0.00041246760967346977;0.0030590394616092365;0.011527343947027662;-2.472808617487767;0.018864076679922508;0.026511675333945203;0.016349898229192753;0.0002673191721049603;0.013346295991057223;0.8227170892365988;0.24158578701356176;1
0.01914447165852826;-1.359348121321825;0.0003665107950841918;0.0244723156928723;0.022216387436155675;3.9065738369058187;0.0004935678707133757;0.008157438564290742;0.01145495802588644;-0.1958998683947518;0.012236157846436196;0.029570714795554204;0.012036407143360298;0.00014487509692073482;0.018283088453507325;-2.1169909992035763;0.2078589962000643;0
0.018345737469930488;0.5439853088836794;0.00033656608331561147;0.0173345569491179;0.021969308771126145;3.4056924757023523;0.00048265052788108026;0.010196798205363344;0.018167764445936936;-1.232454484208714;0.023452635872336106;0.0438462322830631;0.01645020734741498;0.0002706093217729458;0.02352440475848782;-2.012337315470724;0.26227214624474926;0
0.020709795056174176;1.2905344352616954;0.0004288956112687363;0.017334556949118;0.01851778981487001;2.83355478318817;0.0003429085396277036;0.010196798205363344;0.018458739693197994;-2.1797020857866385;0.025491995513408805;0.0438462322830631;0.020904262952557654;0.0004369882095896744;0.034254623685189285;-2.5771941018377604;0.30944052669468636;0
0.02138412267624517;-0.4114266251496055;0.0004572807026327029;0.0244723156928724;0.01871327785778236;0.7752174299399902;0.00035018676818256747;0.01835423676965442;0.021551217053658943;-2.8139209963429437;0.037728153359845;0.0469052717446722;0.023434812780557354;0.0005491904500597744;0.042232494811245476;-3.078374554247041;0.32869447042962574;0
0.021623464044947846;-0.46082311489848493;0.0004675741973031523;0.0244723156928724;0.01728951255002876;1.4698525519848502;0.0002989272442176019;0.008157438564291075;0.0190136795436713;3.18414141692368;0.012236157846436196;0.0469052717446722;0.019709396414447317;0.00038846030702182873;0.011478908123962211;3.707647382726009;0.25448764125169604;0
0.02666808775491392;-0.06465170372934755;0.0007111869045037897;0.0244723156928724;0.012590052440540516;3.6946561362832213;0.00015850942045556022;0.005608239012950267;0.005928190824410538;-0.50679904417053;0.006627918833486304;0.015295197308045294;0.006001913805236145;3.602296932548423e-05;0.011478908123962211;-3.078693618496527;0.0710035113692255;0
0.026249577039607265;0.48109762024744757;0.000689040294758277;0.0193739165901906;0.019608631188435012;1.8133770618705043;0.0003844984170840663;0.005608239012950267;0.008467027298019264;-0.1267826051532109;0.008157438564290798;0.022432956051799804;0.009156508796959062;8.38416533487887e-05;0.011985015928825879;-1.268287653390748;0.11188266085702259;0
0.018529016120729918;0.8170810387479222;0.00034332443840226923;0.0122361578464361;0.013594668732510884;4.387586272380311;0.00018481501794670907;0.005608239012950267;0.016048218472731492;0.5204076535198242;0.015295197308045308;0.0407871928214541;0.017136784891703685;0.00029366939642452367;0.009946624212979024;1.8688762505810328;0.23577626910886357;1
0.01584774029600461;1.1296456966649064;0.00025115087248960824;0.0122361578464361;0.013010411263576306;1.8374889261328822;0.0001692708012473932;0.01223615784643628;0.015499468689516703;-2.841519860713111;0.0280411950647496;0.0336494340776996;0.015470824959085893;0.00023934642491467501;0.026117850541285084;-2.4131665868980434;0.23778651713802548;0
0.017373500960933264;-2.087376292048917;0.000301838535639549;0.026511675333945002;0.014322781522927248;1.0734824463762227;0.00020514207055350616;0.013255837666972914;0.014436664206221295;-0.8818892214412948;0.018354236769654295;0.0341592739879677;0.015024379349704055;0.00022573197484381365;0.023610307741107353;-1.9801001674846528;0.2574852819975473;0
0.013573619897863893;0.2903044251181702;0.0001842431571316866;0.0122361578464361;0.014202496458839784;0.4755287490699646;0.0002017109056633566;0.013255837666972914;0.008239871051631133;3.01862765560386;0.004078719282145399;0.021413276231263295;0.009860060444260292;9.722079196446648e-05;0.006932973607937626;3.1004259740196267;0.18744858685249605;0
0.01336130790684194;0.5264685869389515;0.00017852454898143692;0.0101967982053634;0.007664574476584629;-1.7277782128593404;5.874570190711254e-05;0.01121647802590009;0.008239871051631133;3.01862765560386;0.004078719282145399;0.021413276231263295;0.007579227415697261;5.744468821885699e-05;0.006932973607937626;1.9135465983498463;0.14714408739806417;0
0.01432550353648133;-1.4907816773428013;0.00020522005157373908;0.0168247170388497;0.00890689009969305;1.1192110881892638;7.933269124801008e-05;0.007137758743754441;0.014029401094210352;-0.47820688950860085;0.015295197308045197;0.034669113898235904;0.012983394989617852;0.00016856854545643392;0.013841964811816654;0.15839417184934135;0.2236330582500986;0
0.011201404445477597;-1.8358523753440608;0.00012547146155116528;0.016314877128581498;0.01169302023165053;-1.7970767251225805;0.00013672672213778863;0.016314877128581706;0.015100215334706412;-2.3412449636122936;0.024472315692872504;0.034669113898235904;0.014514027208536402;0.000210656985810135;0.02535011394406926;-2.708257882757195;0.23184882043387536;0
0.010673812372204494;1.938169422241985;0.00011393027055702573;0.0020393596410727003;0.014927081713196807;-2.0577321598999148;0.00022281776847245455;0.021413276231263323;0.0107816375143357;1.068560968508984;0.010196798205363608;0.027531355154481504;0.011558221455413548;0.00013359248321238209;0.011508149132252607;0.7599085171997769;0.16909767591031996;0
0.010872866534162605;1.2507077830610622;0.00011821922666971314;0.0061180789232181;0.015674571798727183;-2.4059788289952913;0.0002456922010734535;0.02549199551340875;0.006817381319647863;-2.066123147655541;0.010196798205363608;0.016314877128581602;0.0075563051907402146;5.7097748135607514e-05;0.011508149132252607;-2.6649583682008333;0.10710192109742703;0
0.011020092657168594;0.7265311635039661;0.00012144244217258115;0.0081574385642908;0.01574076538629147;-2.6042683443309174;0.0002477716949462717;0.02549199551340875;0.008009518460958627;-0.5842827084939101;0.009177118384827099;0.020393596410727;0.007867088041003587;6.189107424490166e-05;0.0034462637347236064;2.8625363192896267;0.10609452412588848;0
0.007765650153833211;-1.3813912009521268;6.030532231172977e-05;0.0101967982053635;0.01350065324169548;-1.9481980039759048;0.00018226763795250265;0.0193739165901905;0.01291012912043752;-0.009818614429412046;0.013255837666972498;0.033649434077699596;0.012513374327057753;0.00015658453704906806;0.007388326567693518;1.0410115548912795;0.16113401043533299;0
0.03061927191427057;3.905493337667906;0.0009375398125600385;0.0142755174875089;0.014599593212273117;-0.7898869720405225;0.00021314812196385126;0.01937391659019072;0.015780348261998693;-2.442797930625378;0.026511675333945092;0.035688793718772295;0.018955232800131717;0.0003593008505071893;0.020978734796242293;-0.6353648646699881;0.22401355626344435;0
0.03937733620074892;-2.8087808369883667;0.0015505746062668118;0.06423982869379;0.008759755927363952;2.510300306255013;7.673332390698789e-05;0.006118078923218251;0.023854842240028963;0.9338393226433475;0.015295197308045294;0.06525950851432649;0.03072533223724644;0.0009440460410891753;0.028303424927621237;0.2808232594969991;0.3127153499356577;0
0.0407782696469454;-3.1447965247129113;0.0016628672753989885;0.06933822779647181;0.008396120669007415;2.350353721251924;7.049484228853354e-05;0.006118078923218251;0.024525366515357774;-1.823138104164047;0.0316100744366269;0.05914142959110841;0.02993611552105409;0.0008961710124898957;0.04720576886850375;-2.402608628919056;0.2573433047207336;1
0.03421173959791676;4.502128704195776;0.001170443126315666;0.005098399102681804;0.0045372887654301685;-1.5809611264157983;2.058698934089882e-05;0.006118078923218251;0.019648359664070626;-1.953961191667214;0.029570714795554204;0.04588559192413581;0.02303532148914285;0.0005306260361081662;0.03249275216943129;-1.6775730607039694;0.18287776958806073;1
0.007246186603218493;1.2392902656287081;5.250722028866317e-05;0.005098399102681804;0.004804412762063682;-2.317156683710786;2.3082381988280383e-05;0.007647598654022647;0.017944626666662102;0.5806414886379146;0.020393596410727105;0.043846232283063113;0.016577234071250314;0.0002748046894530223;0.01669512374198276;0.7365217298331288;0.12170010093515359;1
0.00942859284638911;-0.3473889402017984;8.88983630629799e-05;0.010196798205363504;0.003815292532654128;-2.003507653061366;1.4556457109726348e-05;0.005608239012950045;0.009317664363463317;-2.314245760457368;0.013255837666972609;0.021413276231263406;0.00910695859582546;8.293669486607923e-05;0.013977952424220008;-2.290506564392633;0.06471263712673882;1
0.011114042290966922;0.5019470802268285;0.00012352193604540126;0.011216478025899895;0.008090245339107347;2.7391060772288043;6.545206964694816e-05;0.005608239012950045;0.010805719826033558;-1.755593599267576;0.01427551748750891;0.025491995513408805;0.009732259115179854;9.471686748500135e-05;0.01553086602378953;-2.856770464110133;0.06860842510307007;0
0.009328816568967556;1.9149719727712775;8.702681857744358e-05;0.006118078923218098;0.008104690784208867;0.8873489620370117;6.568601270764015e-05;0.008157438564290853;0.010660409942844945;-2.061216306929289;0.01427551748750891;0.025491995513408805;0.008479841198758845;7.190770675616785e-05;0.013977952424220008;-2.998577250808136;0.06127655952655712;0
0.007878635167567183;3.2523589471480343;6.207289210362637e-05;0.005098399102681797;0.007870382693145753;1.1132094044944825;6.194292373656819e-05;0.008157438564290853;0.03277759157399253;3.771859293969179;0.01427551748750891;0.08157438564290811;0.029119636052849042;0.0008479532038503857;0.013977952424220008;3.8600130689763077;0.22778211115627267;0
0.014751916275196921;1.9349575827672918;0.00021761903379041982;0.006118078923218098;0.01100829257598439;-1.1404482253902561;0.00012118250543847305;0.013255837666972359;0.037246937286850676;-2.8897719804420476;0.058121749770571995;0.08157438564290811;0.028780619985008925;0.0008283240867214951;0.03242193589967693;-0.8907796662783743;0.24221084819621402;0
0.01483975744853811;1.8474722264565635;0.0002202184011314423;0.007137758743754399;0.013754343135156418;-1.7070191094144331;0.00018918195507962445;0.01937391659019061;0.04148856533100625;-2.491490753071235;0.0622004690527175;0.09279086366880801;0.03539693485603816;0.0012529429972026095;0.0567734950081461;-2.3713649213132677;0.3355549224660433;0
0.01987721901663923;1.7867057652348752;0.0003951038358354442;0.007137758743754399;0.012798911275231343;0.6364821895413352;0.000163812129831244;0.011216478025899757;0.02853646440250724;2.3040545140491893;0.0193739165901907;0.0734169470786174;0.02653271551591254;0.0007039849926483461;0.024351559108469173;0.8836381238543408;0.28649735213137856;1
0.02824899597674134;-0.9390545257775452;0.0007980057736939484;0.0311002345263588;0.01282933903338558;0.3661654606409203;0.00016459194003355082;0.011216478025899757;0.024391457459800397;1.476790586466489;0.0193739165901907;0.0632201488732538;0.019467240431730218;0.00037897345002679166;0.024351559108469173;-1.2727556694713762;0.2193195166040293;1
0.033657930336912875;-0.988607744722246;0.00113285627456448;0.0438462322830631;0.0119806954961416;1.802490738373411;0.0001435370645712676;0.0035688793718771095;0.028350950057996458;-2.318585800891563;0.0469052717446721;0.063729988783522;0.021316277208254887;0.00045438367401916675;0.030934892914125448;-1.162880399817297;0.22101225901990065;1
0.02691452564315755;0.00031575067265758133;0.0007243916905961853;0.0270215152442132;0.007278399989698281;-0.42980716725684803;5.2975106410039946e-05;0.009177118384827154;0.027704533716652862;0.23085511790207036;0.032629754257163204;0.063729988783522;0.022545894899457;0.000508317376817361;0.030934892914125448;-1.3723414260738782;0.22847946757866555;0
0.024136491221177746;-0.569841261321681;0.0005825702084699903;0.0265116753339451;0.008457812319089614;0.7553729423000632;7.153458922494403e-05;0.009177118384827154;0.01572093657465823;3.420006206957666;0.005608239012949892;0.040787192821454;0.01729681580178366;0.000299179836880833;0.00293238019669588;2.6018190517576394;0.15473040219695605;0
0.01839102167944637;0.03877997079752523;0.0003382296784138664;0.0193739165901907;0.012291266405876826;-1.1332955429804639;0.00015107522986023623;0.016824717038850134;0.010325988975819447;1.2520571834002847;0.008157438564290798;0.026511675333945106;0.011107212897616858;0.00012337017835298628;0.01677911292361889;-2.4962669595609306;0.09073147058228484;0
0.020914624934415833;-0.067124703984985;0.0004374215361472885;0.0193739165901907;0.010401234000509877;-0.06336246042965261;0.00010818566873336271;0.0101967982053639;0.010042681555823349;1.3764281538727114;0.007647598654022605;0.026511675333945106;0.010713026049461578;0.00011476892713644234;0.01587729544543487;-2.3483793693256274;0.08713584148909906;0
0.03187702434281723;-0.5813248995312202;0.0010161446809525624;0.0356887937187722;0.008346439045449716;0.8895076854530698;6.966304473940757e-05;0.008157438564291297;0.012291266405876635;-0.08868378257881086;0.013255837666972498;0.03161007443662692;0.012010164851750204;0.000144244059766216;0.01880967564213075;-2.4115230814444524;0.09866725555931466;0
0.031646235939668955;0.8329535632195272;0.001001484249149195;0.0285510349750177;0.011612716204758225;0.6569754412203052;0.00013485517765225426;0.008157438564291297;0.02205197592413223;0.875764920608546;0.01835423676965431;0.05812174977057201;0.022063608277537797;0.0004868028102246344;0.02198902214932795;0.8297545644682659;0.19122576528229643;0
0.01952893177505728;-1.2432363248895477;0.000381379176274842;0.027531355154481497;0.011230374142762;2.1041424686805534;0.00012612130338641731;0.0010196798205364122;0.02750679635335346;-1.8457129673913926;0.0397675130009177;0.0662791883348628;0.024780149092152263;0.0006140557890292946;0.03638936816512049;-1.7914636969709516;0.23635472988449377;0
0.017010631158268143;-0.7804726323999726;0.000289361572402643;0.018354236769654402;0.006135050048533134;1.5019382802722998;3.7638839098006404e-05;0.006118078923218029;0.019858902612680994;-1.6167285831664497;0.026511675333945092;0.0479249515652085;0.0170174057420355;0.0002895920981890627;0.028540776339255447;-2.4497904398137877;0.1756602033181586;0
0.03773779774707941;3.328311189860976;0.0014241413787994715;0.018354236769654402;0.0058753381425054605;1.3311075627813185;3.4519598288779514e-05;0.006118078923218029;0.017235303876986366;-2.4941080795663098;0.026511675333945092;0.0397675130009177;0.01718433722389895;0.0002953014458246791;0.028540776339255447;-2.3864308346599734;0.17718276436772093;0
0.03690198588985326;1.7558601760217545;0.0013617565626149288;0.028551034975017903;0.006101060590048517;1.0144814456478066;3.7222940323443165e-05;0.006118078923218029;0.015872324426242968;-1.058645062822059;0.019373916590190693;0.0397675130009177;0.01574003281166617;0.0002477486329123276;0.016219331657181896;0.08568922126288925;0.1665220443960805;0
0.03687097936527899;1.707807216053877;0.001359469119354829;0.028551034975017903;0.007541495701886643;2.370149293637644;5.687415742157471e-05;0.005098399102681617;0.021286655793878465;-1.1297912128424805;0.026511675333945203;0.0540430304884266;0.01853868360018445;0.0003436827896277479;0.020794247155981188;-1.1838022056858872;0.17929368145559632;0
0.0357978784165228;0.15344560150423922;0.001281488099124149;0.0316100744366268;0.008365104232484431;2.1777585449375287;6.997496882032894e-05;0.007137758743754441;0.018091775357370696;-1.4240783765444398;0.026511675333945106;0.0428265524625268;0.014598095753586737;0.00021310439963088712;0.02816168964602085;-3.1320979122650106;0.12933373239577578;0
0.02449991645677478;1.0454051363964372;0.0006002459063889438;0.0224329560517996;0.012248897212558537;0.9335915157120892;0.0001500354829238243;0.008157438564290853;0.013326243909619192;-0.7106590284737742;0.016314877128581595;0.0316100744366269;0.013113492469137221;0.00017196368473811863;0.008273385779530476;2.814097344537764;0.10979556610501247;0
0.012291266405876878;-0.780988523637312;0.00015107522986023748;0.013255837666972501;0.012287036061092696;0.9154372424469924;0.00015097125516659233;0.008157438564290853;0.012727630285820175;2.0764994454654335;0.010196798205363497;0.0316100744366269;0.013242974118432749;0.00017537636350147963;0.011005892653428453;1.6467473039382223;0.11138936384327401;0
0.012214896044367348;-0.6069728902862886;0.0001492036853747011;0.012745997756704298;0.012099436707813821;1.3603374386622054;0.00014639636864639255;0.006118078923218029;0.010660409942844923;0.9944092364553576;0.010196798205363497;0.026511675333945203;0.011220735781407658;0.00012590491147616213;0.011005892653428453;0.5265006630720942;0.09358325340569768;0
0.010872866534162532;-1.158075224575973;0.00011821922666971157;0.012745997756704298;0.007562147942383551;1.819834710743817;5.718608150249578e-05;0.006118078923218029;0.014906170544798269;-2.1402505798041687;0.023452635872336106;0.034669113898236;0.014962645272533609;0.00022388075355167237;0.023931383381547724;-2.293615496339181;0.1314043972770996;0
0.00971776803074427;-2.6349912479944493;9.443501549935535e-05;0.0163148771285816;0.01025779654529158;0.626103360464955;0.00010522238996459588;0.008157438564290631;0.013539105764004996;-0.15765873735873845;0.013255837666972609;0.034669113898236;0.013515724260977085;0.00018267480229876455;0.012925490728119271;0.31514571377710493;0.12335949210425987;0
0.013389487126485952;-1.3642112175278858;0.00017927836551033305;0.018354236769654298;0.007405852475952961;-1.6294108398285327;5.48466508955786e-05;0.0101967982053639;0.008048368414671499;-0.028933679270888746;0.00713775874375451;0.021413276231263406;0.007651424775844068;5.854430110040045e-05;0.008028250441969531;-0.4368443771524575;0.07243431014517347;0
0.014144727082503706;-2.47493928015327;0.00020007330423851382;0.0224329560517997;0.01032095313598064;-2.1507223821640964;0.00010652207363510862;0.01631487712858193;0.008048368414671514;-1.1543327089074846;0.009177118384827196;0.020393596410727105;0.007906694249156816;6.251581394964945e-05;0.009482588790564128;-1.138004470003403;0.07856359375688901;0
0.014510298226529831;-2.838431641518016;0.00021054875462283478;0.0224329560517997;0.01260037131157902;-2.9495167534477837;0.0001587693571896636;0.022432956051800068;0.012509273117554016;-0.8370547786151713;0.015295197308045308;0.0316100744366269;0.012469746102171633;0.00015549456785262462;0.015096670040577936;-0.7894578996759106;0.11928017364276988;0
0.015766340692183318;2.145827126227651;0.0002485774988219956;0.007137758743754499;0.016148329066853647;-2.6116027992720254;0.0002607685316513904;0.025491995513409083;0.015420445011631388;-0.5946865316632781;0.01733455694911791;0.0397675130009178;0.0165187548617601;0.00027286926218292296;0.01709063043250128;-0.38840285726573737;0.14720197254836334;0
0.008857138722638698;-3.008937758473307;7.844890635206586e-05;0.0168247170388498;0.01565465914389747;-2.43926706014224;0.00024506835291161267;0.023452635872336258;0.01494100623274821;1.3200186827088498;0.011216478025899798;0.0397675130009178;0.01601460376353547;0.0002564675337030444;0.011476549182487472;1.1089530832626693;0.13987773014155394;0
0.008857138722638698;-3.0089377584734165;7.844890635206586e-05;0.0168247170388498;0.01346981218886804;-1.909327509626337;0.00018143584040337805;0.018354236769654197;0.015474292211762124;-0.4460247342936879;0.01733455694911791;0.0397675130009178;0.016669563543655525;0.0002778743487359693;0.01790470834095427;-0.5144738228284282;0.1472519236239069;0
0.012062859683775204;-0.27883369768845156;0.00014551258375044922;0.011216478025899802;0.01810613733102042;-1.5795779049026326;0.0003278322090497713;0.023452635872336258;0.01772894522740857;0.4793736497407413;0.01733455694911791;0.045885591924135896;0.015801310910888457;0.0002496814265025626;0.01790470834095427;-0.7898345290459711;0.1389481550637368;0
0.010168718347259046;-1.1598217041410794;0.00010340283282588274;0.012745997756704402;0.016949397586044697;2.741040969881574;0.00028728207852981777;0.008157438564290853;0.017373500960933146;-0.16907094458593144;0.017334556949118007;0.045885591924135896;0.015580692010211518;0.000242757963517069;0.012790520732925942;0.5710215235375848;0.14162153898409016;0
0.011294996639990335;-0.35152428150008674;0.00012757694909739295;0.013255837666972602;0.009303705307889617;-1.5737088439790756;8.655893245605345e-05;0.012236157846436058;0.013006414823222802;-1.5571700510259763;0.019373916590190693;0.030590394616090602;0.009006973984297426;8.112558035381064e-05;0.00808038028290703;0.5921244960818098;0.0879094716250072;0
0.015457485111970882;-2.787450547303406;0.00023893384598680148;0.024472315692872403;0.01228068781160622;-1.7281296218862738;0.00015081529312613355;0.01733455694911812;0.01109062949418055;-1.4225406559060876;0.013255837666972595;0.02753135515448149;0.011262288997840179;0.00012683915347087193;0.010433692368518335;1.7683637840862403;0.11921695704159428;0
0.015927907975745274;-3.08389881752238;0.0002536982524838099;0.026511675333945103;0.016475009491638635;-1.9774426579618745;0.0002714259377495831;0.02447231569287256;0.008694228101271264;-1.9549163811854555;0.012236157846436294;0.020393596410726994;0.010164926762621774;0.00010332573608946437;0.004026058313341602;2.8101675677086106;0.10922540942783554;0
0.017944626666662206;-2.8285343686210633;0.0003220096262058844;0.028551034975017802;0.017982249503975103;-1.1478912283785145;0.0003233612972232129;0.02447231569287245;0.009630442706733898;-1.0672595467136716;0.012236157846436196;0.022432956051799693;0.012890814642717017;0.00016617310215288748;0.007462533300767141;1.827788683332339;0.1333832838083071;0
0.017433244950736133;-2.554238219910529;0.0003039180295123668;0.028551034975017802;0.016978511068977985;2.9120516537779295;0.000288269838119408;0.009177118384827154;0.010212081948448354;-1.2990241637994562;0.014275517487508896;0.02345263587233609;0.012986315258684624;0.00016864438399794512;0.00816934384607601;1.7205983592663177;0.13417518618074029;0
0.01601579124527148;-0.3152812914831114;0.0002565055692121146;0.0193739165901906;0.007231823483836831;-1.908351086325034;5.229927090137388e-05;0.009177118384827154;0.009922904558542025;4.506165749906191;0.0030590394616090005;0.02345263587233609;0.013056950174098251;0.00017048394784888434;0.007114444600485603;2.4785651353305767;0.13370332019044356;0
0.016545856531364724;-0.388828923380333;0.00027376536835650473;0.0193739165901906;0.007115874914802771;-1.7457171890087402;5.063567580311934e-05;0.009177118384827154;0.0033354598213101655;2.26832037437306;0.0010196798205363983;0.009177118384827099;0.005204397026634806;2.7085748410845208e-05;0.004240769201281899;0.38535100807758127;0.05037549158289557;0
0.02180541845550915;-0.8614262906824047;0.00047547627401985906;0.0254919955134087;0.007426881914807741;-2.3895752144624964;5.515857497649829e-05;0.01070663811563155;0.006135050048533036;1.501938280340596;0.006118078923218098;0.01427551748750891;0.00550720066641337;3.032925918014387e-05;0.00676524057219019;-1.6403840854058156;0.05162031208498613;0
0.01583953710673089;-0.5861381805866396;0.00025089093575550474;0.017334556949117903;0.006265017705437145;1.9339941230646527;3.9250446849440905e-05;0.005098399102681839;0.005901823647797425;-1.207841390598612;0.008157438564290811;0.01427551748750891;0.0053028066512845725;2.8119758380907897e-05;0.005556855625292276;-0.7468413909755481;0.049817328995868236;0
0.013999724908479717;-0.2261466695748536;0.00019599229751310742;0.017334556949117903;0.009145908431321043;0.8382791638549136;8.364764103410935e-05;0.006118078923218251;0.009796358620964892;0.5375682715006155;0.00917711838482721;0.025491995513408805;0.00915195975501863;8.375836735748066e-05;0.009376828696748232;0.16893682130947005;0.08829487382189595;0
0.019701206342797883;-0.244647240541615;0.0003881375313614995;0.017334556949117903;0.010001182694189294;-0.5381187300366884;0.00010002365528255142;0.01223615784643628;0.014036810337448892;-2.2255344922479203;0.020393596410727105;0.032629754257163204;0.01081668089784038;0.000117000585645705;0.01869261658887081;-2.7611194050771135;0.10626564935127802;0
0.021296422555481677;1.0456285274790353;0.00045353761366162873;0.020393596410727098;0.009635839424841433;2.1083182121990838;9.284940142132849e-05;0.006118078923218029;0.017611260918253865;-2.4432146449694963;0.027531355154481504;0.040787192821454;0.013220828610285406;0.00017479030914254113;0.0195208587545026;-2.63511900623285;0.13539002393930705;0
0.010288160094324187;-3.0669751930883002;0.00010584623812644466;0.020393596410727098;0.006489202641663064;-0.9629629629631301;4.210975092456689e-05;0.009177118384827487;0.014787115361923033;1.5061629911195975;0.015295197308045197;0.0356887937187723;0.01108483910712056;0.00012287365803074932;0.007139025818114139;2.5969492271943486;0.12158941079009858;0
0.011146737590025366;-2.8668615745546426;0.00012424975890088449;0.020393596410727098;0.008610107813840948;-0.46822288534510176;7.413395656596496e-05;0.009177118384827265;0.009954289680322734;0.05105652992902776;0.008157438564290798;0.0265116753339451;0.009716897562500965;9.441809824013718e-05;0.008696326945179272;1.8389151874715235;0.11763135119664288;0
0.010709065649528941;2.5454110564665804;0.00011468408708592072;0.0071377587437544965;0.010621324898541678;-1.6747435706853058;0.0001128125426003814;0.015295197308045294;0.007049815852939028;0.9471998039358892;0.004078719282145399;0.0193739165901907;0.008791318778900343;7.728728587224582e-05;0.002385543292696926;2.556534387283764;0.10850871286007474;0
0.014427658738308643;-2.496000502994036;0.00020815733666909375;0.0234526358723361;0.010853724148657207;-2.2971529708519767;0.00011780332789514461;0.015295197308045294;0.007049815852939028;0.9471998039530357;0.004078719282145399;0.0193739165901907;0.0069789875873334465;4.870626774415432e-05;0.0007704029738838519;4.681993565673629;0.08813078802192924;0
0.015082991403773382;-1.780795363776112;0.00022749662968630174;0.022432956051799704;0.01583953710673081;-0.967000992173722;0.0002508909357555022;0.01835423676965431;0.0070128475024162544;1.1298043615732756;0.004078719282145399;0.0193739165901907;0.006777658366229179;4.5936652929316376e-05;0.008114195503885369;-0.27564665221679857;0.0878350745498733;0
0.014094099907441798;4.028358892964486;0.00019864365220095088;0.006118078923218102;0.015986550502511264;-1.0396930432900018;0.0002555697969693432;0.01937391659019072;0.007188561938213206;0.3771927338914078;0.006118078923218098;0.0193739165901907;0.006361345532860423;4.046671698844327e-05;0.008114195503885369;-0.22319558178225188;0.08340243761789437;0
0.016361016129156265;3.403376618938566;0.0002676828487785114;0.005608239012949899;0.01431188829164697;-0.7098095802519934;0.00020483014647258165;0.017334556949117896;0.004836766075509673;-1.1999999999283695;0.006118078923218098;0.012236157846436196;0.0035642333015143217;1.2703759027623682e-05;0.004824944368052891;-1.4596274849150592;0.045443816862748516;0
0.011181662179800945;1.1747744866248435;0.00012502956910319081;0.0101967982053635;0.015624742579282518;-2.811715505457553;0.0002441325806688441;0.02447231569287245;0.003487841618534816;-0.17751479303173076;0.0030590394616090005;0.009177118384827196;0.002897911096017988;8.397888720424175e-06;0.0011211170585009589;1.6471835301070594;0.03733881479293768;0
0.016344325670913946;-1.4574322785549967;0.00026713698163689656;0.0224329560517997;0.015457485111970825;-2.787450547303038;0.0002389338459867997;0.02447231569287245;0.002658999655430447;-1.8122837384789037;0.004078719282145399;0.006118078923218098;0.0017275467471877012;2.984417763718807e-06;0.0010885143718753626;2.8321593619706817;0.02256467643471683;0
0.017392193003609526;-1.363449600921984;0.0003024883774748042;0.0260018354236769;0.011679674569818577;4.461176847858475;0.00013641479805686675;0.0030590394616090144;0.003975443803327503;1.455159279302702;0.0030590394616090005;0.010196798205363497;0.004467542958899732;1.995894008961457e-05;0.0011211170585009589;4.647724230867844;0.05636214110747194;0
0.014556799979396786;-2.687408028132797;0.0002119004256401663;0.0260018354236769;0.012837440921804994;-2.6556339499846033;0.00016479988942083343;0.01937391659019072;0.010887201235883747;2.8483379501176245;0.006118078923218098;0.02753135515448149;0.0102122466289394;0.00010428998121028413;0.00958037877544965;1.4089753329369472;0.12158663162691023;0
0.017813780199386182;-2.609524548498778;0.00031733076499204324;0.0311002345263586;0.012008867560262886;-2.1464271437995492;0.00014421290007993429;0.01835423676965453;0.011322579090438387;2.5281837861118994;0.009177118384827099;0.02753135515448149;0.010619898636541362;0.00011278224705041309;0.010668893147325012;1.1091499272738485;0.12714303985684142;0
0.02367765926167025;-2.430056588326791;0.0005606315481117591;0.038237993270113096;0.008889362584971272;0.49809556786711323;7.902076716708715e-05;0.008157438564290853;0.015546355694125881;0.8986639693047588;0.010196798205363497;0.04231671255225859;0.013322886410261083;0.00017749930230071944;0.011902141495864563;0.1240079187304796;0.16439114268916766;0
0.02799573611579342;-1.9694110554458841;0.0007837612406651401;0.0387478331803813;0.020609139320289308;2.1671937664890906;0.00042473662352309475;0.013255837666972248;0.0248350132409436;-0.15726243657565675;0.0249821556031406;0.06525950851432649;0.014323212789859204;0.00020515442462358627;0.018059604789577813;-0.6310150955947004;0.1800174768109617;0
0.028948851976299376;2.3928738555129456;0.0008380360307456922;0.0214132762312634;0.02332594203505732;2.978013049745364;0.000544099571822854;0.014275517487509326;0.02392013250602714;0.9128394820341157;0.0158050372183135;0.06525950851432649;0.013951882783241311;0.00019465503319730532;0.00615746329371325;3.792032435407679;0.18255804429182568;0
0.028948851976299376;3.0551139407299033;0.0008380360307456922;0.016314877128581602;0.022066116339772034;1.3399961122618305;0.00048691349032035426;0.015295197308045072;0.016566267046778105;0.9089869932875002;0.0158050372183135;0.04180687264199041;0.0055492635434714905;3.079432587490176e-05;0.00615746329371325;-0.5528772880372171;0.07674396867229458;0
0.029216985381654754;3.372193976330834;0.0008536322347918276;0.016314877128581602;0.024093374910899686;-1.3841059876729058;0.0005804907145971704;0.03262975425716319;0.01500523905438954;2.1944486812543325;0.0035688793718771997;0.04180687264199041;0.005686728948227054;3.233888613060357e-05;0.007081286014548757;-1.1984569129258347;0.07844461420553221;0
0.03062096973078544;2.8618647970563083;0.0009376437872536782;0.022432956051799704;0.03530802425447296;-1.672441101529562;0.0012466565767544507;0.05200367084735413;0.015681203731242623;0.03333497222031075;0.013255837666972504;0.04180687264199041;0.004369810417203079;1.909524308229655e-05;0.004728246929098123;-0.7530229857216225;0.05930919328062057;0
0.010463524855605569;-2.225117220370701;0.00010948535240387554;0.015295197308045305;0.036233802679317396;-1.9717599340380747;0.0013128884566037087;0.055062710308962926;0.013109926338023926;-0.2815208118527117;0.013255837666972504;0.0336494340776996;0.0050482977070574;2.5485309739081e-05;0.004728246929098123;-0.4575847589471837;0.06895408672126332;0
0.010463524855605569;-2.225117220370701;0.00010948535240387554;0.015295197308045305;0.03636270313152462;-2.185965022996932;0.0013222461790313904;0.055062710308962926;0.017319555166170075;-0.4134875604114197;0.0183542367696543;0.044865912103599505;0.012264203565972895;0.00015041068910762227;0.009411363248824342;2.075201104923103;0.17870390050760948;0
0.008848330029536888;-3.070903636453945;7.829294431160427e-05;0.015295197308045305;0.03669005803441581;-2.3065036273956223;0.0013461603585687998;0.05710206995003575;0.021502917537420386;1.22731616188252;0.0163148771285817;0.057102069950035604;0.019379911407749174;0.0003755809661722066;0.023017960454840357;-0.3389273568968001;0.33130039968194147;0
0.011882661064103075;-1.5636244932672032;0.0001411976339643512;0.016314877128581602;0.029104670228203147;-2.6149674940833982;0.0008470818290924546;0.0438462322830635;0.01904100198849403;-2.3976005268123033;0.0305903946160905;0.0438462322830631;0.02332014861666726;0.000543829331503448;0.03745269597676859;-2.261643350076399;0.49859856901690386;0
0.028629224753235163;3.0858055692693136;0.000819632509971253;0.013255837666972501;0.026759553716475065;-1.0352357980955702;0.0007160737151049144;0.03161007443662733;0.020028339124016477;-1.7369856983569865;0.0275313551544814;0.0489446313857448;0.018864230351901864;0.0003558591867696155;0.019216698009815115;-0.4858904581669539;0.45456074609117314;0
0.03056149003200347;-1.802536856108843;0.0009340046729762474;0.0418068726419903;0.01761126091825394;2.225548080086051;0.00031015651113081857;0.013255837666972248;0.016267009415258278;-2.12998251512075;0.0254919955134087;0.0377281533598449;0.01267983918381972;0.00016077832172752994;0.015877256828804472;-0.6507738158440333;0.35062262452445025;0
0.024550790191688866;-2.217300002508523;0.0006027412990363263;0.033649434077699505;0.02180541845550908;1.9870943116857813;0.0004754762740198559;0.013255837666972248;0.038857695519075953;2.8308118522014873;0.0254919955134087;0.0978892627714897;0.032024613593683256;0.0010255758758247223;0.015877256828804472;3.0869224762990632;0.6875713993765572;1
0.017549160736752143;2.0077885035796093;0.00030797304256436296;0.008157438564290801;0.021695470451510702;2.036758171243587;0.000470693438112374;0.012236157846435836;0.043486684490091576;-2.6665304205630846;0.0713775874375446;0.0978892627714897;0.034601226332443474;0.0011972448637089799;0.047134714331542836;-2.05881755716871;0.5949544927864142;1
0.010991751180350449;0.9681361294692318;0.0001208185940107355;0.008157438564290801;0.021924301783680614;1.1634952231479094;0.0004806750087019009;0.016314877128581484;0.04200783855988583;-1.0555697398812687;0.0540430304884267;0.0978892627714897;0.026486399157514346;0.0007015293403311766;0.04202949629816212;-2.526597325456566;0.3770801163437464;1
0.01440241347183198;1.7648255978291825;0.00020742951381360735;0.0132558376669725;0.018106137331020355;0.08075012304596878;0.00032783220904976894;0.016314877128581484;0.025771890558864665;-1.057055456594848;0.0326297542571633;0.0622004690527175;0.024592149432208103;0.0006047738136960533;0.03298876279450716;-1.6386867862717527;0.34132571675535;1
0.01619654753507687;-2.557404105770285;0.0002623281520560046;0.0275313551544814;0.018635328726926696;-0.7535497866542448;0.00034727547676061934;0.020393596410727133;0.018668775350416264;-2.7852124760062438;0.0316100744366269;0.0407871928214541;0.020679578261128692;0.0004276449570581464;0.03298876279450716;-2.151305760642117;0.2767918538787329;0
0.012248897212558695;-2.150765830599454;0.00015003548292382815;0.020393596410727;0.01203481400943858;1.8069890009992235;0.0001448367482417791;0.004078719282145649;0.019392691069038084;-2.2245296819330087;0.026511675333945203;0.0458855919241358;0.020094119605268513;0.00040377364271083644;0.024567846429944445;-1.676973133656298;0.3233906951288884;0
0.011160720540440342;-0.6819797046273829;0.000124561682981807;0.0112164780258999;0.006893216592701308;4.119579217520669;4.751643499389263e-05;0.0020393596410728243;0.020659528489196253;0.71307531737675;0.014275517487508896;0.05608239012949941;0.018562384786038184;0.0003445621289449418;0.016517690706223234;0.26674778545177347;0.3668028096050901;0
0.013224425685223714;1.185957207955358;0.0001748854347040047;0.008157438564290801;0.01905737665282609;3.403770446295257;0.00036318360488768095;0.0020393596410728243;0.015186041962786891;0.22474125545448112;0.014275517487508896;0.0387478331803814;0.01916004677188486;0.0003671073923008155;0.016517690706223234;0.4737021087771976;0.3762214157587064;0
0.013046324137095631;1.27606894474843;0.00017020657349016405;0.008157438564290801;0.017504668581831195;4.413357852774889;0.0003064134221597482;0.0020393596410728243;0.014741340159886708;0.16109979167149766;0.014275517487508896;0.0387478331803814;0.019157518397638403;0.00036701051115585394;0.01568542551427171;1.4131086814083968;0.3888063343293915;0
0.026126497349482962;1.2814719986264318;0.0006825938637525402;0.0193739165901907;0.01830602189457441;4.14107549397949;0.0003351104376046377;0.008157438564290853;0.02502477931569358;0.5179759618126253;0.021413276231263403;0.0662791883348628;0.020068333370774558;0.0004027380042805438;0.012092162663128507;3.2270198298404273;0.4423676067874574;0
0.02637011094156358;0.7057742675591404;0.0006953827510703713;0.0224329560517997;0.021589778868533503;2.929109990904768;0.0004661185515921757;0.008157438564290853;0.030483140210102372;-2.172231092264468;0.0489446313857448;0.0703579076170082;0.02249715766185338;0.0005061221028622883;0.016385792083177784;2.3015678695918758;0.5313322289171408;0
0.03373430037661522;-0.6011030274926211;0.0011380030218997017;0.0387478331803813;0.025081843709629757;2.7710767172486235;0.0006290988838742938;0.013255837666972359;0.034045702881697115;-2.4712195017386143;0.0530233506678902;0.0723972672580809;0.022570791481534867;0.000509440628102927;0.028070619236484996;-1.0201944459017298;0.4623846390374212;0
0.03356745082645515;-0.5220958185241749;0.0011267737549864845;0.037728153359845;0.028952443422498395;3.2766910642779172;0.0008382439801329707;0.013255837666972359;0.02296431244663475;4.522977172874637;0.0071377587437545;0.0550627103089629;0.01653101582451505;0.000273274484190367;0.024558521385940432;-1.7391181269096805;0.37078837416015553;1
0.033561255283614186;-0.5412452074766776;0.001126357856211921;0.037728153359845;0.028895826295215747;2.4200029469399014;0.0008349687772832819;0.0203935964107268;0.0039492029634007235;-2.1999999999999518;0.006118078923218101;0.0091771183848272;0.021102832617904323;0.00044532954449928665;0.03583290091380871;-2.7005430802170576;0.5501809495702913;0
0.021352494739851114;-0.269476251708151;0.00045592903161536955;0.021413276231263403;0.028986988339349023;0.8124956261002794;0.0008402454929855561;0.028041195064749114;0.013462090885746271;3.4213964290898367;0.0071377587437545;0.0336494340776995;0.021325387868771348;0.0004547721677535401;0.03583290091380871;-2.808688971841462;0.5656348136974417;0
0.02135249473985112;-2.2409530780924194;0.00045592903161536976;0.0336494340776997;0.026635414927973278;1.324462309431232;0.0007094453283853017;0.014275517487509104;0.018419267774541604;1.367421706183104;0.0091771183848272;0.0509839910268174;0.02392926893449866;0.0005726099117395626;0.031343011069984356;-1.6785121846083915;0.5025142292437387;0
0.02097915341909564;-1.9617068348435787;0.0004401248781819523;0.031610074436627;0.02206965002805474;1.7573004861653523;0.00048706945236081647;0.014275517487509104;0.018254832048504154;1.6061146658034684;0.0071377587437545;0.0509839910268174;0.023031180130963717;0.0005304352582248978;0.027830913219439795;-1.3090442799301982;0.49919321093447616;0
0.021003919279943002;-2.065851734336827;0.0004411646251183614;0.031610074436627;0.011008292575984393;0.734565232634619;0.00012118250543847312;0.01121647802590009;0.0193819650222722;-0.1759514819053424;0.019373916590190603;0.0509839910268174;0.021978509378308232;0.00048305487449238287;0.023931602755047705;-0.5218041057205554;0.5097125011043884;0
0.016260616406791717;0.49055884867530014;0.0002644076459288239;0.012236157846436196;0.01227645382154352;-2.5710350097528925;0.0001507113184324905;0.019373916590190943;0.02021950779311977;-1.258085055299188;0.024472315692872303;0.0509839910268174;0.015579889318066989;0.00024273295116321788;0.011228377127752882;0.7374636069528874;0.3191657418761868;0
0.012662107944346303;-0.16031027469594386;0.00016032897759427775;0.012236157846436196;0.014213473528461543;-2.7054189008460643;0.000202022829744277;0.022432956051799957;0.015521255270305023;-1.0380630378491975;0.0193739165901906;0.0387478331803812;0.013902886624469039;0.00019329025649284008;0.011228377127752882;1.1738555524358614;0.27763211454813336;0
0.02144481452411568;3.0335932824781935;0.00045988006997372286;0.009177118384827203;0.014395192406714172;-2.7516352391423617;0.00020722156442632138;0.023452635872336147;0.01100593104156345;-2.501832783805201;0.0173345569491179;0.024472315692872303;0.01234087961538947;0.00015229730968153532;0.00643282768146658;1.495243867525711;0.30999263905410934;0
0.026002835090558937;-2.7482703602725693;0.0006761474327468032;0.0438462322830631;0.010413721979554829;1.5152562533955596;0.00010844560546746335;0.009177118384827043;0.011132737076745962;-2.5561770866177262;0.0173345569491179;0.024472315692872303;0.011885688092877019;0.00014126958144115853;0.022450307550732986;-3.0804156187630194;0.3629088388733577;0
0.026002835090558916;-2.8999693513744753;0.0006761474327468021;0.0458855919241356;0.011225744015109916;1.1540611827272673;0.00012601732869277612;0.011726317936167963;0.01821206393340638;2.662090584801638;0.0040787192821454005;0.0499643112062811;0.014019657566953083;0.00019655079829462486;0.022450307550732986;-2.3288728493312596;0.4081210448589457;0
0.01948895984577484;4.047775364199398;0.0003798195558702241;0.0101967982053634;0.009619640187678689;-0.016435740436808288;9.253747734040288e-05;0.011726317936167963;0.018500937583426788;3.050845674701679;0.004078719282145399;0.0499643112062811;0.015168950470077932;0.00023009705836367751;0.017674909463758465;-0.5293078880418113;0.5288698306212765;0
0.004204247604382487;3.0899653979151203;1.7675697918955883e-05;0.0030590394616090005;0.008685254183757358;0.48907785262762477;7.543364023647468e-05;0.009177118384827043;0.017743600884393675;-3.019329498873592;0.029570714795554204;0.0367084735393086;0.016432892250126997;0.00027003994770428394;0.02485652528025597;-2.5817730670559897;0.5456143474300384;1
0.032745854936444226;4.967183700170146;0.0010722910155186488;0.0030590394616090005;0.012614803550487962;0.09054752003825801;0.00015913326861740368;0.011726317936167963;0.022089663584055824;-2.4904199911652136;0.034669113898235904;0.0499643112062812;0.02991128542107074;0.000894684995540759;0.03211047261465371;0.4439861173258741;0.6822425823384008;1
0.03629974232017608;-2.82021998216505;0.0013176712925111827;0.058121749770571995;0.015583096515081132;-1.657388191834497;0.0002428328969983337;0.021923116141531418;0.03181172257528531;-0.6916028557365147;0.0367084735393086;0.07851534618129889;0.026567756760933602;0.0007058456993081331;0.007253947334397742;1.8705792592079764;0.5305527304613472;1
0.03306813954581349;-2.698708491083263;0.0010935018530213937;0.0571020699500356;0.025318056526838238;-0.762632631032678;0.0006410039862961763;0.0336494340776996;0.03006413164919914;-0.38812107450048927;0.0316100744366269;0.07851534618129889;0.027360331441390738;0.0007485877365827546;0.020345858627015434;0.6619045313994031;0.5192304707348381;1
0.02727905574590066;2.3930501915275406;0.0007441468823879558;0.015295197308045298;0.02260724677159664;0.5204661557247631;0.0005110876065918668;0.01835423676965431;0.029293397662585666;1.2916836735794905;0.021413276231263403;0.07851534618129889;0.017967618871796227;0.0003228353279221279;0.01403726181752387;1.8124023410053713;0.29855183785416034;1
0.02358085370786136;1.7367028909093243;0.0005560566615915589;0.015295197308045298;0.022497751190817376;0.6481021418192903;0.0005061488086439246;0.01733455694911812;0.028401332244564363;1.7571433385032418;0.0122361578464362;0.07851534618129889;0.020562405700605163;0.00042281252819627974;0.01403726181752387;1.0989885208031538;0.35337503326646685;1
0.018865454575302917;3.471589697266159;0.0003559053763328178;0.0071377587437545;0.02212258761916739;1.9857612430017824;0.0004894088829677383;0.008667278474558948;0.020626789531543094;3.5752186513703754;0.0101967982053635;0.0509839910268174;0.011328393178287422;0.000128332492001869;0.009748737707635638;0.18343573216551098;0.23202905178031238;1
0.018226331122381485;-2.23431564871766;0.0003321991461826919;0.027531355154481497;0.01983270697720162;2.6826278733924505;0.0003933362660435418;0.008667278474558948;0.005768180125922439;-2.9218749999998948;0.0101967982053635;0.0122361578464362;0.014400435615380819;0.00020737254591272832;0.018273626781011354;-0.977236372678225;0.32413554222168967;1
0.02314695652416495;-1.930254228374243;0.0005357815963315824;0.030590394616090602;0.011948106727384158;0.7382923131520656;0.00014275725436896258;0.008667278474558948;0.0050779645551088095;-1.7946800208141542;0.007137758743754399;0.0122361578464362;0.015059334925736023;0.0002267835684054928;0.018273626781011354;-0.6441494875773538;0.33613953175494726;0
0.03037379555926037;-1.2846572371296279;0.000922567456675745;0.0377281533598449;0.017543234968986687;0.09812134769903598;0.0003077650931770774;0.015295197308045294;0.009753811802645378;1.2475141091104074;0.008157438564290801;0.0254919955134087;0.015911632974969107;0.00025318006393012425;0.014226330832121485;2.252022107005846;0.39866579252808987;0
0.03454442876813367;-0.8952100001815259;0.0011933175589166612;0.0458855919241358;0.01786041321163358;0.03557137733326362;0.0003189943600902954;0.015295197308045294;0.03089983190414507;3.6614106937300144;0.016314877128581602;0.07545630671968989;0.022265029264210902;0.0004957315281361678;0.03788528803616559;-2.42945487656977;0.4593880350524559;0
0.04223124341080234;-1.380192252532486;0.001783477920022436;0.0530233506678903;0.017328557794430932;3.195225635162432;0.000300278915234933;0.0;0.033483714273208544;2.9539214357674766;0.021413276231263302;0.0836137452839808;0.027620397337049334;0.000762886349056482;0.04847396816543878;-2.8704600181810065;0.48146044434081625;0
0.03974528299668103;3.901811306515183;0.001579687520486262;0.007137758743754503;0.018274756249389082;-0.7394902986775804;0.00033396671597458533;0.01835423676965431;0.03200722819057954;2.91362259972432;0.016314877128581602;0.0836137452839808;0.0224411175504619;0.000503603756913649;0.01561000298861813;1.823374511030508;0.35096743448973555;0
0.05122508509915339;2.099386118522579;0.0026240093434155066;0.022432956051799804;0.03697376464455048;3.270526025166314;0.0013670592719906114;0.014275517487508771;0.030802095374718435;2.96868305498217;0.0061180789232181;0.0836137452839808;0.040891740479983334;0.0016721344394823074;0.025868523312695027;1.2592274926896938;0.5199673584385266;1
0.025219302151356527;2.2233754201110982;0.000636013201001416;0.0214132762312634;0.042622128610545505;-2.6628030673253007;0.0018166458472938817;0.062200469052717366;0.03716309803598364;1.7318685082788374;0.026511675333945203;0.0968695829509533;0.029645191965938966;0.0008788374066973721;0.021086139173740887;1.689881880150331;0.31997473063151255;1
0.0468365037810873;1.6616793402879455;0.002193658086435805;0.022432956051799804;0.0425501038820009;-2.5417416980494636;0.0018105113403690683;0.062200469052717366;0.018447470620295826;-1.6798302249637185;0.026511675333945203;0.040787192821454;0.032338006938867;0.0010457466927782104;0.03636800356905787;0.7218378964462827;0.3609468059428742;1
0.05376043674614466;-1.1148993131454574;0.0028901845591362213;0.06729886815539911;0.03944592869151561;-0.7112064245238917;0.001555981290336134;0.04486591210359936;0.017403398592687344;4.829372078643168;0.0030590394616090994;0.040787192821454;0.044319898146398015;0.001964253371707094;0.036696142162359016;0.08386638966343914;0.5783684239879191;1
0.05578030752159822;-2.0596528916275667;0.0031114427072040664;0.0856531049250534;0.042114134493380646;-0.17260285994519364;0.0017736003241265537;0.04486591210359936;0.022784767836188997;2.491690650106636;0.0030590394616090005;0.0632201488732537;0.04348955764124887;0.0018913416238315083;0.03636800356905787;0.39913418129935135;0.5385016794899538;1
0.04020048088344937;-2.4902456941743103;0.0016160786632605786;0.06729886815539911;0.03964247100062574;-2.594829732236741;0.001571525507035453;0.0688283878862036;0.02545526057164046;-1.4112929897926374;0.031100234526358704;0.0632201488732537;0.03024697780803276;0.0009148796665196263;0.039874707728962254;-1.384604778727071;0.49415046302867466;1
0.03591676522186681;3.3462753163215333;0.0012900140240027014;0.021413276231263198;0.036111640888281775;-2.1621842635534385;0.001304050607644224;0.05557255021923091;0.019011628777387574;1.957331049380772;0.0035688793718772014;0.053533190578158404;0.022225566245554565;0.0004939757949355344;0.019547242773315404;0.21132442927632886;0.4327633818558022;1
0.034299003938890335;-0.7085235071629489;0.0011764216712000146;0.0382379932701132;0.03377973172424712;-0.8536474370075974;0.0011410702753621074;0.04282655246252698;0.019398721864077553;1.2350243897267201;0.010196798205363499;0.053533190578158404;0.02240334792459774;0.0005019099982305779;0.0210081058171356;-0.03180120582186655;0.43375739114893214;1
0.05689045845881436;0.7027001145703397;0.0032365242636540822;0.0642398286937902;0.03232883574269837;1.3978203834489402;0.0010451536204783714;0.027531355154481574;0.02013254453579211;-0.04022523512620187;0.0193739165901906;0.053533190578158404;0.04217404188850974;0.001778649809213774;0.03322315869214084;2.462446321113479;0.5509418201921482;1
0.07323296174090384;-3.0679003571223125;0.005363066685344684;0.13459773631079852;0.03156810813465463;1.7019345495025533;0.0009965454512012477;0.022432956051799735;0.015407797352496321;0.3576185826904883;0.018354236769654298;0.0372183134495768;0.05676994203767558;0.003222826318961045;0.09811865775538153;-3.046781285632282;0.6154289661949179;1
0.07065321669284882;-2.3672849238513805;0.004991877029046652;0.1085959008871214;0.03216439338347606;1.8008686649326944;0.0010345482017269988;0.022432956051799735;0.016702218506490164;1.7726256510220313;0.009686958295095301;0.044865912103599304;0.05475093297649665;0.002997664661796828;0.09464894178969788;-3.0594760509412073;0.4745438586707525;1
0.057939890693579056;-3.285131336310155;0.003357030933583889;0.1050270215152442;0.015124295884767344;-0.4255165289256399;0.00022874432600999042;0.016314877128581706;0.025910704290684868;-0.6722023241923244;0.026511675333945002;0.0662791883348627;0.04948026215472393;0.0024482963429002056;0.09045019900124343;-3.2503639092811842;0.41549683539747656;1
0.06293580820367897;-2.959304062982026;0.003960915954250266;0.1050270215152442;0.014066408283518572;-0.9324630275122642;0.00019786384199863992;0.016314877128581706;0.020659528489196194;-1.9018397990626579;0.030590394616090498;0.0479249515652084;0.052356847823775574;0.0027412395140419933;0.09045019900124343;-3.0473594658236167;0.4469944755450176;0
0.06005472669425831;-2.893148967316584;0.003606570198322062;0.1050270215152442;0.012180799966569037;-0.5830246487674712;0.00014837188782556828;0.015295197308045072;0.018077401973551385;-0.1350039869618982;0.017334556949118;0.0479249515652084;0.051955676984537784;0.002699392370921629;0.09045019900124343;-3.1522413282083526;0.5051432902604852;0
0.05294289179079199;2.3745130685849873;0.00280294979117151;0.044865912103599505;0.01233349004931861;1.4249739180486631;0.00015211497679664117;0.012236157846436058;0.026407541919867168;1.7280506610272386;0.017334556949118;0.07035790761700811;0.04681851604359021;0.002191973444523914;0.02215509973358537;3.2789713958864817;0.5989203843992065;0
0.020917110480200868;0.601804999349099;0.00043752551084092893;0.022432956051799798;0.0198850637393084;1.8870725596943174;0.0003954157599163578;0.0040787192821454266;0.026170237045403954;1.5842414623077257;0.017334556949118;0.07035790761700811;0.01677752568356016;0.0002814853680625209;0.02748965285179688;-2.3354828094606837;0.307373305501526;0
0.02718551309796359;2.4659399207468318;0.0007390521223995499;0.004078719282145399;0.020196354204491125;1.3945983766396803;0.0004078927231532663;0.010196798205363455;0.03267274368049248;-1.5439753326609942;0.043846232283063;0.0774956663607626;0.015236893783819679;0.0002321629321794028;0.013510329628769004;1.641411618148961;0.2992217283351495;1
0.03041997326435464;1.6218659260194646;0.0009253747734040511;0.0265116753339451;0.011987202618281284;2.9448396899562206;0.0001436930266117297;0.007137758743754663;0.02741213437408353;-1.1324863756669064;0.0367084735393085;0.0672988681553991;0.023484254004202565;0.0005515101861339041;0.011954704374491372;1.3213723595714093;0.5550642645600978;1
0.016384830148061212;-2.915431927285422;0.00026846265898081557;0.026511675333945002;0.02261299501008154;1.837322822222659;0.0005113475433259726;0.010196798205363455;0.02975823357895388;-1.5644822490609134;0.043846232283063;0.0703579076170081;0.015406137023147897;0.00023734905797600833;0.009130996398855652;3.196558174482566;0.4226953682987333;1
0.04767698346558282;3.322521270787495;0.0022730947523774575;0.0285510349750177;0.047118697279469005;1.8646326010280585;0.0022201716333142395;0.022432956051799624;0.02892729393534754;-0.6730859253030511;0.0367084735393086;0.0703579076170081;0.04889023930099448;0.0023902554989085056;0.009180656720151385;3.458124751641504;0.8569360306090684;1
0.04892657122356469;4.8955815783128385;0.002393809371694548;0.0020393596410726;0.047841351685725134;3.168129059430138;0.002288794931117235;0.010196798205363455;0.046435193514457046;0.5638092398035018;0.039767513000917604;0.1223615784643621;0.048257059014437526;0.002328743744722906;0.027740930508121417;1.706397996034223;0.7555281349339759;1
0.09583634259908558;2.2813691757159105;0.009184604562769306;0.009177118384827099;0.04894144478257177;3.4839077307609614;0.0023952650174055216;0.014275517487509104;0.048973301483714;-2.6422704937354595;0.0836137452839808;0.1091057407973896;0.070987182525985;0.005039180082977511;0.09389401919210844;-1.5071315814969033;0.7786092034049626;1
0.09961233326366994;0.303334401871948;0.009922616938232447;0.078515346181299;0.04900513747581958;2.2710097477782383;0.002401503499023977;0.029570714795554287;0.049191493625471185;-1.2553367709567607;0.069338227796472;0.113184460079535;0.05499823644702512;0.003024806012282882;0.06615308868398702;-1.121203307389539;0.4827529483977483;1
0.0990050821605083;0.5611118207119657;0.009802006293608998;0.078515346181299;0.04206349202916076;3.606684650312301;0.0017693373616872706;0.023452635872336036;0.04636236449576767;4.092329324864679;0.018354236769654392;0.113184460079535;0.046392909121108356;0.002152302016719419;0.06222127009959544;-0.9544876545821216;0.38576914926924133;1
0.06675983255609153;0.9191808477944493;0.004456875242917379;0.0713775874375446;0.015554713501134756;-2.193792383981387;0.00024194911210238386;0.023452635872336036;0.010196798205363497;-2.7794999999938046;0.017334556949117993;0.02243295605179979;0.04648291913125655;0.002160661770962936;0.046189660306572594;1.4178036328190942;0.421816732440506;1
0.07718444157693254;0.3217167454966372;0.005957438021542912;0.0713775874375446;0.01625262160990397;-2.4607535837170587;0.00026414770919471755;0.027021515244213368;0.01365000553129928;-1.4149194834296104;0.018354236769654392;0.032629754257163295;0.0460992982570994;0.002125145299797008;0.046189660306572594;1.4864061624787428;0.41682150877400453;1
0.06307030861914126;-0.7383526410724718;0.0039778638293137235;0.07035790761700819;0.015637214770220318;-2.4738789758568096;0.00024452248576999644;0.027021515244213368;0.021983502360700496;-0.13878880409806627;0.0244723156928724;0.05608239012949939;0.019322847822167543;0.00037337244795864497;0.01602122295001622;2.148698768297107;0.2094130742735604;0
0.04394335001224733;-0.5012408355923554;0.0019310180102988775;0.0489446313857448;0.019537581580870534;-2.6698336152146935;0.0003817170940291715;0.03415927398796781;0.05129202348509758;2.781569002470434;0.0336494340776996;0.12949933720811652;0.014013876316999279;0.0001963887294281533;0.013832518642206235;0.2970533521142305;0.17721654259428862;0
0.03519299007828768;0.7241846520781152;0.0012385465506504552;0.0326297542571633;0.019456255186266543;-2.6478586581712413;0.00037854586587312373;0.03415927398796781;0.07723157547336298;-1.533391767992273;0.1050270215152441;0.1845620475170795;0.016357860574541052;0.0002675796025761245;0.017951734550986587;0.1768437996526965;0.1966691812164181;0
0.04133415253646;0.5896550203891522;0.0017085121659073425;0.0326297542571633;0.01870007722946011;3.0212569056613225;0.00034969288838777255;0.011726317936168185;0.0681471179982763;-2.3115833935151344;0.1009483022330987;0.1600897318242071;0.01678445154355849;0.0002817178136180629;0.024068889238438307;-1.8954522031071999;0.21196620490174128;0
0.04278768988423009;1.5087676087301887;0.001830786405629046;0.0336494340776995;0.018915679065044506;2.934655177213789;0.000357802914491763;0.013255837666972692;0.05446751264429027;2.05650458030282;0.0458855919241358;0.136637095951871;0.017285560969530753;0.00029879061803136497;0.024068889238438307;-1.7426541009699352;0.21073213233851748;1
0.021333008087614836;-1.1785717697171958;0.00045509723406624003;0.0275313551544814;0.01901641355469183;-0.9970003473737302;0.0003616239844830672;0.026511675333945495;0.023958136326613724;-2.468386455040021;0.0382379932701132;0.055062710308962995;0.01919772936803107;0.00036855281288816267;0.032056877774362356;-2.505479462613774;0.25836611568457224;1
0.018671559864616407;-2.0217397936725328;0.0003486271477779542;0.0275313551544814;0.01794462666666218;0.12273170709329169;0.0003220096262058834;0.015295197308045294;0.020161573966065018;-2.2402608963855086;0.027531355154481497;0.047415111654940396;0.017110283244709507;0.0002927617927141868;0.020325451194959654;-1.255468070317028;0.22161349293730412;1
0.019780211631090436;-2.530395647114151;0.0003912567721707253;0.032629754257163204;0.01794462666666218;0.12273170709329169;0.0003220096262058834;0.015295197308045294;0.014229923255789395;3.3286758805070966;0.0010196798205363983;0.0382379932701132;0.013040941241996815;0.00017006614847721346;0.009747974152043759;1.1521303651819228;0.18600962011176522;1
0.03170859958288205;1.0533681820660827;0.0010054352875075478;0.032629754257163204;0.017711342431182654;0.7263634455025271;0.0003136916507146111;0.013255837666972692;0.01758615154702315;-2.749226976956986;0.027531355154481497;0.0382379932701132;0.021450413304659063;0.0004601202309406946;0.027287819359461424;-0.9457730374208696;0.27568999096274105;1
0.03481575761728682;0.9417952740777373;0.0012121369784656654;0.035688793718772205;0.0176554844605135;0.8940383204101595;0.00031171613153543377;0.01223615784643628;0.017860413211633425;-2.759565106393523;0.027531355154481497;0.0392576730906496;0.021877228707026453;0.0004786131358995424;0.030045951932699266;-1.5066606484029872;0.27919617811308794;1
0.038805482705427344;-2.66406394106286;0.001505865488001221;0.061180789232180996;0.012662107944346121;2.6709210838417925;0.00016032897759427314;0.0030590394616090144;0.01471310001870296;-3.249660185974586;0.027531355154481497;0.028551034975017896;0.017762072352556047;0.0003154912142574359;0.020297977780655507;-0.6223367727472441;0.21331980985343674;1
0.03794524420186603;-2.613161327189894;0.0014398415575392475;0.058121749770571995;0.005884179890385716;-2.316099883667371;3.462357298241966e-05;0.009177118384827043;0.01312577873358271;-2.7482136281775364;0.023452635872335995;0.028551034975017896;0.016969605978935133;0.00028796752708031107;0.01333658383946787;0.20137530251270874;0.2004506610571595;1
0.05529824355238604;-0.8638024639859848;0.003057895739979004;0.06423982869379011;0.005884179890385716;-2.316099883667371;3.462357298241966e-05;0.009177118384827043;0.021541565814010587;1.0502451280022278;0.023452635872335995;0.0520036708473539;0.011920255477562647;0.00014209249065036227;0.013088584696081748;1.0728236008353182;0.1334396112776737;1
0.043183169527602136;1.7796273427671625;0.0018647861304496257;0.013255837666972501;0.008239871051631159;-1.8780794964459169;6.789547494750916e-05;0.01223615784643628;0.022862213036642383;-2.44406206089239;0.037728153359845;0.0520036708473539;0.017066689127471068;0.0002912718777737391;0.006657835559359629;3.2446073280914263;0.22059804807900202;1
0.07877513338973224;0.5917593978286947;0.006205521640570108;0.0652595085143265;0.008239871051631159;-1.8780794964459098;6.789547494750916e-05;0.01223615784643628;0.024774232915718192;-0.9931646949530943;0.027531355154481504;0.0632201488732538;0.04406179483194313;0.00194144176381225;0.006657835559359629;3.3249784645612337;0.4785943987629471;1
0.060922776027520054;0.014981662419677614;0.0037115846388993718;0.06729886815539929;0.021671494899428722;3.3556143815832846;0.0004696536911759651;0.009177118384827265;0.03742655571556456;0.7490199828552555;0.0254919955134088;0.101967982053635;0.04375320128124018;0.0019143426223567177;0.025612878900518762;1.7913149077362007;0.45042321946422526;1
0.06014987460188557;0.07598810578727584;0.003618007414622559;0.06729886815539929;0.02102865597357011;3.1367062013292966;0.0004422043720547658;0.006118078923218029;0.03501527648632151;-2.7027325691911757;0.061180789232181;0.0764759865402263;0.05095737081240375;0.0025966536401128178;0.05669908674177198;0.2923806610585468;0.5721966417705532;1
0.0766579528502858;-0.2747971974206867;0.005876441735196641;0.0774956663607628;0.022146074819347685;2.6188466032652884;0.0004904486299041455;0.014275517487508882;0.031129473891044535;-1.6780413619701982;0.038747833180381205;0.0764759865402263;0.056456907009555114;0.0031873823490855538;0.0660242889203559;0.12380492703930675;0.7157447412704387;0
0.07622609661221455;-0.22229282916671642;0.005810417804734666;0.0774956663607628;0.022807573134497328;-0.0854506284835838;0.0005201853922854443;0.027531355154481463;0.02307272050369061;-2.7564506530761963;0.0367084735393085;0.0509839910268175;0.05748280465803983;0.003304272831354365;0.0660242889203559;0.01990317373711766;0.7419810138772538;0
0.044495911231371615;1.7107066881968247;0.0019798861163101028;0.015295197308045301;0.026771207728953007;-0.22834860925376788;0.0007166975632667532;0.027531355154481463;0.02680032058896613;-2.0884872368382843;0.0367084735393085;0.0632201488732537;0.02904931333383882;0.000843862605167546;0.009370249434864197;4.447458609194594;0.5389776323957303;1
0.025872554525213393;0.4964798651530522;0.00066938907766014;0.0305903946160904;0.01955287570966491;-1.658778421738101;0.00038231494851760406;0.029570714795554176;0.0323786478405327;-2.2043639989810386;0.0489446313857448;0.07647598654022619;0.007814010795642258;6.105876471441375e-05;0.009370249434864197;-0.9281028529975082;0.17823371061857027;0
0.02573151470678081;-0.44464973659116797;0.0006621108491052771;0.0305903946160904;0.018368393529776463;1.630200308166425;0.00033739788086473377;0.016314877128581706;0.029880272660978844;-0.3800831850475852;0.0336494340776995;0.07647598654022619;0.01665322301249948;0.0002773298367040422;0.013186741825427409;1.681940517168389;0.43436487871318397;0
0.01668664824254233;-3.3058316568319785;0.00027844422957034096;0.0305903946160904;0.019068285283743793;2.997166000940934;0.00036359950366224005;0.01325583766697247;0.027938110622629152;0.8284682708730955;0.0193739165901907;0.07647598654022619;0.017914357982254107;0.00032092422191635144;0.02463852210162805;-1.5801427326064115;0.4969461412334576;0
0.013218527628428933;1.1814824490215514;0.00017472947266353902;0.0137656775772407;0.013149521494138876;0.9892973200091019;0.0001729099155248203;0.01325583766697247;0.027499235386648332;2.195557599819059;0.0066279188334862;0.07647598654022619;0.020019999356286813;0.0004008003742257244;0.03486639311322559;-2.8018102155099562;0.6565849446298204;0
0.0077270607492946055;2.2058205048370283;5.9707467823289306e-05;0.0020393596410726;0.015440659717725472;-2.801075116459209;0.00023841397251859006;0.02753135515448113;0.027190293472738495;2.2492993994105994;0.0066279188334862;0.07545630671968989;0.01736886032024407;0.0003016773088241489;0.015642498331276962;1.8114550692402258;0.6518295023283985;1
0.03951341535966274;4.245280922913762;0.0015613099933852314;0.0137656775772407;0.01288594527943217;-0.8709308977502452;0.0001660475857445202;0.016314877128581706;0.013423417749577865;4.3165929918829065;0.0025491995513408;0.0336494340776995;0.03133380542885657;0.0009818073626534415;0.015642498331276962;3.9452947781214314;0.9431686773143736;1
0.04172129360309663;3.814308060208326;0.0017406663399157913;0.021413276231263302;0.023490289465059332;-0.09735853421823866;0.0005517936991522775;0.02753135515448113;0.016924842125724114;-3.179606621849187;0.0295707147955541;0.0346691138982358;0.029994767128264835;0.0008996860550788367;0.03263131222848663;-0.041121552137377414;0.710834071099355;1
0.05652857908473667;1.628456506047429;0.003195480253339328;0.0270215152442133;0.025116020113054686;3.9480341070235263;0.0006308144663193676;0.009177118384827043;0.020648201647468545;-1.908579601218977;0.0295707147955541;0.0479249515652084;0.030541631785650964;0.0009327912721302852;0.04380338343229331;-1.8688765163821135;0.5868855605332256;1
0.06288415965803867;-1.4871536208452103;0.003954417535897699;0.0764759865402263;0.02651167533394514;3.7010193095479926;0.0007028689290125152;0.016314877128581595;0.042359075629209424;0.897388638258582;0.0469052717446721;0.10298766187417141;0.02742475646655087;0.0007521172672496236;0.03126040037572743;-0.3178659161316766;0.3966964896430293;1
0.06717128724795328;-1.2597319130566322;0.00451198183054705;0.0897318242071989;0.027376076997328178;-1.0665171482912612;0.0007494495917636409;0.03976751300091774;0.043016713295266684;-1.8516632084512576;0.062200469052717505;0.10298766187417141;0.01911892554039656;0.00036553331381922785;0.026017423960652847;-1.0030769319918338;0.22817831478211376;0
0.06607887150557115;-1.22261191408084;0.004366417259449783;0.0897318242071989;0.02730953089099498;-1.0690683725385608;0.0007458104774862091;0.03976751300091774;0.04494694981244856;0.02183511604132941;0.055062710308963;0.10298766187417141;0.023016746331444748;0.0005297706116860752;0.029479429228480958;-1.4671498435233232;0.2597352293349548;0
0.0619517382029488;2.726734586276405;0.0038380178663667062;0.046905271744672204;0.016955530894581277;-1.2145554905185918;0.0002874900279171001;0.02447231569287245;0.02291899108324465;1.8550824395407968;0.022432956051799804;0.055062710308963;0.02154054872406609;0.00046399523933386537;0.029479429228480958;-1.9768917212463666;0.24072580898995835;0
0.022495440292429957;-1.7673496979792738;0.0005060448339502812;0.0326297542571633;0.014871253254995123;0.7479826503620863;0.00022115417337420303;0.01223615784643628;0.0225023722756336;2.404500588187888;0.010196798205363497;0.060161109411644806;0.023211667775196582;0.0005387815209060994;0.01279019413472722;2.595982947301535;0.23393711843670342;0
0.022393524676345204;-1.789546504414286;0.0005014699474300815;0.0326297542571633;0.008652270188883905;0.6429398148148154;7.486177942144914e-05;0.008157438564290631;0.023830857656966933;2.70505879240829;0.016314877128581706;0.060161109411644806;0.02431034860422723;0.0005909930492590528;0.028783604714601577;-0.5933312972038726;0.25317176598920377;0
0.020041313368509877;0.9349451164203906;0.0004016542415348127;0.015295197308045301;0.020444516830593815;4.095399866339943;0.00041797826843643373;0.007137758743754441;0.024017735120525782;2.7246650975255142;0.016314877128581706;0.060161109411644806;0.02413725372162379;0.0005826070172220415;0.028783604714601577;-0.9890032584992111;0.25843589988489535;0
0.026239672659735435;1.7406175893744031;0.0006885204212900674;0.0224329560517997;0.021124852309702912;0.025601934807492437;0.0004462593851067604;0.023452635872336036;0.02426538048513647;1.5486322875126024;0.021413276231263406;0.060161109411644806;0.02200301330930075;0.000484132594689266;0.0070811188751136594;2.0741642026590426;0.2514920577576466;0
0.03591097499690219;-2.877039232490489;0.0012895981252281342;0.0591414295911083;0.01989813140434457;-0.49028664774736913;0.00039593563338456364;0.020393596410727244;0.023445984843453744;-2.2351604617125496;0.0377281533598451;0.05404303048842671;0.016735825473183925;0.00028008785426887194;0.020638873298402277;0.05467134537399095;0.17419664995041392;0
0.0372664726391103;-3.122411022075361;0.0013887899829615566;0.0622004690527173;0.0175224790004608;0.0028863987090019805;0.0003070372703215897;0.01937391659019061;0.018754903054592938;-2.704593370776303;0.0326297542571633;0.0418068726419905;0.009130791913387101;8.337136096557529e-05;0.013506862005125228;-1.4099386923021224;0.10029390137868158;0
0.03266637844690774;3.3607781525362532;0.0010670922808365985;0.0112164780258998;0.01705336383572483;0.20799265365401354;0.00029081721811360754;0.01835423676965442;0.015474292211762133;-1.688150911924275;0.021413276231263392;0.0377281533598451;0.009336285708186367;8.7166230824885e-05;0.01426103447074449;-1.498860562876941;0.10275727138165658;1
0.010901517088531858;-1.4696555319119302;0.00011884307483155212;0.0152951973080453;0.014467240866839075;-1.1075623943621362;0.00020930105829913864;0.018354236769654197;0.010996479832399575;-1.980549605976717;0.015295197308045294;0.02651167533394519;0.009320501381804687;8.687174600822307e-05;0.01426103447074449;-1.5182770824105383;0.10247681654281147;1
0.00869422810127133;0.38137926204138733;7.558960227693608e-05;0.0071377587437545;0.012756190479450098;0.8216680786779449;0.00016272039554801333;0.010196798205363455;0.014751916275196664;-1.8231157072849935;0.021413276231263392;0.0356887937187724;0.013053338340076106;0.00017038964182050084;0.014420289975287978;-0.3984897883407233;0.14751937390354042;1
0.008549515169268627;0.8886321373901703;7.309420962955436e-05;0.0050983991026818005;0.01314556734535188;1.0002085261113909;0.00017280594083118168;0.010196798205363455;0.014606713228893575;-0.9614496768229218;0.018354236769654406;0.0367084735393087;0.013334890740647209;0.00017781931106499867;0.01988778615731654;-2.057296552678531;0.16530074269904235;0
0.006071163718406798;1.5779490371534806;3.685902889569905e-05;0.0050983991026818005;0.01333404387745688;0.026572278649824217;0.0001777967261259453;0.013255837666972692;0.01915261650963409;1.2973191508736928;0.015295197308045308;0.0504741511165494;0.019694664709657504;0.00038787981802582865;0.017523217310546874;0.9335277348165967;0.2851016922096843;0
0.004760933019242716;1.8748684872668708;2.2666483213715568e-05;0.0015295197308045003;0.014044215671827136;0.20307013070879046;0.00019723999383679494;0.014275517487509104;0.02326792276478902;-1.7444671251627497;0.03211991434689499;0.0560823901294994;0.023202019902031572;0.0005383337275342692;0.031360660660094124;-1.5761922462800382;0.39051280512963493;0
0.014366271850316378;3.8375616240173023;0.0002063897668771928;0.0081574385642908;0.012542476289739932;0.8727927033783219;0.00015731371147868837;0.013255837666972692;0.022542766360185627;-1.9397819218869532;0.031610074436626896;0.0540430304884266;0.02115454209940905;0.0004475146514356698;0.030802794178932585;-2.2213453252831266;0.4651786496576192;0
0.015079544256795543;3.327875687672865;0.00022739265499265544;0.0081574385642908;0.02142055842029594;1.1479571126836963;0.0004588403230373113;0.014275517487509104;0.03472979172959875;1.484512712034866;0.021923116141531605;0.0938105434893442;0.01877805358020903;0.00035261529626120114;0.027070601497487752;-2.0099051818933233;0.4300980165152032;0
0.015707703460718363;2.946527463674272;0.0002467319480098636;0.012236157846436202;0.019950316470105988;1.4126523586311304;0.0003980151272573823;0.014275517487509104;0.029968873913948205;-2.4563142889790384;0.0489446313857447;0.0678087080656673;0.014748212110609614;0.00021750976045953205;0.004791077545650481;2.192868803040587;0.3914690578887294;0
0.018829596525562636;-3.076710726602282;0.00035455370531548046;0.0367084735393085;0.019076462663270774;2.0792244897959145;0.0003639114277431639;0.006118078923217807;0.025095312697453093;-1.4433796875857254;0.0326297542571631;0.0622004690527173;0.016967248676504686;0.0002878875276503501;0.014523999804536353;1.5919804934833632;0.5039156357442097;1
0.01873826407182188;-3.0451453153504997;0.0003511225404253307;0.0367084735393085;0.019392691069038084;2.5434809311754925;0.0003760764668991495;0.006118078923218029;0.019999766159546774;0.2777928497009429;0.022432956051799697;0.0499643112062811;0.017147628666908294;0.0002940411688981751;0.0189696230922253;0.42701069174599837;0.49367610324210676;1
0.015786935758950963;-1.5244389237076572;0.00024922734065724463;0.023452635872336;0.019635125770426608;1.2062042011849254;0.0003855381640204711;0.013255837666972248;0.029220543872062042;2.7128337844016244;0.017334556949118004;0.07545630671969;0.027601167350644017;0.0007618244391182572;0.026197419989438378;0.190836195794945;0.5667761818147625;1
0.014118055379888928;0.7177278007576078;0.00019931948770961073;0.0132558376669725;0.010232424761335382;1.896525710296076;0.00010470251649638946;0.0030590394616092365;0.0293093657191886;2.843202299702895;0.017334556949118004;0.07545630671969;0.02728993979932545;0.0007447408142508071;0.005711091428141614;3.684476662276301;0.6316245283407876;1
0.008988233250143241;-1.711413564692112;8.078833695898052e-05;0.0132558376669725;0.005443600617941643;2.886426592797965;2.9632787687654635e-05;0.0040787192821452045;0.028003163025624372;3.0750175047314037;0.006118078923218105;0.07545630671969;0.02710882120956792;0.0007348881873723195;0.005711091428141614;3.5757855386237387;0.6198051075552815;1
0.02589063247398388;3.1927576705014715;0.0006703248499029086;0.015295197308045199;0.0322644484337286;4.414666642937007;0.0010409946327327323;0.013255837666972248;0.036491148261723096;1.9246909855074403;0.006118078923218105;0.1029876618741714;0.03226375665105867;0.0010409499932387326;0.05263728599145067;-2.9804134242389466;0.5373334215675221;1
0.025890632473983897;-0.8451783136620286;0.0006703248499029095;0.030590394616090602;0.03081053314925687;4.259003153908107;0.0009492889529414563;0.010196798205363455;0.04251343434209751;-0.1436099489447701;0.0479249515652085;0.1029876618741714;0.03165993485597006;0.0010023514750842678;0.05263728599145067;-2.9272120332274327;0.5203322835935991;1
0.03061078141916387;-0.3032744327284445;0.000937019939091828;0.030590394616090602;0.03368726456309046;-2.1268664178239525;0.00113483179374365;0.051493830937085816;0.029845455272480302;-2.903560423459359;0.0479249515652084;0.06423982869379011;0.02837885756266919;0.0008053595565622663;0.034749688437445324;-0.3844417332991637;0.4955439869905488;1
0.03148978649107203;-0.971366532156272;0.0009916066532533025;0.037728153359845;0.030730280750320443;-1.860895957166651;0.0009443501549935151;0.04129703273172236;0.030115963418585908;2.027957571545938;0.016314877128581602;0.0805547058223717;0.025587088758607653;0.0006546991111408661;0.02895553281642546;0.16693990026157005;0.42000377325559335;1
0.03181172257528535;-1.1269183722390868;0.0010119856932069194;0.037728153359845;0.041091325573428206;-0.5189116028382029;0.0016884970373814748;0.04129703273172236;0.013558291129678357;-0.9592286705842277;0.017334556949117997;0.032629754257163204;0.023260753312651743;0.0005410626446720391;0.022570289792853207;0.8026713747189961;0.3671380190897479;1
0.02990635910135261;-2.651011014292353;0.0008943903146990562;0.0509839910268174;0.030868690932271074;1.8717815458775224;0.0009528760798720743;0.010196798205363677;0.011572355223094412;1.9598129894681502;0.002039359641072696;0.032629754257163204;0.010849325967154965;0.00011770787394158303;0.004199783488016744;2.9108873014969467;0.20062518627694043;1
0.024188129343075813;-1.606702546675077;0.0005850656011173651;0.033649434077699505;0.0313449974885903;1.0125690184942517;0.0009825088675597322;0.020393596410727133;0.014706031509998767;2.5012250369821865;0.002039359641072696;0.040787192821454;0.02065402624086395;0.00042658879995829653;0.004199783488016744;2.5763280547549825;0.42600635733297165;1
0.022921259279705522;1.145865697738272;0.0005253841269674865;0.020393596410727;0.022321441080880487;-1.2198257181557572;0.0004982467319272191;0.029570714795554398;0.014794145129547001;1.5815866532009342;0.0071377587437544965;0.040787192821454;0.016507146052786057;0.00027248587080801027;0.01935144885772709;-0.1107235391124668;0.4072732473459021;1
0.02439785074743622;3.36101142236056;0.0005952551210941741;0.0163148771285816;0.02044960189890556;0.3919034568945783;0.00041818621782372187;0.01733455694911812;0.019764435838365624;-0.4361323860795909;0.0254919955134087;0.045885591924135695;0.015695697136034203;0.0002463549085861123;0.019918745163710286;-1.3513029029936767;0.4346055649585336;0
0.03983543365331274;1.683834213193684;0.0015868617743474815;0.0163148771285816;0.01948895984577488;0.34878802051105257;0.0003798195558702257;0.01733455694911812;0.029618144611847357;-0.7689259210303353;0.0387478331803812;0.0723972672580808;0.029896610382135962;0.0008938073123412398;0.02411852865172703;1.2360198347984397;0.6700650919024896;0
0.028199263411756645;4.15478217293141;0.0007951984569656371;0.0101967982053635;0.012459302452620318;0.3438102975752339;0.00015523421760587066;0.013255837666972914;0.0246775156904979;0.25910254381291037;0.0193739165901906;0.06627918833486271;0.030948387928684314;0.000957802715384333;0.011280969273693965;4.079235013732766;0.8126485598949337;0
0.02641738336243297;0.918149906026778;0.0006978781437177505;0.0285510349750178;0.0135774493858502;-2.376701471499017;0.000184347131825324;0.021413276231263212;0.02357864896252346;2.0495394102266986;0.004078719282145399;0.06627918833486271;0.028587112088814707;0.0008172229775784561;0.024857943066910557;1.4003721242742344;0.6222309390367844;0
0.024155868452878183;1.0934566952300504;0.0005835059807127555;0.020393596410727;0.01827760079081015;-2.232994868245084;0.0003340706906682239;0.027531355154481685;0.012990416766954869;1.083762412546952;0.0122361578464362;0.0316100744366269;0.027567120085579138;0.0007599461098127407;0.024857943066910557;0.8440734933153422;0.5564122805521926;0
0.02843791777080304;-0.1764968490153199;0.0008087151671389552;0.0305903946160905;0.022610695890050065;-2.125377824665577;0.000511243568632327;0.03161007443662711;0.012756190479449956;1.167083465177632;0.0122361578464362;0.0316100744366269;0.02598200164124922;0.0006750644092858773;0.013919109513115278;1.7289125196021697;0.5022406083054215;1
0.017519511854727828;-2.304989589528572;0.0003069332956279489;0.024472315692872403;0.02221931229989858;-1.9519699677698483;0.0004936978390804243;0.03161007443662711;0.01076716227283694;-0.07524784331084788;0.0122361578464362;0.026511675333945203;0.014602237864336771;0.00021322535064667052;0.013919109513115278;1.4548772821390383;0.32660889018498546;1
0.020273429999940678;-3.17745846097335;0.00041101196396249465;0.0336494340776996;0.032109796882207386;1.1312938536405153;0.001031039055816615;0.01937391659019083;0.010145686113047761;0.4465870829504108;0.0091771183848272;0.026511675333945203;0.01230619317808731;0.00015144239053640265;0.0065779740699496575;1.6787204780208416;0.2223205452776992;1
0.021814952963378556;-2.8214535454288345;0.0004758921727944189;0.0336494340776996;0.03232441322082824;0.99064460320441;0.0010448676900708554;0.01937391659019083;0.015934434469760245;0.39789957480371757;0.018354236769654402;0.0387478331803814;0.015892156568270217;0.00025256064039041423;0.02393532209776554;-2.1351312464810484;0.26457431694836475;1
0.02090467979598637;-2.0991107436084397;0.00043700563737272065;0.0336494340776996;0.03800171724609212;1.315748188084773;0.0014441305136519357;0.01937391659019083;0.028058802188420714;-0.3877912033909408;0.0367084735393087;0.0672988681553992;0.019924799020816977;0.0003969976160199492;0.02111117162667092;-0.6017251843689356;0.2913765108862437;1
0.049904968057104135;2.5567415470278276;0.002490505836780584;0.0356887937187723;0.03988499483146313;0.5749179001666036;0.0015908128127058406;0.0326297542571633;0.02929162289673853;-2.0648717131164047;0.0469052717446721;0.0672988681553992;0.02091086198313305;0.0004372641488776391;0.017638344777327328;0.3229854631061322;0.25243864977334696;1
0.04717383138983177;2.8064599425391847;0.0022253703679962775;0.0183542367696543;0.044921496571048006;0.5672076036468722;0.002017940854182678;0.05200367084735402;0.029819315552457083;-2.3510818863262677;0.049964311206281205;0.0672988681553992;0.02297987354273724;0.0005280745880401949;0.017638344777327328;0.4980127597104911;0.28176242607734453;1
0.04881168000367661;0.0779635618908685;0.0023825801047813234;0.046905271744672;0.022117887186177073;0.0694292141785624;0.000489200933580456;0.025491995513408527;0.02161384506580392;-1.0804169544545499;0.028551034975017806;0.052003670847353904;0.024213485770312945;0.0005862928931491475;0.027903794706132065;-0.6582030142128149;0.30455478506222605;1
0.03868069080940274;1.062826426157848;0.001496195841492614;0.038747833180381205;0.0133846328729359;-3.0667581143310785;0.0001791483971432763;0.023452635872336147;0.022230423272515797;-1.8295610435113818;0.0336494340776996;0.052003670847353904;0.027651681468452757;0.0007646154880327737;0.04138468899907786;-1.4845496369999107;0.3742821533201223;1
0.05572715809788381;-0.9054486183563123;0.003105516149666537;0.0703579076170083;0.011322579090438439;4.123345133721355;0.00012820079725923376;0.0040787192821454266;0.02464589540370074;-1.9302074331938808;0.0356887937187723;0.0591414295911084;0.04527749176448292;0.0020500512604828183;0.062282482785359396;-0.9395405310109067;0.526372055462241;1
0.06129285138279311;-2.742768379111668;0.0037568136306331632;0.09992862241256249;0.027752343020815442;2.786659610730588;0.0007701925431450036;0.005098399102681395;0.02827658738423982;0.37986441446080593;0.0265116753339451;0.0744366268991537;0.04515297077755999;0.0020387907700391865;0.06143261464867348;-0.8365331463212158;0.5259637571580924;1
0.05058269725029877;-2.334206304133667;0.0025586092611153827;0.07953502600183548;0.027064768920132598;-3.2834032058937805;0.0007325017167001754;0.047924951565208485;0.026972410559781328;1.2966697644915222;0.015295197308045197;0.0744366268991537;0.041233899460724636;0.0017002344647371473;0.04795172035572769;-0.32954422816122647;0.45066331915420993;1
0.05424179113890579;-2.7011368087002396;0.002942171905956678;0.0968695829509534;0.027962290610384584;-3.3034372877999054;0.0007818896961796018;0.0509839910268175;0.042137582314434235;-1.0463586820407482;0.0479249515652085;0.1060467013357806;0.03997727439624382;0.0015981824681525721;0.04535325263182548;-0.8433982138105675;0.3861850393743812;1
0.046029255178861125;-1.2503698472199254;0.0021186923323207136;0.054043030488426694;0.028681837041703528;-3.315054770831012;0.0008226477760868366;0.0509839910268175;0.042289061595447486;-1.319360127095673;0.0479249515652085;0.1060467013357806;0.02710622018785917;0.000734747172872704;0.020171112411338343;0.7267400325769131;0.2370915295769425;1
0.03455646620338645;1.9652326130369187;0.0011941493564657896;0.009177118384827196;0.02681001785041506;-3.126130516054665;0.0007187770571395741;0.0509839910268175;0.041026117786831316;-0.719564254553107;0.0469052717446722;0.1060467013357806;0.018638615015022945;0.00034739796967823885;0.02619012946731336;-1.8044894339600066;0.1846123113830771;1
0.01963512577042665;-0.630810492839578;0.00038553816402047265;0.0244723156928724;0.039482813751784265;-0.11069720439449544;0.0015588925817580845;0.03874783318038155;0.029362529858143558;0.7982577666265639;0.021413276231263503;0.0795350260018354;0.017609421291855325;0.0003100917182340476;0.01817942369031178;-0.09661952249288557;0.17858359123728543;1
0.028500005381100254;-0.7901831677290557;0.0008122503067227434;0.037728153359844904;0.031142831314483293;2.006841066127459;0.0009698759422823612;0.005098399102681839;0.02127444103657834;0.6873684632985011;0.0209034363209952;0.05404303048842671;0.013845187075677088;0.0001916892051604959;0.004916966605441622;2.0246157656848127;0.13486568719759717;1
0.029833259586678405;-2.0120038970380683;0.0008900233775661389;0.046395431834403804;0.0331795728765441;0.9001743924914246;0.0011008840562699007;0.02651167533394516;0.028115255794763247;2.299784886611081;0.021413276231263503;0.0708677475272764;0.03254104961472226;0.0010589199100278159;0.014416118257927046;4.071189292039198;0.3917940247381445;1
0.06173443454070453;2.1970491561119907;0.0038111404080605326;0.0448659121035994;0.05528696088279145;0.6710455507804317;0.0030566480436553115;0.04282655246252698;0.029144832469914114;-1.85449684602476;0.0387478331803813;0.0708677475272764;0.04397493084357429;0.0019337945426971415;0.014416118257927046;1.8089628836178875;0.47774162277963006;1
0.057169856631401596;-1.591270192241191;0.0032683925072550133;0.07596614662995821;0.054571450184714584;1.8496186042568254;0.0029780431752627857;0.02651167533394516;0.033579064388228275;-1.9706001849384276;0.049964311206281205;0.07698582645049451;0.04421494295928843;0.0019549611808931293;0.019531193920014317;1.481656228927329;0.48574769805095525;1
0.05397613271775745;-1.6911771258830182;0.0029134229031649657;0.07596614662995821;0.04234802847734853;4.020968538526468;0.0017933555159183223;0.01631487712858193;0.04311328795416143;1.808249218478372;0.017334556949118;0.11981237891302121;0.051548929793343544;0.002657292162839062;0.0707244772519104;-1.0036036918563103;0.6725334110755024;1
0.05274859987883494;-1.6667369733565411;0.0027824147891774256;0.07596614662995821;0.0479054218021514;2.71282259246847;0.0022949294380420425;0.01631487712858193;0.022793892693517535;2.7879513379430683;0.0112164780258999;0.0601611094116447;0.05013148668665502;0.0025131659574142698;0.052346944504952975;1.1774747967749555;0.722126409286706;1
0.04734982913357579;1.0414807248875952;0.002242006318978823;0.0336494340776996;0.055111784135864275;2.3373696457719846;0.003037308750638101;0.03874783318038122;0.04316149425082591;1.6481197466233855;0.022432956051799804;0.1182828591822167;0.04902009312466935;0.0024029695299512556;0.06601741817459512;-1.6427433620312673;0.5447668394243845;1
0.08606665497774942;1.6104059924540703;0.007407469099058959;0.0836137452839808;0.029390844744046303;-1.8359203408307974;0.0008638217547686342;0.03874783318038122;0.04384267511613992;2.8967971947171187;0.013255837666972602;0.1182828591822167;0.04402291978822287;0.0019380174666803044;0.06601741817459512;-1.7130389269121846;0.5095702683571903;1
0.07766453455404308;2.082641948203824;0.006031779927496152;0.0571020699500356;0.033960083949615215;-2.7715650724511107;0.001153287301864913;0.061180789232181065;0.05277077050588079;1.8628096789756843;0.0377281533598449;0.1376567757724074;0.047043140565553754;0.002213057074270449;0.07890788806770674;-2.785357012734305;0.5861137263524715;1
0.0861089271075527;2.992902818072165;0.007414747327613824;0.0596512695013766;0.03462710162671592;-2.883316495600345;0.0011990361670669125;0.061180789232181065;0.050376724014044326;2.4199098567550714;0.018354236769654197;0.1376567757724074;0.03726700068966368;0.0013888293404033933;0.06601741817459512;-2.7938610268300637;0.4079378497385607;1
0.08546200525468706;0.8685793478712753;0.007303754342152158;0.0887121443866625;0.029742506509990354;3.1861094146519995;0.0008846166934968186;0.018354236769654197;0.061997874758066916;1.3386499432345123;0.0489446313857448;0.16212909146527982;0.03595945436596195;0.0012930823582977002;0.058476032978257014;-2.446907643080317;0.38723173340978956;0
0.07671150980129561;1.8526012632713578;0.0058846557359942715;0.0290608748852859;0.02085239000225781;1.5490552871602172;0.00043482216880626147;0.018354236769654197;0.0300277961771076;-1.0875755602286052;0.0387478331803814;0.0734169470786172;0.036473328787404787;0.0013303037128341306;0.03375910245005328;0.9246171037210639;0.4901710718391369;0
0.055987293884766066;-2.7448978655067324;0.0031345770765391634;0.0948302233098806;0.01927167884968275;2.4920418108243028;0.00037139760568530945;0.008157438564290631;0.026442953971428342;-2.091087740633737;0.0387478331803813;0.0632201488732538;0.031572455069320486;0.000996819919104261;0.03375910245005328;-0.04554205058044284;0.4396426353356707;1
0.05468659902748873;-2.6182369214900603;0.002990624113193331;0.0948302233098806;0.015548027614945331;2.047728061047534;0.00024174116271510264;0.011216478025899868;0.03872770269161391;-1.3745669497100022;0.0499643112062812;0.09584990313041691;0.03296617763400847;0.0010867688677970004;0.04104979288903871;-0.5317414492147942;0.4685639631061896;1
0.04845679009687436;1.6611432226131402;0.002348060506492541;0.0428265524625266;0.0190136795436713;0.6306920641821657;0.00036152000978942453;0.017334556949117896;0.0389792534327497;-1.52565506427986;0.0520036708473539;0.09584990313041691;0.03619086502891947;0.0013097787115414659;0.03379143882419712;1.3850858116218407;0.6081170012050552;1
0.04351895040863316;2.8088943415297627;0.0018938990446690724;0.020393596410727;0.018958916528024648;0.29791774626222417;0.0003594405159166062;0.017334556949117896;0.03047631766296892;1.2764548712194521;0.020393596410726997;0.0825940654634443;0.04074683874761338;0.001660304867924007;0.013164065707544165;3.682894235163561;0.849625551171704;0
0.03829844648536333;4.180727777682459;0.0014667710031922392;0.0163148771285816;0.01220638095372325;-1.1438239990572125;0.00014899573598741773;0.017334556949117896;0.03490374600799275;-2.158398679436786;0.0499643112062812;0.0825940654634443;0.04026439625759546;0.0016212216059886674;0.019502122023868224;2.9728362530702106;0.7982636144795272;0
0.0077455405383226525;0.3675558452745224;5.999339823079956e-05;0.0071377587437545;0.011954087985819714;4.557360501827965;0.00014290021957271925;0.0040787192821454266;0.03251803552381341;-2.1768811110821;0.0499643112062812;0.0739267869888853;0.01604527478892272;0.00025745084305203904;0.019502122023868224;-0.08228485366622589;0.4324346151531177;1
0.004842137277692748;-1.0987900745774368;2.3446293416021737e-05;0.006627918833486301;0.011510419339534235;4.339135514976394;0.00013248975337192372;0.004333639237279696;0.025193005451066883;-3.055742580699816;0.0428265524625268;0.0504741511165493;0.01677500349373016;0.00028140074221465915;0.019502122023868224;-0.2915157592400644;0.43803882215266504;1
0.004241181674943215;-0.62894684053418;1.7987621999874138e-05;0.0050983991026817;0.002195865755823284;-3.1116818389868617;4.821826417597362e-06;0.003823799327011379;0.021979363510553407;4.938643490209117;0.0025491995513408985;0.0504741511165493;0.016393229832523434;0.00026873798434193626;0.001228701434487639;4.881648099811533;0.3907766287150877;1
0.021418131299057574;4.7133801436007445;0.00045873634834366967;0.004588559192413601;0.0020104766139625854;-2.3251930811298926;4.0420162152904625e-06;0.003313959416743062;0.002634446962936525;1.2283802551310916;0.0025491995513408985;0.0066279188334862;0.012721439147004847;0.0001618350139709474;0.0026197445412370485;4.792289325599758;0.23163783907380314;0
0.02033488029494829;4.5866495898067585;0.00041350735660987626;0.0050983991026818005;0.0033606920562204894;1.3575979162057585;1.1294251096743501e-05;0.0025491995513411414;0.010593143448096086;3.9714331385067516;0.004588559192413501;0.0260018354236769;0.016241650364405377;0.0002637912065595893;0.003466338311073021;2.4561597182501025;0.31457953115619314;0
0.02750159841204413;-2.855750189866733;0.0007563379152173482;0.044356072193331306;0.007339747144329605;2.972751916722006;5.3871888142694595e-05;0.0025491995513411414;0.012501998168920237;-3.2124650706223186;0.0229427959620679;0.024982155603140602;0.020768479120445913;0.00043132972497639786;0.02968681187486532;-2.3239452662103894;0.3612466484487757;0
0.028587428915827807;-2.883172904162199;0.0008172410920175078;0.04894463138574491;0.015825581926347324;2.125441685883439;0.0002504490433075311;0.007137758743754663;0.026075707259146232;1.6889529870356281;0.0239624757826042;0.0642398286937902;0.023957557234385137;0.0005739645486388396;0.03277344709130283;-1.8806302163606254;0.3660020540961012;0
0.029915049526404988;-2.837521594260028;0.0008949101881672634;0.04996431120628121;0.03523229877354939;2.037383994614732;0.00124131487686865;0.01962883654532499;0.032314359783780354;-3.099031329477217;0.0632201488732538;0.0642398286937902;0.02829236854501472;0.0008004581178869384;0.010991313202717568;2.281905266185061;0.36322483832967095;1
0.0264930400185204;4.257278761131602;0.0007018811694229234;0.009177118384827102;0.04213280125232449;0.6511897790835862;0.001775172941367876;0.043081472417661026;0.031925913013753957;-3.0118295222576847;0.0632201488732538;0.0642398286937902;0.028554437543378004;0.0008153559034186752;0.019217553019743414;1.2927742324409586;0.3744995753634694;0
0.06735060474466235;2.9202793807299208;0.004536103959471735;0.007137758743754502;0.04288402263007518;-0.8764528527153898;0.0018390393969368005;0.05098399102681761;0.03046608097757822;0.8145022904563651;0.027531355154481497;0.0754563067196901;0.030341428108111627;0.0009206022596397063;0.029400174677154278;0.7253596999577864;0.30657206276026217;1
0.05655041690662673;4.838816072526979;0.003197949652313295;0.007137758743754502;0.04338375161610231;-1.2877627081861778;0.0018821499042876598;0.05098399102681761;0.014645811448369232;3.446822568489656;0.0030590394616090005;0.03874783318038139;0.028862201734107036;0.0008330266889402913;0.021495496690874222;1.1565951264282799;0.2838294587881458;1
0.06403962711695152;3.606365722008642;0.004101073841278192;0.014275517487508901;0.03960770351401317;0.41731500752321554;0.0015687701776539713;0.028551034975017764;0.016451326011822608;-2.2482451392935183;0.023452635872335995;0.03874783318038139;0.029011204970750236;0.0008416500138548833;0.022759704302419415;1.0881943838969264;0.2860058831061529;1
0.07349833473020453;2.8774662593285876;0.0054020052081131895;0.0418068726419904;0.026535195973201423;1.2583611019140502;0.000704116625336205;0.028551034975017764;0.02351241046955174;-1.4178187720772566;0.030590394616090498;0.05812174977057209;0.02891581126894124;0.0008361241413410293;0.006952348372245121;3.3287942921454223;0.2968649351359177;0
0.08366782056896889;2.764969675499342;0.007000304198761175;0.055062710308963;0.012946320177916849;-2.4270437598901595;0.00016760720614913694;0.022432956051799735;0.028226903432191218;-2.7440688786773824;0.0499643112062812;0.0622004690527175;0.024377701348252408;0.0005942723230245873;0.019205143577520484;2.551560534325683;0.23138451035566993;0
0.0296987765094085;0.7913861854257777;0.0008820173261557941;0.0234526358723361;0.02194800117637843;1.2026994660859138;0.0004817147556383089;0.017334556949117896;0.02247463151438771;-0.09287986303802025;0.026511675333945203;0.054043030488426604;0.008615162369436553;7.422102265175565e-05;0.009133194593985969;0.4353260464145971;0.0898288399380342;0
0.01940876902487627;-0.8745632470922414;0.0003767003150609966;0.02345263587233609;0.026348416070806246;0.9603439515239435;0.0006942390294403208;0.017334556949117896;0.014606713228893436;1.691574615551205;0.010196798205363504;0.03874783318038141;0.013001269113166593;0.00016903299855297965;0.019205143577520484;-1.6692830732101396;0.12911218100243624;0
0.024323157829869622;0.7852237066851219;0.0005916160068167479;0.024472315692872393;0.02604279030018906;1.715919581624508;0.0006782269266196214;0.011216478025899868;0.006670919642620514;1.0940911870026113;0.004078719282145406;0.0183542367696543;0.02136048760410775;0.00045627043068524083;0.019173487558651087;0.9732263980913013;0.19014547047167663;0
0.04387645655825195;1.0375116553792327;0.001925143440108171;0.037218313449576906;0.02590669117143369;1.8172655715160804;0.0006711566474520403;0.009177118384827265;0.021418131299057404;3.3276313507462043;0.009177118384827203;0.0550627103089629;0.03920278882998979;0.0015368586520487723;0.036394699600940425;1.3052300982024978;0.2932460781217145;1
0.04956787264026365;0.11118354637353652;0.0024569739980813974;0.0576119098603039;0.025856474626503465;2.166441326499754;0.0006685572801110175;0.0040787192821454266;0.044741756521937355;0.7963870605553005;0.0458855919241358;0.10910574079738951;0.04093230171435095;0.0016754533236346578;0.046125978784563856;0.9252249678210612;0.3107066487613704;1
0.049758912565196434;0.07714925367831545;0.0024759493796708636;0.0586315896808403;0.015254355586793741;3.5660789626893177;0.00023269536436834544;0.0040787192821454266;0.04239342613640732;-2.023279015574534;0.06525950851432641;0.09992862241256241;0.04240021493335661;0.0017977782263948372;0.046125978784563856;0.671144924633675;0.3252544411177226;1
0.06267340725033303;-0.6216070762165474;0.003927955976366097;0.0678087080656674;0.0057501263097263985;-2.4166370001181563;3.306395257780773e-05;0.008157438564290853;0.05600168465582613;-0.05701478948103519;0.05404303048842661;0.1488732537983073;0.04222131022914918;0.001782639037466057;0.046125978784563856;0.639597321259964;0.3225287166055012;1
0.06651564600759564;2.8619515876901644;0.004424331163807775;0.0458855919241358;0.0069756832370702695;-2.8142121411350103;4.8660156623943156e-05;0.01223615784643628;0.06375649494672013;-0.5750137466392928;0.0744366268991537;0.16110941164474352;0.04696063833602081;0.0022053015529265472;0.07735154204134188;-2.5556594808461384;0.34239787650685233;1
0.022998244858059933;-2.667577854780125;0.0005289192665512802;0.0367084735393087;0.007079251537762732;-1.0019627761228591;5.0115802334916005e-05;0.009177118384827265;0.05188857958964775;-0.8777765271480066;0.05812174977057209;0.1325583766697257;0.03419931415544394;0.0011695930887027479;0.041595058705467466;-0.25101538138842966;0.271384349505471;1
0.02438079825487775;-1.8448374069704343;0.00059442332354505;0.0356887937187723;0.007765650153832842;3.5413198573128946;6.030532231172405e-05;0.0020393596410728243;0.047576560201032576;2.276561302243574;0.009177118384827196;0.1325583766697257;0.030948956284497054;0.0009578378950997096;0.02002727318222146;1.0428022774126606;0.23580528370829987;1
0.01731955516617006;3.3170375665739535;0.0002999669911540081;0.009177118384827203;0.007765650153832842;3.5413198573128946;6.030532231172405e-05;0.0020393596410728243;0.025579537663573872;3.9615314426370154;0.009177118384827196;0.06423982869379011;0.025596041221087027;0.0006551573261915862;0.02002727318222146;1.796863475424806;0.18945716362947787;1
0.01731955516617006;3.3170375665739535;0.0002999669911540081;0.009177118384827203;0.007765650153832842;3.5413198573128946;6.030532231172405e-05;0.0020393596410728243;0.025579537663573872;3.9615314426370154;0.009177118384827196;0.06423982869379011;0.025596041221087027;0.0006551573261915862;0.02002727318222146;1.796863475424806;0.18945716362947787;1
0.01731955516617006;3.3170375665739535;0.0002999669911540081;0.009177118384827203;0.007765650153832842;3.5413198573128946;6.030532231172405e-05;0.0020393596410728243;0.025579537663573872;3.9615314426370154;0.009177118384827196;0.06423982869379011;0.025596041221087027;0.0006551573261915862;0.02002727318222146;1.796863475424806;0.18945716362947787;1
0.01785167880086831;0.7411414991656985;0.000318682436009371;0.014275517487508901;0.010363679777523711;2.0680280651379306;0.00010740585853105393;0.006118078923218029;0.013917789129491973;3.0449811698803493;0.008667278474559004;0.034669113898235904;0.011834512231692578;0.00014005567976208125;0.001624695060550567;2.7282618406695938;0.18659868469238183;1
0.01785167880086831;0.7411414991656985;0.000318682436009371;0.014275517487508901;0.010363679777523711;2.0680280651379306;0.00010740585853105393;0.006118078923218029;0.013917789129491973;3.0449811698803493;0.008667278474559004;0.034669113898235904;0.011834512231692578;0.00014005567976208125;0.001624695060550567;2.7282618406695938;0.18659868469238183;1
0.01785167880086831;0.7411414991656985;0.000318682436009371;0.014275517487508901;0.010363679777523711;2.0680280651379306;0.00010740585853105393;0.006118078923218029;0.013917789129491973;3.0449811698803493;0.008667278474559004;0.034669113898235904;0.011834512231692578;0.00014005567976208125;0.001624695060550567;2.7282618406695938;0.18659868469238183;1
0.021743342245045757;-1.3434268064714487;0.0004727729319851914;0.0295707147955541;0.010408728585846698;1.157544365073779;0.00010834163077382221;0.008157438564290853;0.01401827988668044;3.332488242208534;0.008667278474559004;0.034669113898235904;0.012525076807426483;0.00015687754903193277;0.007687887779555515;2.478291919989829;0.20213051499479182;1
0.023657890351191237;0.553229873847922;0.0005596957758689874;0.0254919955134087;0.010408728585846698;1.157544365073779;0.00010834163077382221;0.008157438564290853;0.014099631705878326;1.965386867898027;0.012745997756704402;0.034669113898235904;0.012498193353952632;0.00015620483711278573;0.00799176639384093;2.061906149227408;0.20044893560322002;1
0.011511548420839495;1.0365383020071472;0.0001325157470453323;0.0107066381156318;0.009822856799259535;2.0279289907847526;9.648851569875928e-05;0.0020393596410728243;0.012650812115700811;2.651045939412011;0.007137758743754503;0.0331395941674314;0.012754471212142099;0.00016267653590136153;0.00799176639384093;2.7410050474109062;0.20817038397405715;1
0.035604205718846024;4.51880766798642;0.0012676594648699077;0.0107066381156318;0.005945703981692021;3.5787197231832812;3.535139583790835e-05;0.0020393596410728243;0.006026040304717999;-2.0520657570315017;0.009177118384827099;0.014275517487508903;0.012960287673186776;0.0001679690565717571;0.00799176639384093;2.8058579573956997;0.21119153107489236;1
0.03478812220619716;3.2805921009576173;0.0012102134466333082;0.0224329560517997;0.006825002765649613;3.7643494897957646;4.658066275112487e-05;0.004078719282145649;0.009806966483976413;1.0789262235156016;0.007137758743754503;0.026511675333945106;0.01219420709321414;0.00014869868663219403;0.01753703740095587;-1.5400086114458358;0.18421938850416397;1
0.0327124983294182;1.6559633143798596;0.0010701075469521887;0.0249821556031404;0.011679674569818535;1.6686496133253605;0.0001364147980568658;0.004078719282145649;0.02922143342695437;3.118515738481939;0.014275517487508903;0.0754563067196899;0.019996606594565453;0.0003998642752978186;0.01753703740095587;0.8808023434160978;0.3253546033548411;1
0.029003573209205415;2.74298428558483;0.0008412072589017381;0.0224329560517997;0.014010860844146116;-0.07891051422005428;0.00019630422159402683;0.016314877128581595;0.03171679619658564;2.3039951525348976;0.026511675333945106;0.078515346181299;0.021189187953820056;0.00044898168614231293;0.020224651251505535;0.9066836942010426;0.32921129180203534;1
0.03615624182830804;1.3185851226309235;0.001307273823147092;0.0224329560517997;0.013904709375792803;0.3618045774260897;0.0001933409428252603;0.014785357397776644;0.041325347464381414;-2.918151553692935;0.0754563067196899;0.0876924645661262;0.025785819189775405;0.0006649084712877896;0.04488251566668303;-3.206637371402909;0.4338715641364916;1
0.028900323770113437;0.6158644204631495;0.0008352287140173837;0.0224329560517997;0.01588705664411423;-2.7959571125990395;0.00025239856881329413;0.028551034975017653;0.042808340021787135;-3.1771142296665196;0.0754563067196899;0.0876924645661262;0.02213212258216605;0.0004898308499920244;0.04219490181613337;-2.95913895004138;0.41659100943713945;1
0.035910974996902205;-1.7075583525659621;0.0012895981252281352;0.0530233506678901;0.01805582044414084;-2.5941754855336554;0.00032601265191105425;0.030590394616090477;0.05514479000699465;1.7586790004663264;0.0173345569491179;0.1549913327215254;0.026599956291697497;0.0007075576747202173;0.04488251566668303;-2.361210756373527;0.4724873785151953;1
0.046443029827742316;0.44046435846776194;0.0021569550195805623;0.037728153359844904;0.0195156168953644;-2.2407243629602243;0.00038085930280663246;0.030590394616090477;0.06101231008355334;-0.040281367269336954;0.06627918833486271;0.1549913327215254;0.028039807457908777;0.0007862308022765967;0.038481382332735826;-1.5079842560059429;0.3994575215657425;1
0.04580394489873302;1.1000028677272933;0.00209800136828617;0.030590394616090505;0.019359152440864787;0.5813659891426646;0.00037477678322864097;0.022942795962068274;0.036969546222664004;-2.390540538780909;0.05404303048842661;0.0846334251045171;0.027808047656413364;0.0007732875144613568;0.038481382332735826;-1.5042112983733251;0.4029456771601944;1
0.045533014299512786;0.8857243747290001;0.0020732553911996356;0.030590394616090505;0.018953431523851413;3.5812985228731478;0.00035923256652932445;0.011216478025899868;0.03408385617927976;-0.1424592274232701;0.03670847353930871;0.0846334251045171;0.026922337143846186;0.00072481223728692;0.038481382332735826;-1.7282102248282432;0.38708003875326713;1
0.03304454921188636;0.6701231033937821;0.0010919422326167796;0.030590394616090505;0.019727576594653122;-0.7276512737393297;0.00038917727829790565;0.027531355154481574;0.018898493925615104;2.9458248317150577;0.008157438564290902;0.0499643112062813;0.02505232404249955;0.000627618939930401;0.020107616222410238;0.9010878892242017;0.3421180599179343;1
0.04255621240003949;1.8756312487820044;0.001811031213837275;0.021413276231263302;0.033638617553252176;2.743823229728328;0.0011315565908939654;0.027531355154481574;0.033421551935603436;0.5379886288995278;0.03670847353930871;0.078515346181299;0.023209913989953004;0.0005387001074210161;0.0013180740443609062;2.057473808163093;0.3356592097769262;1
0.024603671806812614;1.1932498544652586;0.0006053406663773459;0.021413276231263302;0.0322322065465571;3.1310558855410897;0.0010389151388599184;0.01835423676965431;0.03257075067016648;-1.033290881376831;0.04180687264199041;0.078515346181299;0.01892734645420128;0.0003582444437973657;0.03331565114797707;-3.294334112823245;0.33539559269440317;1
0.07287893574455052;3.1416715630801875;0.005311339275258323;0.0316100744366268;0.029412063019997874;3.782659948224861;0.0008650694510923264;0.016314877128581706;0.034873944306855545;-1.308170441898523;0.044865912103599505;0.0846334251045171;0.05424062517131765;0.0029420454189753777;0.03331565114797707;3.1364294981312617;0.7154959809541431;1
0.07859674594591724;-1.6407958676460173;0.006177448473287058;0.1080860609768532;0.030282945661094095;-1.918120536196336;0.0009170567979127776;0.04282655246252687;0.05988568387404525;-0.5361908195893245;0.078515346181299;0.14479453451616192;0.052360420499006174;0.0027416136348327458;0.05675097539128661;-0.9686393855696037;0.5561488047703225;1
0.08154538334238934;-1.9100087000056998;0.006649649544457228;0.1238910981951667;0.032712498329418215;-2.264907076370362;0.0010701075469521895;0.0509839910268175;0.05272543393730266;0.9265383905887651;0.0336494340776995;0.14479453451616192;0.05988298116409151;0.003585971433098939;0.08977487718042154;-1.7072952665075423;0.6974751685251367;1
0.06938844383922561;-1.0649955877133703;0.004814756138429368;0.07647598654022639;0.021602116143958745;3.8511520434645923;0.000466651421897083;0.010451718160497725;0.056009342752019;-0.5324261708226885;0.0627103089629855;0.14479453451616192;0.06235959743497609;0.0038887193922522772;0.08977487718042154;-1.884919591369826;0.7686566958117899;1
0.07000939273329988;-1.1756749070917667;0.0049013150708854215;0.0815743856429082;0.019862501810791768;3.9226713018009014;0.00039451897818370624;0.005098399102682061;0.05544963173302958;1.8674340100657443;0.0356887937187723;0.14479453451616192;0.061682854835497646;0.003804774580657075;0.0858595857268992;-1.844117390224871;0.7530465293833368;1
0.044590739623473735;2.3003658334981956;0.0019883340601684306;0.009686958295095301;0.0197595033201318;3.922115342424135;0.0003904379714582996;0.0040787192821454266;0.0236364553731306;1.9780830201470607;0.0025491995513408014;0.06678902824513111;0.03926465290483254;0.0015417129677369745;0.005464756048464303;4.43353537005265;0.6849290044316043;1
0.022033697789585704;4.4048026856059295;0.0004854838382827939;0.008157438564290801;0.004988881867742713;3.252547907477729;2.4888942290292028e-05;0.0012745997756704597;0.01525520757124457;4.908779680435916;0.0010196798205363011;0.0356887937187723;0.007119265759731609;5.068394495768688e-05;0.004381925347084696;3.3380214877979433;0.17477311113649235;1
0.0037395984135603745;3.6705545804893873;1.3984596294703271e-05;0.0010196798205363011;0.001971307732148661;1.9541727721162907;3.886054174829096e-06;0.0012745997756704597;0.0011626138728460308;-2.507396461558509;0.0020393596410726994;0.0025491995513408014;0.0021611442433528668;4.670544440577235e-06;0.0017987125576225393;1.5252963997204034;0.04902212933295517;1
0.007285539177280123;0.3522549477617183;5.307908110368352e-05;0.0071377587437545;0.0019877219016639688;4.168975069251803;3.951038358354625e-06;0.0;0.02748789003704095;4.980964049714847;0.0020393596410726994;0.062200469052717394;0.024588844897896662;0.0006046112934128187;0.0017987125576225393;4.8893103454328966;0.4507081340830616;1
0.007927969620648694;-2.3579666151506564;6.285270230592858e-05;0.0112164780258999;0.012206380953723202;4.973374583452838;0.00014899573598741654;0.0010196798205366342;0.031483182089470325;3.5728036710807416;0.0020393596410726994;0.0836137452839808;0.02508058543589384;0.0006290357658071703;0.0017987125576225393;4.699604351275791;0.4651873502619694;1
0.007596443573851117;-2.3827611395180504;5.770595497070393e-05;0.0112164780258999;0.013857895192082763;3.616326860836677;0.00019204125915475058;0.0010196798205366342;0.037783918947568704;2.0191943214876296;0.023452635872336102;0.09941878250229419;0.02803695920716387;0.0007860710815841708;0.007901970746444442;3.753978317025369;0.5594410442219735;1
0.03614761368313606;4.252107533888108;0.0013066499749852453;0.0152951973080453;0.013981145305192271;0.7586294703485971;0.0001954724240448999;0.011216478025899868;0.0382678921889529;2.5630937263443214;0.023452635872336102;0.09941878250229419;0.02865193190769829;0.0008209332020433795;0.029961940740642033;0.18757451038254538;0.5220095177219415;1
0.03638842842878649;-1.2786118036277223;0.0013241177235169168;0.045885591924135695;0.016019036921917397;-0.33235462542913297;0.0002566095439057528;0.02039359641072691;0.03832355065784745;2.315766073335235;0.0254919955134088;0.09941878250229419;0.028248665968504862;0.0007979871290001647;0.029961940740642033;0.14558727635914437;0.5025779991655023;1
0.03497219354427111;-1.3209716607581872;0.0012230543212979582;0.045885591924135695;0.023009544541765407;-0.4895461605438622;0.0005294391400194863;0.022432956051799735;0.01651912780568504;-0.6378554864308796;0.020393596410726997;0.0412970327317222;0.015578356978778789;0.00024268520615826578;0.01450081255311314;-0.054122467308094;0.3372523677248143;0
0.07387437796573179;2.1582381457695803;0.005457423719823799;0.0428265524625267;0.015704393439933455;1.7098761833533018;0.0002466279733162249;0.006118078923218029;0.03501156452773064;2.127264635850622;0.0163148771285817;0.09534006322014879;0.06734665606984075;0.004535572083789417;0.019015091154632936;4.107372298153891;0.8659049738477994;0
0.06001402659146393;2.588494525012121;0.00360168338772094;0.040787192821454106;0.02280073394004069;-0.2375800000000036;0.0005198734682045235;0.022432956051799735;0.027450038339055894;1.4866078299382366;0.0224329560517997;0.0703579076170083;0.06090060512986279;0.00370888370518347;0.04644023498718979;2.867538938302708;0.6601988397271641;1
0.06402744896428086;-1.5804108084144122;0.004099514220873591;0.09279086366880801;0.023032127278128166;1.475429271093945;0.0005304788869558956;0.018354236769654197;0.026407541919867307;-2.629379935896518;0.0448659121035994;0.0591414295911084;0.06402466369617071;0.00409915756140776;0.10060911034547781;-1.8307107378568286;0.5859016276818404;1
0.07508195482153199;-1.2539489074945773;0.005637299939822571;0.0978892627714897;0.023303644025912448;0.08762440418673378;0.0005430598248864449;0.023452635872336036;0.023640304108024174;-0.4634981070845505;0.027531355154481504;0.0591414295911084;0.07013286253634052;0.004918618407541235;0.09697919554812949;-1.4751860701003896;0.490959472909649;1
0.05217632991692507;-1.0896392484949604;0.0027223694035998103;0.062200469052717394;0.01903007771795144;1.7756703347847171;0.00036214385795127187;0.01223615784643628;0.013962540978514572;-0.20501333333302676;0.014275517487508896;0.0367084735393087;0.04891348169044834;0.0023925286910818247;0.06525060710861832;-1.5364775972415323;0.3072587371313919;1
0.048542543011093134;2.115849477682275;0.0023563784819838267;0.021413276231263406;0.026324728547824167;0.3328615349636455;0.0006929913331166286;0.023452635872336036;0.010448608918078625;1.179591836737038;0.008157438564290798;0.027531355154481504;0.04465927166466766;0.0019944505456185877;0.027029922165856618;1.3894773631928057;0.29468536369875764;1
0.04524322925818288;2.632031878984654;0.0020469497937084954;0.021413276231263406;0.01924738510662012;-0.4140561509051466;0.000370461833442542;0.023452635872336036;0.009662777804003077;0.7192672655478513;0.008157438564290798;0.02549199551340879;0.036987490936380804;0.0013680744857688522;0.027029922165856618;2.7759204977032135;0.23460110890663635;1
0.04584251855941131;0.6721421152677157;0.0021015365078699702;0.0418068726419904;0.022379591132731542;1.607015651827157;0.0005008460992682363;0.01733455694911812;0.014044215671827264;1.177446618953951;0.008157438564290798;0.0387478331803814;0.03690997102137296;0.0013623459607985916;0.03248886234341283;1.9014361224316;0.23116277874508515;1
0.054405437031323244;1.5643402582289454;0.002959951578569278;0.04486591210359951;0.022271310603867337;1.5851667087934562;0.0004960112760139337;0.01733455694911812;0.02834453135550616;1.2595736389229775;0.021413276231263406;0.07545630671969;0.05652261113548461;0.003194805569573209;0.028197531968787937;3.6085597971166954;0.46978839870363065;1
0.05826959419963869;-1.8442294257052143;0.0033953456081905666;0.08514326501478542;0.022316782531089287;3.611210779677554;0.000498038782539932;0.006627918833486568;0.02816975083076501;1.1065488492674913;0.021413276231263406;0.07545630671969;0.05879737594611802;0.003457131418149138;0.07742336683005217;-0.5455590393932326;0.5333755523183843;1
0.057727297862777346;0.2758729748536967;0.0033324409185378177;0.0672988681553992;0.006412643084951637;1.8413616523435674;4.112199133497804e-05;0.0040787192821452045;0.030914970223941626;-0.033324471046442504;0.0367084735393087;0.07545630671969;0.05265253763010243;0.0027722897188893524;0.04922583486126424;0.144696095481932;0.5371074954515979;0
0.06050534667076485;3.669974953016973;0.0036608969757494347;0.035178953808504096;0.007582743934976359;1.4318618811086938;5.7498005583420754e-05;0.006627918833486568;0.028390347393159786;0.7793774182312406;0.026511675333945203;0.07341694707861729;0.04982966915943987;0.0024829959285392333;0.016390573822151894;1.7858357000682012;0.559766798732148;0
0.015566406892090793;0.6158183498066011;0.00024231302353013172;0.0163148771285816;0.008512952570507487;2.3759877853228986;7.247036146771003e-05;0.005098399102682061;0.028529176325667083;2.5935425260888585;0.018354236769654295;0.07341694707861729;0.028618841071154352;0.0008190380642559912;0.00416997110021719;4.154235757323775;0.392562331594899;0
0.014291895803481105;1.4712408291135344;0.0002042582856575608;0.008157438564290798;0.010257796545291544;1.1182216563295124;0.00010522238996459512;0.009177118384827265;0.012034814009438718;-1.2523029463850814;0.017334556949117993;0.02855103497501779;0.008943011055496818;7.99774467387383e-05;0.00416997110021719;1.6704600367007565;0.10831891858346826;0
