acc_X_std;acc_X_kurt;acc_X_var;acc_X_iqr;acc_Y_std;acc_Y_kurt;acc_Y_var;acc_Y_iqr;acc_Z_std;acc_Z_kurt;acc_Z_var;acc_Z_iqr;acc_Z_range;acc_std;acc_var;acc_iqr;acc_kurt;acc_cv;acc_skew;hole
3.655237297801606;2.1966336195303326;13.360759703239989;0.6157610785556527;0.6508841012553611;-0.19911983254621526;0.42365011326699925;0.7828799436257854;0.03758319056588578;3.213174211256463;0.001412496213111686;0.0254919955134087;0.0907515040277352;3.0714383657144517;9.433733634382662;0.947850813253825;3.2784974772390996;0.6077467291011038;1.6160066298507196;0
3.655237297801606;2.1966336195303326;13.360759703239989;0.6157610785556527;0.6508841012553611;-0.19911983254621526;0.42365011326699925;0.7828799436257854;0.03758319056588578;3.213174211256463;0.001412496213111686;0.0254919955134087;0.0907515040277352;3.0714383657144517;9.433733634382662;0.947850813253825;3.2784974772390996;0.6077467291011038;1.6160066298507196;0
3.655237297801606;2.1966336195303326;13.360759703239989;0.6157610785556527;0.6508841012553611;-0.19911983254621526;0.42365011326699925;0.7828799436257854;0.03758319056588578;3.213174211256463;0.001412496213111686;0.0254919955134087;0.0907515040277352;3.0714383657144517;9.433733634382662;0.947850813253825;3.2784974772390996;0.6077467291011038;1.6160066298507196;1
3.7816041380471086;1.7373414967644518;14.300529856895016;2.0867373683627135;0.39514078774610756;0.7796869896201386;0.15613624214061445;0.44965569660215854;0.042063492029160765;-2.786032173841597;0.001769337361687271;0.0744366268991536;0.0907515040277352;3.1184240124544806;9.724568321452704;1.3374370633311647;3.159564873207683;0.626706048970116;1.6311258228133827;1
3.813779832988786;0.9741724981804273;14.544916614511973;2.950276253489068;0.18529778609097824;2.563986849409132;0.034335269530217934;0.1458510616284694;0.07511449094830959;1.069424696446634;0.005642186750423683;0.0744366268991536;0.18864076679922492;3.116900784313274;9.715070499252704;2.3032289187775588;1.9264990501832504;0.5994418321326208;1.279010056057065;1
2.9757445963463445;2.8527903834336192;8.855055902684468;1.450514262982448;0.13952362524449277;0.9791526293273721;0.019466842001365663;0.1458510616284694;0.07971261805876755;-1.5144649645996229;0.006354101477782955;0.116243499541144;0.18864076679922492;2.713562182703001;7.363419719395876;1.383014568219397;3.271925790893112;0.4825864422854134;1.735144596411045;1
3.3015926126862913;2.012369888944079;10.900513780144692;2.950276253489068;0.27793674744239544;0.2978581160727565;0.07724883557885792;0.3369972518540578;0.08004194320957764;-2.0026414323409845;0.0064067126727652525;0.116243499541144;0.18864076679922492;3.0333276406473426;9.201076575515174;2.3032289187775588;2.3718565662392392;0.5821346273487761;1.529026475113302;1
1.919314445733282;-1.9285682036487717;3.683767941600456;2.950276253489068;0.4217787995463255;-0.7512788908302189;0.17789735574673943;0.5368992848286323;0.06708997307880482;-0.4784699940625015;0.004501064487714755;0.0703579076170081;0.1753849291322524;1.5934391290131638;2.5390482578702303;2.3032289187775588;-1.8848497143184655;0.3577515176872854;0.20068520590805947;1
1.7838594112547432;-1.1609536196469143;3.182154399122119;2.2105359383064322;0.5441752819159463;-1.0669508403253545;0.29612673744829965;0.6969525285204003;0.06875470490361892;-0.3898653755033858;0.0047272094463837195;0.0703579076170081;0.18048332823493413;1.6443400895966311;2.703854330254657;2.570364556533035;-2.1813206021132445;0.373661714331409;0.2253541652708871;1
2.562949775488954;0.771832652144918;6.568711551678881;1.849460332987065;0.6412094393301393;-1.18592783553051;0.41114954508607154;0.822371571545798;0.0470414009651006;-0.19154553090617435;0.0022128934047593676;0.0499643112062811;0.1213418986438257;2.051475978958251;4.208553692242713;1.6440665891061328;0.5949483103934247;0.5921654584180238;0.5217297464928249;1
2.9380799834038407;0.03453337508892673;8.632313988878312;3.586175695925816;0.7118121750306288;-1.2375002999460765;0.5066765725218345;0.9131564139048227;0.036252449953362215;1.6879037063371207;0.001314240127621032;0.0142755174875089;0.10094830223309871;2.277704207477247;5.1879364567595525;2.1108797006193196;1.6770016961407326;0.817928697207486;1.280791501112826;0
3.009691965853015;-1.3130456809652518;9.058245729320186;4.084028086535137;0.7555903937164814;-1.2603241337815068;0.5709168430766274;0.9693070555974774;0.027414030817018837;-1.7932395814224453;0.0007515290856364586;0.0356887937187723;0.0652595085143265;2.2886729507204695;5.2380238753595405;2.430601601698153;0.6029488442495889;0.7784575638295985;0.930086038756595;0
2.0333310032441863;-3.1400801610561953;4.134434968754009;3.586175695925816;0.7023429361084811;-1.6129159313203207;0.49328559990148196;0.990823496623797;0.027414030817018837;-1.7932395814224016;0.0007515290856364586;0.0356887937187723;0.0652595085143265;1.1826286929079548;1.3986106252891777;2.1108797006193196;-2.9425477688711825;0.5509009988335175;-0.3086774966081117;0
2.7938388367425433;-1.5903080194238584;7.8055354456909285;4.084028086535137;0.610902042551423;-0.9295532585462212;0.3732013055935006;0.7434588793692949;0.026219852676048004;-2.121748353513316;0.0006874806743536617;0.0356887937187723;0.0616906291424493;2.0288284834208494;4.116145015139743;2.430601601698153;0.2432959880600206;0.7541572873957338;0.9090706847739465;0
2.8205443504464403;-0.04619787650624474;7.955470432835331;3.285990424651862;0.46442758215223573;-0.1602726049995944;0.21569297906377166;0.5473738975586171;0.029182267359919623;-2.329734698952109;0.0008516047282658302;0.0474151116549404;0.0662791883348629;2.2605735448166917;5.110192751525103;3.281189294483614;-1.8394187521327723;0.6030411226360599;-0.09234378484612649;0
1.5864211244242148;-1.955980029105742;2.51673198401939;2.3441969645473995;0.3527689804430558;-1.0112006296398484;0.12444595356283311;0.41682242903147726;0.024899821247967104;1.5101743396708034;0.0006200010981807141;0.020393596410727008;0.0642398286937902;1.6051116658399287;2.576383459815431;2.3976555661557915;-2.106950874836123;0.34815571905253323;-0.526434344993213;1
1.4898888875006346;0.011710313808917997;2.219768897097879;1.6875291111705986;0.346320522584353;-0.3111686980230495;0.11993790436309935;0.3511231832776751;0.027045553604312926;3.435055532571669;0.0007314619697637638;0.0168247170388498;0.0662791883348629;1.4762793720055365;2.1794007842090615;1.477129744153685;0.7622978912733203;0.3079153822579773;-1.0666703118313392;1
1.0914974934093384;-2.2160766602768356;1.1913667781188688;1.6875291111705986;0.4879513827022376;0.899013750587514;0.23809655188102555;0.49507448732354353;0.013409855802802025;0.2734636218011654;0.00017982423265194313;0.012236157846436294;0.035178953808504096;0.9024773520944861;0.814465371043475;1.477129744153685;-2.3259427012518366;0.1759240502860372;0.11183951202593911;0
1.403291181059692;-0.3150932213312352;1.9692261388399055;1.4228510590563737;0.42025492863518044;0.3987498877345554;0.1766142050421606;0.3831501307901366;0.013263679038653227;0.294921449302862;0.000175925181640409;0.012236157846436294;0.03466911389823589;1.216278664163861;1.479333788900226;0.9840109269400159;0.25385591577600053;0.266194258133878;0.16968131145202878;0
1.1395945528036024;-1.3386241007494846;1.2986757447796426;1.5496565527513626;0.34442141801225656;1.6522095333973918;0.11862611318557356;0.299394989393277;0.016479742103262456;-0.2460636384287452;0.0002715818997900413;0.018354236769654295;0.04180687264199039;1.0396494762552566;1.0808710334778295;1.3268032068473863;-1.658643515387696;0.2705404951984986;-0.047586316445062095;0
1.38449520390586;0.4027682035794899;1.9168269696383287;1.3479919986092161;0.3702309344263398;1.1878978631283985;0.13707094480620072;0.299394989393277;0.025589697547067965;-0.21572727297458982;0.0006548326205504163;0.025491995513408798;0.0672988681553992;1.2463331486674951;1.5533463174674322;1.5637812636275341;-0.5448812673004563;0.40674471995301426;-0.5755210332253607;0
1.244446717617175;-1.247650684478818;1.5486476329881609;1.5166586204284975;0.39172753891357176;1.0768096042603215;0.1534504647432839;0.36349254214713334;0.024444683764660934;1.0083964264995207;0.0005975425643542778;0.015805037218313396;0.0672988681553992;1.1569656300107365;1.3385694690261405;1.3640146145833814;-0.570171273101438;0.4580224590691907;0.4795090172846115;0
0.9085065349468388;-2.841464882532535;0.8253841240411116;1.4616355936661383;0.20419110491840264;-2.15385623521408;0.04169400732779812;0.29757536675719054;0.017373500960933166;1.9527266624887218;0.00030183853563954565;0.015805037218313396;0.042826552462526805;0.7168769700817076;0.5139125902335295;1.000446631870916;-2.049153070578646;0.350476652178164;0.45000304193905266;0
0.948142320432878;1.5454921856090909;0.8989738597958423;0.4869169991271558;0.193216907933757;-2.2685774046181657;0.03733277351148193;0.29757536675719054;0.01724962548946667;1.7004918650423104;0.0002975495795268583;0.015805037218313396;0.042826552462526805;0.4988687372956923;0.24887001705099848;0.16138965040316466;2.8429436561614616;0.27945874274494026;1.3840792178789276;0
0.7453993043786676;1.0468736413331914;0.5556201229682016;0.4869169991271558;0.22641928990762866;-2.237718035915331;0.05126569484227479;0.3251463381216686;0.037849218340467505;0.9489375000914926;0.0014325633289843818;0.0412970327317222;0.0897318242071989;0.4000185059322097;0.1600148050882373;0.16138965040316466;2.083093878693248;0.23039555410926257;0.9202669291842611;0
0.7916878335183324;-0.7450267831646139;0.6267696257409507;0.8654154238895533;0.1913337445741423;2.137821225827183;0.036608601812763125;0.09860532308111658;0.037259496903384995;4.155047978066205;0.0013882701094933558;0.0168247170388498;0.0897318242071989;0.301036882095578;0.09062320438182692;0.14554074598619415;3.624159881893469;0.1629980556098959;1.8336816105158145;0
1.525768484263136;1.2278695398633392;2.327969467570628;1.1579888868290888;0.09850823800810257;-2.73280542331268;0.009703872955460983;0.17171962386646245;0.03794952540489635;-1.6212691749887966;0.0014401664784568736;0.0502192311614153;0.0897318242071989;0.5643641093518533;0.3185068479245106;0.5945575656541817;0.4931718563038186;0.26522629385033963;1.25031733447875;0
1.508367035518522;0.43075656772970206;2.275171113838934;1.2510279457376594;0.08449715406967326;-1.1271819218678871;0.007139769045874101;0.11287750076889136;0.034194450049320806;-1.4329385719325234;0.0011692604141754959;0.0448659121035994;0.0767309064953604;0.5286512354705779;0.27947212876456845;0.547939327531612;0.5443106769587646;0.23982968195869386;0.920680551169723;0
1.5341307404034643;-0.0926789543150548;2.3535571286508814;1.3340642263620748;0.04867692709321237;3.599291038047788;0.0023694432312379122;0.026985851801249794;0.030620120834295467;-1.1120851401823184;0.0009375917999068554;0.0448659121035994;0.07137758743754449;0.5011687975708444;0.251170163658606;0.547939327531612;0.8948902247217051;0.2249839008433327;1.1094374099580107;0
1.1840803500869452;-0.009380535829359124;1.4020462754620229;1.3340642263620748;0.02038219713177187;-1.189551164910463;0.00041543395991840935;0.026985851801249794;0.03199016914867134;0.5029928124372667;0.0010233709221606035;0.023962475782604298;0.0856531049250535;0.5251248807677028;0.27575614040129404;0.3502162155727271;3.2199985627906003;0.2482812469526676;1.8280507656501463;0
1.143658931342789;0.14592977771046498;1.3079557512401303;1.3340642263620748;0.016159690712995778;0.0798903778349036;0.00026113560393968197;0.014793623182182358;0.04000538053646813;-0.20121600746044285;0.001600430471867623;0.0448659121035994;0.1019679820536351;0.5269609184629154;0.27768780958727934;0.3502162155727271;3.1929450413545575;0.24945026488669697;1.8231399800011994;0
0.5897677372122611;1.0800531064560286;0.3478259838564707;0.49845020427689035;0.049193085401858426;3.2767285412594873;0.0024199596513545365;0.020796785803505635;0.06231153171470191;-0.16578252559316434;0.0038827269846323023;0.0647496686040584;0.1621290914652799;0.17081298846089774;0.02917707702694278;0.01629054402623975;4.2839809316315325;0.09215237612057986;1.9946796775220645;0
0.6095271870977896;1.0484891090864608;0.3715233918113439;0.6222639699285499;0.15503583762145498;3.4066298661589633;0.024036110946986152;0.10057763631336236;0.07038930379484662;-2.215131098644111;0.0049546540887232095;0.11267462016926699;0.1621290914652799;0.04764208127516101;0.0022697679082290473;0.01629054402623975;1.9831463566806953;0.026565073805214622;-0.7615130627621468;0
0.6162445917803268;1.339174996489349;0.3797573968985015;0.6222639699285499;0.27202225545387343;-0.36050340706496087;0.07399610746221237;0.34521093503940126;0.0641624968916017;2.415941748541922;0.004116826007364797;0.047924951565208596;0.1621290914652799;0.290326064796542;0.08428922390024589;0.08480655791368275;4.45491793326281;0.17420144420789008;-2.0914546338326545;1
1.6012513542790867;2.9370539128336097;2.564005899580609;0.35318056758363614;0.3941802952381608;-1.1371059763399742;0.1553781051540436;0.531374512323032;0.06723317489185177;-0.7119903436403483;0.004520299806038327;0.08769246456612628;0.1621290914652799;0.7822551476862833;0.611923116081689;0.1321286353495834;3.1410894495026844;0.39926429486886494;1.4708846358887715;1
1.7611180297527345;-1.6579000982272742;3.101536714720153;2.2613913710059976;0.4114521369190936;-1.7980881334243943;0.16929286097528856;0.5983807936698398;0.05180585661492193;-2.6555465061060217;0.0026838467796058505;0.08769246456612628;0.11624349954114409;0.7927041623699104;0.6283798890385812;0.6240864471781837;0.8038460613249931;0.3834866028497278;0.7786132213808286;0
2.1601305686348833;-2.045809081238655;4.666164073550865;3.1808573941886027;0.33693713101378986;-1.2376210027809418;0.11352663025580378;0.46279275979567824;0.046266391747489075;-1.7543036242967094;0.0021405790053321255;0.0678087080656674;0.10400734169470789;1.1234827217257546;1.2622134260163094;1.4138474117381923;-1.2443990481266691;0.4457535498526612;0.20867446471162313;0
1.6768787570724024;1.4085992826648617;2.8119223659206853;1.6965784218495763;0.28697730826700923;0.9382890952061018;0.08235597546017806;0.20042054189139202;0.036360558535189276;2.3066782370179957;0.0013220902169909258;0.016314877128581602;0.098399102681758;1.2319140848936196;1.5176123125592844;1.642487927059162;-0.5820312120836219;0.41497636877610744;-0.8279396453288074;0
1.1742508683975257;0.43630177190559394;1.3788651019323432;0.9161399755953799;0.3866552329996751;1.607506153946055;0.14950226920603304;0.3191211437835664;0.021223062287342085;-2.2920103692676954;0.0004504183728524018;0.0305903946160906;0.0499643112062812;1.1312043139488261;1.2796231998964345;0.8272747623079213;0.5883365294303017;0.2961342525427459;0.19108594253940545;0
1.154814121952742;0.8949633267678555;1.3335956562614821;0.7474991982232941;0.5065917147555694;-1.945592710192096;0.2566351654589882;0.7789835996668981;0.024903996618374277;-1.353060497495547;0.0006202090475679973;0.0336494340776996;0.0601611094116446;1.1200683663279691;1.2545531452486058;0.7299620375436899;0.8580941374609475;0.2917326214040066;0.13214012600727337;0
0.9388983345033236;1.2346066220565142;0.8815300825331149;0.7474991982232941;0.6439306732146738;-1.2809307354258845;0.41464671190670305;0.8432305049242055;0.023644701895078866;0.7375025893112396;0.0005590719277071461;0.023452635872336;0.0601611094116446;0.8937840375727262;0.7988499058198043;0.7299620375436899;1.4122136513487102;0.22385522012981426;1.1177854918194794;0
0.9594911959396338;1.74814591091308;0.9206233550856687;0.7474991982232941;0.6716528062448391;-1.0525042087400653;0.4511174921365674;0.8246202852516962;0.01198720261828143;-1.6456669218251783;0.00014369302661173318;0.016314877128581602;0.029570714795554;0.9006079811781583;0.811094735761798;0.7299620375436899;1.9144538588300375;0.2283045992349991;1.3504533719986083;0
1.0271235118720976;3.8909771677166156;1.0549827086404708;0.5481844835143725;0.6500262249356474;-1.4334117029298585;0.42253409310408885;0.8627304705314514;0.013380748202161237;-1.0787495396730666;0.00017904442244964116;0.0168247170388496;0.033649434077699505;0.9220276736779458;0.8501350310279645;0.38367065984598847;3.824948765226741;0.24188238160651934;1.910499220515002;0
0.26819908065679426;-3.0124380227401986;0.07193074686514962;0.4743430845383729;0.5911027440384667;-1.1047921312504283;0.3494024540098052;0.7956743957814578;0.01698769443451157;-0.13489156947283357;0.0002885817622003354;0.017334556949117903;0.0443560721933312;0.323617573466931;0.10472833385662447;0.38367065984598847;-1.2216033439088616;0.09205531626440504;0.15006824342003366;0
0.649746499737175;2.054963203525103;0.42217051392071075;0.5481844835143725;0.5638250255854454;-0.4440857434075802;0.31789865947642826;0.5838720671246884;0.02060787801245628;-1.2432940345268406;0.0004246846361762789;0.028041195064749502;0.0499643112062812;0.7808500028266451;0.6097267269143716;0.49992709227131815;2.308398036088324;0.20157961552860273;1.3688821990127742;0
1.0910498994092266;-0.028458258058441526;1.1903898830008837;1.1057247643912724;0.4738070615299999;-1.2676821589621479;0.22449313155569312;0.6674640758179395;0.02796693821128276;-1.3078216331397872;0.0007821496329137078;0.033649434077699505;0.0703579076170082;1.1450638043127759;1.3111711159472472;1.4072642656711096;-0.8526093755979076;0.2553206580182515;0.9160058888666238;0
1.354224863845369;-2.482331735068589;1.8339249818570083;2.234751425772334;0.3119507175992626;-2.5124518950256203;0.09731325021069487;0.5231709925492325;0.03132093923403218;-2.2953418208257736;0.0009810012345019365;0.0509839910268174;0.0703579076170082;1.3363146053973523;1.7857367245982814;2.23767578314419;-2.5324560192666823;0.26575120505642064;-0.17227915751976203;0
1.0253599174693755;-0.02527233256955223;1.0513629603528045;1.1290266613810616;0.2331218590864614;-1.7118108073363192;0.05434580118392797;0.36042566533605536;0.028792190475872708;3.5139285229377513;0.0008289902323989351;0.0173345569491179;0.0703579076170082;0.9931190753519197;0.9862854978278519;1.0122271628943755;0.4617062597337463;0.1826523680523906;-0.8438872138235596;0
0.6776631255706793;-2.180909480019198;0.4592273117582223;1.1290266613810616;0.22123608179923326;-2.1315399520829756;0.04894540388987703;0.36042566533605536;0.014888722135979693;0.09742105466949269;0.0002216740468424117;0.0173345569491179;0.0367084735393086;0.6571331201576517;0.4318239376081307;1.0122271628943755;-2.2715640902637175;0.11656922525385045;0.3553105808193115;0
0.7825531354344053;-1.8880462081776226;0.6123894097782187;1.1370300636774147;0.24190664444492915;-1.7899013776098087;0.058518824626605376;0.34485212446803093;0.026140422464222476;-0.6483818549637306;0.0006833216866080271;0.0336494340776995;0.061180789232181;0.8094402162185356;0.6551934636319097;1.2373305028885877;-2.1392471437962044;0.14678016173993044;0.007893211398710643;0
0.7169744712573077;1.4918834105044365;0.5140523924346959;0.5362082274247681;0.260965891791667;0.32158023503687144;0.06810319667862007;0.22536171249855008;0.023666678572278693;-0.10016723427398351;0.0005601116746435554;0.0265116753339451;0.0581217497705719;0.7358632659776678;0.5414947462153199;0.5435603810762375;1.5558070279484302;0.13910038586786477;1.1965535513207033;0
0.3385675532725022;0.5728549763940194;0.11462798812892862;0.2598562978529042;0.2737338656351259;-1.407731146577382;0.07493022919554918;0.35737825702006676;0.021028655973570214;0.5744341458476766;0.00044220437205477026;0.021413276231263302;0.0509839910268175;0.3436644231484157;0.11810523573793333;0.24555109475107795;1.0797999631173845;0.0693315087359462;0.6335739111755544;0
0.2767836489099876;1.0538668430710025;0.07660918830392727;0.2598562978529042;0.30523217039742506;-1.8849468046119828;0.09316667784552274;0.4491313661556642;0.018931475615498156;1.2175898467985888;0.0003584007689802012;0.0193739165901906;0.0458855919241357;0.20188868423832831;0.04075904082348343;0.1989841685485345;1.0931999872078144;0.04152562042411823;-1.2411570902965658;0
0.45978574039632136;1.2110191409231217;0.21140292707179342;0.2590575106061834;0.2857880545143571;-0.8568046872063242;0.08167481210310115;0.3770391194178764;0.020322093473401692;4.0639727336065405;0.00041298748314167567;0.008157438564290801;0.0499643112062811;0.3671862450891089;0.13482573858263916;0.24555109475107795;1.1336836663446281;0.07368487276208797;0.6412092592609683;0
0.3078673294122943;3.0537677223033057;0.09478229251945812;0.08464203872793874;0.20766494045994968;-0.6490188582218105;0.043124727496234444;0.2491698272182068;0.004468013113125087;0.8902994791677005;1.996314117905773e-05;0.0030590394616090005;0.0122361578464362;0.27552756209550905;0.07591543747429459;0.05604252833933465;3.244083608723308;0.05431698835413863;1.5490622243524352;0
0.5842863395521899;1.6290408429600198;0.3413905265872969;0.28158216479640696;0.1525732336389054;0.7670987436322557;0.023278591623032013;0.1355139344572116;0.0047609330192433085;-0.4035855567703995;2.2666483213721203e-05;0.0050983991026817;0.0122361578464362;0.5793722664726938;0.3356722231577061;0.1989841685485345;2.120153509899012;0.1194152988180577;-0.9282292176611104;0
0.9824527742710073;-0.7639860492249646;0.9652134536727988;1.0596045359590134;0.08999260566191741;-1.6865453542957585;0.00809866907382137;0.1323348505297246;0.006505205631788444;-2.2265754698185547;4.231770031185208e-05;0.0101967982053635;0.0152951973080452;0.9661377602780729;0.933422171835131;1.0576481578690489;-0.8953467544311534;0.21378987048447973;-0.7311547004303431;0
1.2462670329230254;-2.1489273996095597;1.5531815173507615;1.9065098826680966;0.062246179480498626;-1.5628001882205684;0.0038745868599184483;0.08529701723804695;0.007745540538323045;0.2810509147596901;5.999339823080565e-05;0.007137758743754399;0.020393596410727;1.2017904060093514;1.4443001799761217;1.8527214978650566;-2.1799015464449076;0.29613132694356176;0.16725650477866838;0
1.107644873400943;-0.5185144379455527;1.226877165571391;1.3565885195603729;0.042725049809053645;-1.577990592364139;0.0018254298811861151;0.05865481751583146;0.010660409942845159;-0.7684516540003988;0.00011364434014951192;0.0122361578464362;0.0275313551544814;1.0520689147536901;1.1068490013910073;1.2463399887899858;-0.3190757764238299;0.30705946055310984;0.8460780639302726;0
0.634871828151254;1.1481290261164692;0.40306223818011533;0.5096831728512896;0.08346968152485892;1.8659907138335694;0.006967187733861374;0.045759076578136604;0.010333538134115156;1.3072267852691037;0.00010678201036921214;0.0071377587437545;0.0275313551544814;0.5897410552578853;0.34779451225668423;0.4417910466571868;1.455609413746971;0.19580488800114484;1.0352708051474684;0
0.46859468180924485;-0.5688502084594363;0.21958097581990743;0.5096831728512896;0.16790548710186615;0.48753319656780886;0.02819225259891494;0.16728485372160362;0.010413721979554976;3.533918769976303;0.00010844560546746642;0.0020393596410726994;0.0275313551544814;0.4011094639793628;0.16088880209381173;0.4417910466571868;-0.564967689685119;0.13793079294794838;-0.09372843635441906;0
0.6184463253872322;-1.9476237676554586;0.38247585738497025;0.8974028691653899;0.2819771901420218;-0.577398894382212;0.07951113576038993;0.3593588394088336;0.003272520961738272;4.069186539747733;1.0709393445016386e-05;0.0010196798205363011;0.008157438564290798;0.5210986342155719;0.2715437865813344;0.7271776674784434;-1.8073160555401355;0.17309232407342073;0.11382076608103107;0
0.7695787617234595;-0.557463079546487;0.5922514704958133;0.845551173187709;0.3151186151352915;-1.9699587369291638;0.09929974160478397;0.46414984018855376;0.007231823483837125;1.1508286266520997;5.2299270901378134e-05;0.007137758743754399;0.017334556949118;0.6748554738050583;0.45542991052464976;0.7316050609089189;-0.5710369719676862;0.2046642640944693;-0.30032720109641364;0
0.4838758052640064;1.2315780894853436;0.23413579491989067;0.27389922924835464;0.2583379242274159;-1.5298709296143673;0.06673848309413008;0.37885427831734386;0.009549125945502892;2.3589930947866726;9.118580632307648e-05;0.0020393596410726994;0.026511675333945103;0.43679012390712635;0.1907856123428028;0.22699095667170566;1.2733084912508954;0.12425396926688001;0.07655533198701549;0
0.29788950945679166;0.9605618764472782;0.08873815984440797;0.2765766145685715;0.1727293280875406;2.852157968782213;0.029835420781573245;0.12799524487339653;0.010660409942845164;1.030570485556949;0.00011364434014951203;0.0101967982053635;0.026511675333945103;0.2820252400395415;0.07953823601936098;0.27281134888637393;1.2536353135909597;0.0766418365323383;1.1629818860311265;0
0.2642466057276294;-1.2658610452807355;0.06982626863857325;0.33119999331577255;0.059504211547991195;3.8501813968839897;0.003540751191948089;0.03339461370182639;0.012008867560263052;1.6486230935210588;0.0001442129000799383;0.0101967982053635;0.029570714795554204;0.2610068301469881;0.0681245653833787;0.3164143253676728;-1.143809282887851;0.06889517877848361;0.1806554983591796;0
0.2921052211491101;-0.6546451793758467;0.08532546022257051;0.38929691085637685;0.06910929966791432;4.145737985572123;0.004776095300589582;0.03339461370182639;0.012180799966569292;0.620906543097893;0.00014837188782557446;0.0122361578464362;0.029570714795554204;0.2937689891457042;0.08630021898368886;0.38930265818487575;-0.7310276909039253;0.075449660258455;-0.777363271089012;0
0.4680971233847151;0.043297619111649276;0.21911491692104518;0.5029688689815011;0.0846697460340915;-3.202873944661127;0.007168965893477552;0.16218782376932395;0.007513871082672025;-2.9426248690007824;5.6458258647014865e-05;0.0122361578464362;0.016314877128581602;0.46261540745962315;0.21401301521903315;0.49842728353659327;-0.059049725289944156;0.12622832042702561;-0.6950639005208484;0
0.7271709961246755;-1.5472343441641243;0.5287776576049529;1.0035007406985361;0.12003972830755041;-1.714489860424121;0.014409536372150521;0.16361960321512825;0.010901517088532106;-0.8937432689680366;0.00011884307483155754;0.0122361578464362;0.027531355154481504;0.7077572522511247;0.5009203281140622;0.9796445030571599;-1.6136204933040783;0.20395831392853045;-0.664551555350308;0
0.7176595518291673;-1.9249530140224138;0.5150352323316413;1.0035007406985361;0.12956910482046563;0.1482674089155734;0.016788152923976812;0.11488982180685414;0.012633335060022437;-0.03970333902730161;0.00015960115473879214;0.012236157846436203;0.0326297542571633;0.698346645520885;0.4876880373102726;0.9796445030571599;-1.9044145603561116;0.207833684278908;0.05286292307201149;0
0.651286837942448;2.3990627243389633;0.42417454527707255;0.3766490430592304;0.1250456234418197;-0.7674330092255891;0.015636407941953367;0.17223729989068248;0.007715277837474229;-2.6567571175200655;5.9525512109421015e-05;0.011726317936168101;0.017334556949118;0.632217719815057;0.3996992452481499;0.3389455168810689;2.4237545917094216;0.20152129420137274;1.3428438381395291;0
0.2703844919960214;-0.706532735440535;0.07310777351194654;0.30254407695512064;0.21795792931261318;1.0980548605457419;0.047505658950242086;0.1817913953788568;0.006017407004719562;3.040724079844002;3.620918706044805e-05;0.0010196798205363983;0.0163148771285817;0.2545593606837975;0.0648004681117437;0.14710237221361933;1.2244058433942264;0.08869522722611765;-0.5210400619861671;0
0.41552753516986013;0.5883623551994303;0.17266313248433934;0.3234283226411767;0.23545755994361006;-2.7267136520425903;0.05544026253459873;0.39827263021070913;0.0051818398887621565;2.601067015022393;2.6851464632766595e-05;0.0010196798205363983;0.014275517487509;0.35276751246781085;0.12444491785272707;0.3579535576577837;-0.7577131707599065;0.1292837768234686;-0.0500315710607128;0
0.4580935708636177;1.2074024036690705;0.20984971966658034;0.4612174858451201;0.2731910118923424;-1.406558653977361;0.07463332897876197;0.3426692565435716;0.007860468287329366;-1.4890332592394;6.178696169611065e-05;0.009686958295095402;0.0193739165901907;0.41804300314068243;0.17475995247488063;0.3512066562520064;0.5405151304564662;0.14393041466458592;-0.7030748646497971;0
0.4134365467535046;0.23740809146080485;0.17092977819146282;0.35869996002130033;0.2313035480863826;0.03020436764046508;0.05350133135734951;0.2804556004137897;0.020875438551619538;3.3182349399503366;0.00043578393472244324;0.013765677577240704;0.0509839910268175;0.3899902300094294;0.15209237950280763;0.12763516931119456;1.6941109321132248;0.13872910168757954;0.1554975467447061;0
0.6827163113902726;0.1666121208244166;0.4661015618383396;0.6463969867715251;0.15982031709529737;-2.2618428083922915;0.025542533756441402;0.21615587168621997;0.022865055287487942;-2.902415131665142;0.0005228107532998803;0.0377281533598449;0.0499643112062811;0.5574907005304193;0.3107958811778976;0.55997949349113;-0.390680936717087;0.21252254151976427;0.05613487689947186;0
0.6657160867808901;0.7357216042365273;0.44317790819886155;0.48089127811223387;0.11559635434451358;0.8340807787536093;0.013362517137742344;0.08250595532083671;0.020602832008949534;-3.1058391135974275;0.0004244766867889955;0.0356887937187722;0.0412970327317221;0.5611165206630206;0.31485174976097413;0.45484702904108243;0.6804606571013802;0.22362695519822542;0.958970427392903;0
0.7740371514459616;-1.505595906428135;0.5991335118185785;1.1687676960759137;0.06719516961554153;0.780205806925475;0.004515190819661396;0.05543980652288494;0.015148338155239364;3.664458957771025;0.00022947214886548075;0.0091771183848271;0.0361986336290404;0.6419277731421513;0.41207126593124127;1.0554812116992842;-2.2322079890703557;0.23615817491606753;-0.1930916096183306;0
0.888883674211273;-1.3905559314318954;0.7901141862793326;1.1687676960759137;0.10219233257145777;-1.7330585130218026;0.010443272836395429;0.14835764997414724;0.004289932490662948;-2.3883223211721094;1.840352077444561e-05;0.0071377587437544;0.009686958295095301;0.7729881767224238;0.5975107213526571;1.0554812116992842;-1.542705120492401;0.275331954757614;0.2549194118464872;0
0.8894490845081824;-1.4106007090250745;0.7911196739324438;1.1687676960759137;0.14008956311894422;-2.1523649698025245;0.019625085694856652;0.21598955624957217;0.020041313368510033;4.390336002654742;0.00040165424153481893;0.0061180789232181;0.0489446313857448;0.7715049067839069;0.5952198211916448;1.0554812116992842;-1.5531278156773247;0.27284685959716004;0.1264441097418137;0
0.6338471017148841;-0.9839865750450775;0.40176214835235863;0.7196261139497935;0.13997945128237296;-2.1326486253142463;0.019594246781314228;0.21598955624957217;0.01957944573919343;4.4313746779914;0.0003833546954540197;0.0020393596410727;0.0489446313857448;0.5835594473827228;0.3405416286296289;0.49996272919240914;0.12967359067760262;0.18831415332058352;-0.4423611131732245;0
0.5991589057483884;-1.2843058766266242;0.35899139433760613;0.7196261139497935;0.12109032813419186;-1.4232784981166375;0.014662867567646258;0.16198056438342334;0.01855144835185109;-0.09367384379477528;0.00034415623595139864;0.0224329560517997;0.0418068726419904;0.5375704828217569;0.28898202400121686;0.49996272919240914;-0.25946247106744974;0.17200418118680186;-0.18615291580317284;0
0.7552123545753349;-1.0723549971955262;0.5703457005032213;0.938366108418557;0.23339336663024962;2.3070782492115938;0.05447246358700211;0.16198056438342334;0.01813482715622583;0.02770434188619575;0.0003288719559861859;0.0224329560517997;0.0418068726419904;0.7509701989046341;0.5639562396428657;0.8665870232344064;-0.7728982967429753;0.2647562050491029;0.0566503973396014;0
0.5834669258609276;-0.4093148382154214;0.3404336535736012;0.7370355537245978;0.3774636302936893;-0.7510477349238087;0.14247879219449094;0.4468797792269026;0.017764098491061968;0.15920249478218315;0.0003155631952001501;0.020393596410727;0.0418068726419904;0.6655490474768053;0.4429555345972829;0.9444098393432951;-1.6719456383632927;0.27709308099218394;0.19811903890823196;0
0.7218547545562138;1.3798826798673691;0.5210742866754117;0.4901418552292891;0.4663217341953722;-1.6605158793189645;0.21745595978297938;0.6882893310186247;0.031267779651031016;3.308738426596809;0.000977674044305429;0.020393596410727;0.0744366268991536;0.8316688101458971;0.6916730097694923;0.7550619700424177;0.2890228331341594;0.4056492474799635;0.5847622146260584;0
0.8083206582021849;1.6393709182956198;0.6533822864764134;0.5992147102803944;0.5323532144971672;-1.128372765797015;0.2833999449854669;0.663692304332911;0.029068923874468328;2.110987428576499;0.0008450023352196347;0.0244723156928724;0.0723972672580809;0.8798508671605181;0.7741375484431157;0.8139924296730279;0.40454168776968774;0.6211864475169285;-0.784590999388669;0
0.6759930106675083;1.7276420177228655;0.456966550471322;0.5559862210513469;0.4962013641171293;-1.4259311419279115;0.24621579375169994;0.6631399238367992;0.03794798422744653;-2.922699370511815;0.0014400495069265308;0.0693382277964719;0.0805547058223717;0.6907370767220171;0.47711770915847773;0.6288077521268396;0.48465127691404913;0.6061064928255573;-0.7658290757747794;0
0.9208867386300187;-1.378555401489315;0.8480323853846323;1.101969736969802;0.414703236609543;-1.2481896060259008;0.1719787744544306;0.5711197704458302;0.033992216321260586;-2.1040536039675026;0.0011554707704313745;0.045885591924135806;0.0805547058223717;0.5566597413685461;0.30987006766049663;0.23351452581539978;1.6697533333786438;0.5984761686829474;-0.5139773172748294;0
0.741974095887589;-1.0061303934324595;0.5505255589682051;1.048144620399965;0.3460820718888507;-0.05933915051762639;0.11977280048287964;0.3397373133682846;0.02611057383902955;-3.1331546226102573;0.0006817620662034142;0.044865912103599505;0.054043030488426604;0.38818711736866257;0.1506892380909918;0.23727730133979263;3.192984650205903;0.512856684818259;-1.717439141438194;0
0.9014296128117085;-1.406519854800243;0.8125753468538668;1.1886458705539318;0.35942872062985765;0.19667469938649992;0.12918900521361626;0.33677028830432176;0.032094817181290265;-2.1479626275854393;0.0010300772899004447;0.042826552462526805;0.0764759865402263;0.5477011329144125;0.29997653099573096;0.23727730133979263;1.4988817443338942;0.6301028596072519;-0.06609849945758169;0
0.9335782129366523;-1.8712645055674741;0.8715682796699933;1.1886458705539318;0.3928364195749198;-2.1149040179598124;0.15432045254444243;0.6064689677461179;0.031151176795597382;-1.5709890865023581;0.0009703958157505648;0.042826552462526805;0.0764759865402263;0.3684100835104564;0.13572598963218144;0.5652957461404385;-1.952857751864098;0.32630750728976315;0.5837583275335315;0
0.7039007097050703;2.1863295938291607;0.49547620912330165;0.555567944750119;0.3678205891811097;-1.9174945468004043;0.1352919858255387;0.5830171115651153;0.045158118499103395;0.5413515352177273;0.002039255666379064;0.042826552462526805;0.1172631793616804;0.44962038229583834;0.2021584881758558;0.7950818765406359;-2.892695236561894;0.35232069127484394;-0.2782078114073541;0
0.8084059481146995;-2.7616106600042465;0.6535201769472262;1.447098487659812;0.2766568855246998;1.5365600561258954;0.07653903230822684;0.22272352766037207;0.04628829778527314;-0.9580763357504066;0.002142606511858122;0.057102069950035694;0.1172631793616804;0.374924085396052;0.1405680698100661;0.28753425562572965;1.6457816066357687;0.27214212779583596;-1.1729694897934004;0
0.7030946058152003;-2.9258367489442763;0.494342024726432;1.3163850733650144;0.2866003349210001;2.5083065961372526;0.08213975197682943;0.11023124457312994;0.046607288051824895;-1.2605724107450282;0.00217223929954578;0.057102069950035694;0.1172631793616804;0.2006463240547046;0.04025894735666553;0.35529861669244966;-2.8079595109984563;0.12726004769759114;-0.33677182338285366;1
0.6111092652562493;-2.0544322576737137;0.37345453408203283;0.861162624020648;0.3004143093775988;-3.1679764278129388;0.09024875727881963;0.5512428838758168;0.03273791596987268;-1.850768732808259;0.0010717711420504445;0.0448659121035995;0.0795350260018354;0.27262059798925686;0.07432199044802001;0.3772499987365696;-2.1097131855637983;0.165436712879502;-0.1142285083209851;1
0.7412995363588727;-2.8616001455604443;0.5495250026058796;1.3163850733650144;0.3275235531636342;-2.6282114723575027;0.10727167787693193;0.4929274532067618;0.037677134873544606;-1.101244498996876;0.0014195664922792713;0.0448659121035995;0.0948302233098807;0.3945973283577925;0.15570705154710748;0.23059057068603828;1.0673986549301482;0.21292493142658916;0.32682743791102736;1
0.7780763198125643;-2.952053590795439;0.6054027594530639;1.4815594925716993;0.2756858891998465;2.4869262263603886;0.07600270950391003;0.1937942265770407;0.031241165938664543;-2.4361363741830737;0.0009760104492071737;0.0489446313857449;0.07239726725808099;0.47058828575413464;0.22145333468901507;0.6494411902237534;-1.0675139693951863;0.23573637361841857;-0.46043505285532244;0
0.6870746620271405;-2.6924906341135357;0.4720715911997093;1.2428552614579833;0.10359480601285281;-2.0823911384995824;0.010731883832840605;0.15193424433531666;0.023874448067744757;2.2457371350046764;0.0005699892705394413;0.013255837666972595;0.0632201488732538;0.31127118031630596;0.09688974769550626;0.49443990112765235;-2.7491902561611163;0.14722548359481796;0.3360736651212878;0
0.5163429742583462;0.37708392562205734;0.26661006706595514;0.6203968685510513;0.09557197891381616;0.18763047578174627;0.00913400315350292;0.09911630377516545;0.02380903252402781;3.100476969956896;0.0005668700297302142;0.008157438564290798;0.0632201488732538;0.24993763981554631;0.06246882379656576;0.440802001581835;-2.921410556192494;0.11261431433291255;-0.3815303843220531;0
1.2365006424040563;2.5920568368329087;1.528933838665644;0.39648247694445105;0.07469032697128515;-1.4358481231914588;0.0055786449430774866;0.09911630377516545;0.019592717241930034;2.4306837776386914;0.00038387456892222246;0.008157438564290798;0.0530233506678903;0.796023819706237;0.6336539215397078;0.16735163863518476;3.8170898731116716;0.3035901738780327;1.8229663149285973;0
1.585992121148516;1.103434431775374;2.515371008345169;1.2428552614579833;0.10814181305575886;-1.5253577877683853;0.011694651730986697;0.14589840577147184;0.04411868371001743;2.401709517699537;0.0019464582523045575;0.0367084735393087;0.10451718160497608;0.8557927840934861;0.7323812893064802;0.538173999790236;3.531606117171845;0.3392209842864556;1.8314533060657252;0
1.6737793348092753;2.291189164874698;2.80153726163458;1.2763699562448176;0.19105588121771117;1.3875261740717793;0.03650234974787616;0.12689118239788488;0.040646105528170294;1.9189268397614363;0.0016521058946071558;0.030590394616090602;0.10247782196390338;0.9591221016775572;0.9199152059263743;0.37246378688229753;3.625987364731067;0.4093921219939788;1.8397515557780713;0
1.8315993315560282;1.67514025391581;3.3547561113564894;1.7100580891937527;0.25610608432916954;-1.4856116507016555;0.0655903264304197;0.329978641452386;0.04503015073686657;1.2091973149838111;0.002027714475384925;0.030590394616090602;0.11981237891302138;0.9900777553179986;0.9802539615755267;0.6076615668642036;3.4132008800803626;0.4313260174625172;1.823812331430013;0
1.8362390850719719;1.4571071326215066;3.3717739775459523;1.7768528024217223;0.31087458301393506;-0.42506757388538574;0.09664300636408801;0.3707435577117475;0.04503015073686657;1.2091973149838111;0.002027714475384925;0.030590394616090602;0.11981237891302138;1.0454710817465331;1.0930097827682663;0.3602957807415019;4.564730545344477;0.4875339069052532;2.122659865180333;0
0.8120486793908631;-0.7129629367349715;0.6594230577004447;1.0294288069049924;0.519203246397649;1.0326995247304716;0.26957201106985784;0.44795655898925135;0.047824505469119094;-1.2733346128080736;0.0022871833233658024;0.062200469052717505;0.11981237891302138;0.5190604608564257;0.269423762024485;0.14744313107171592;3.5679231678152044;0.35555459477174617;-1.7405375166858381;0
0.9679862381553413;-1.5785319658556307;0.9369973572581292;1.3431646694727872;0.5108304361975261;-2.899896078106911;0.26094773454575476;0.9281459388612814;0.03308778530956564;-0.7074719203439722;0.0010948015366919078;0.034159273987967795;0.0856531049250536;0.4578478904454226;0.2096246907853237;0.022345130312120043;4.674093414210276;0.33087459967872423;-2.1333570621107323;0
0.9809614516228874;1.175879054514257;0.9622853695700824;0.9837081459640993;0.46791838961560184;-1.739165066044638;0.21894761934045814;0.6479109417483722;0.04624391323687159;-1.154646753126625;0.0021384995114593075;0.05761190986030389;0.1172631793616804;0.44662632324475354;0.1994750726151271;0.1732087503275095;3.769419826967957;0.332050133231115;-1.8920487591829651;0
0.5245213361618319;1.8455200434414998;0.2751226320889935;0.37544590687106805;0.38726513025554177;2.1964315404263104;0.14997428111184175;0.12967549943234724;0.043710261758521225;0.8146742010321487;0.0019105869829984432;0.034159273987967795;0.1172631793616804;0.45141613480047116;0.20377652675819716;0.1732087503275095;3.6453522032517873;0.33440881105518544;-1.8438529784189917;1
0.5781015391356202;3.109432892707519;0.3342013895509731;0.39091005664237355;0.22411978532257376;-3.0719537752464965;0.05022967817303655;0.401975485092088;0.04674372898600187;-1.3492345379587907;0.002184976199516791;0.060670949321912894;0.1172631793616804;0.4853268246432978;0.23554212671834632;0.34274677734660597;3.007959397930572;0.34797513744811287;-1.7076079332246472;0
0.6672725101404622;3.6231377030210274;0.4452526027891532;0.3046473128333156;0.3469693021036298;-0.09001919505456375;0.12038769660227992;0.3393721451098126;0.037379645889439456;-1.6935472478600768;0.0013972379268198882;0.053533190578158404;0.08922198429693069;0.6573257324757397;0.4320771185747677;0.2220335379958318;3.9779904178657284;0.348516906907693;1.922822043746669;0
0.6430791622399725;0.8414812878131125;0.41355080890726487;0.5220166712097369;0.4127949023026244;-0.9876530630518859;0.1703996313670332;0.44316813759572593;0.02461634649047653;1.9265074685598478;0.0006059645145391963;0.017844396859386102;0.06423982869379011;0.6504170653671438;0.4230423589208074;0.6242102166445804;0.14908762077651852;0.3180810985131686;0.9349656181394745;0
1.1076301298501838;0.8648987922434538;1.226844504551935;1.235357083444007;0.4439916273433413;-2.009058996851593;0.19712856515098845;0.7123799533436064;0.028018010939194697;1.3025881540282842;0.0007850089369888338;0.017844396859386102;0.0764759865402263;1.1436055884153042;1.3078337418547143;1.2609241301752112;0.9705929112836801;0.42898154713463027;1.2199604773166945;1
0.9857337151546525;1.2291823875075458;0.9716709571925934;0.7662394248489108;0.49815106983398727;-0.6097559271145473;0.24815448837674609;0.5739887016835847;0.015960513758028635;1.9055862140772923;0.00025473799942022133;0.0127459977567043;0.040787192821454;1.0154425499160402;1.0311235721799898;0.7317431652795148;0.9734040246931978;0.3457352234824216;0.7358977296738567;0
0.8327377906346948;2.7229484564752418;0.6934522279511528;0.5296347045080507;0.39981926095277875;-1.4242769365449337;0.15985544142882618;0.5463273881628694;0.017251885709889624;1.3959497339866154;0.00029762756054709384;0.0127459977567043;0.0458855919241357;0.7971205210436133;0.6354011250688416;0.2387159574507014;2.992456773473073;0.25305405172814677;1.4598258076047403;0
1.2205523637948126;-2.4190096031824218;1.4897480727651047;1.8981550109561334;0.2935416102328924;-0.5018437166796114;0.08616667693811932;0.38170560374857465;0.01743920809267583;3.3289502520269685;0.0003041259788996501;0.0050983991026817;0.0458855919241357;1.1860190125723824;1.4066410981831692;1.6452495978265085;-1.9853331354952115;0.3318256374018683;0.5575260850175897;0
1.5849147232370742;-1.0566880015071867;2.5119546799336514;1.8981550109561334;0.16757930512531302;2.7523119768337048;0.02808282350628276;0.11993050728673982;0.01810613733102056;-0.06989250718900071;0.00032783220904977637;0.0173345569491179;0.0458855919241357;1.3855966491035574;1.9198780740070065;1.6452495978265085;-1.2385774732216024;0.4030233413524224;0.03668705520699359;0
1.5130481148171495;-0.2619580733754094;2.28931459775173;1.4875401349414399;0.056272475509860385;3.331715122347821;0.003166591500007837;0.020554943990560126;0.020054279219234535;0.6670234063280928;0.0004021741150030221;0.0173345569491179;0.0509839910268174;1.3355766706304921;1.7837650431324301;1.3498899997021607;-0.4914869159567192;0.3952656829483603;0.13782167597475725;0
1.694044045586188;-1.981285933684288;2.869785228386019;2.5904952440704876;0.041069635939190385;1.4480604034327225;0.0016867149961776386;0.03676172930187316;0.04900301571981761;2.4647051878352357;0.002401295549636692;0.0275313551544814;0.1294993372081165;1.4783528520899571;2.185527155282511;2.1951900366900174;-1.7914244219357396;0.4675179259683607;0.497630265461935;0
1.715988621053655;-2.382362303317317;2.944616947585624;2.5904952440704876;0.05319481009336981;2.2209079048360714;0.0028296878208696787;0.020554943990560126;0.05375076568942824;2.954302106886035;0.0028891448121998167;0.040787192821453905;0.1305190170286529;1.4844236521999221;2.203513579210555;2.1951900366900174;-2.1754062530027922;0.443584668710405;-0.1022250175027515;0
1.4949550677730543;-3.009146094377721;2.2348906546603375;2.5904952440704876;0.12196510388556159;2.2499784692489135;0.01487548656581583;0.0546408202039288;0.05377107289952727;2.8235149204342918;0.002891328280766276;0.0423167125522585;0.1305190170286529;1.2493206213890038;1.5608020150278064;2.1951900366900174;-2.99333995641261;0.3942392796614841;-0.5442947355895348;0
1.1704153867637306;4.101946237925415;1.3698721775732932;0.5911548528313277;0.12069732663786605;1.8629559010555496;0.014567844657527728;0.0546408202039288;0.054826639332585136;-0.4521618896425193;0.003005960380505372;0.0734169470786172;0.1305190170286529;0.9831805679157245;0.9666440291270865;0.5083804745231908;3.929321529475679;0.2656728921504763;-1.9758638483133826;0
1.5972136780593686;-2.760160445814273;2.551091533379936;2.7466680656148745;0.11757273279035077;2.170836969008542;0.013823347495791222;0.008248830975194021;0.05575746880203465;-0.5461676247485817;0.0031088953272098672;0.07443662689915359;0.1335780564902619;1.325155347399496;1.7560366947414787;2.2751606342512503;-2.785042410350758;0.4186785372882119;-0.5656306281508948;0
1.3939553929914237;2.4013489669538366;1.9431116376498743;1.2281496120806041;0.08616414676552914;4.873350918931675;0.007424260187831646;0.008248830975194021;0.038874415554754384;-2.9887609325294036;0.0015112201847237298;0.07443662689915359;0.08055470582237159;1.1572099864132674;1.3391349526545946;1.0910961578904472;1.9222082002316583;0.3401654733223461;-1.451109315451619;0
1.454340445951438;2.2764454237369294;2.1151061327302276;1.2281496120806041;0.11491227770104073;2.3722925601429323;0.013204831566441103;0.01487421559348423;0.03244921759459606;0.7682517565575667;0.0010529517225014427;0.031100234526358697;0.08055470582237159;1.221833494404923;1.492877088049745;1.1235839569666761;1.7156894780884429;0.3480930963591418;-1.524231547870621;0
1.3890026303412006;2.510672403937613;1.929328307094774;1.1629481284178977;0.05504842714625918;4.442667518505606;0.0030303293312770045;0.019133212755735318;0.03254520247471042;0.49389530533123366;0.0010591902041198972;0.0336494340776996;0.08055470582237159;1.1700505711235396;1.3690183389865214;1.1235839569666761;1.9026603443512944;0.34162331357769365;-1.4729117270694043;0
1.2631986309469825;2.3863718397419498;1.595670781226331;0.7191567769874618;0.05831915577069448;3.7686370278780905;0.0034011239298065267;0.019133212755735318;0.028705390558293607;1.7757844142144552;0.0008239994471041718;0.0091771183848271;0.08055470582237159;1.0585919051174997;1.1206168215802974;0.6827858751642903;1.7244419296672528;0.3316049450836865;-1.1244948604448481;0
1.004225004477246;1.2126994581500554;1.0084678596173249;0.7191567769874618;0.16648449616591837;3.2345431660069486;0.02771708746361969;0.04133320147716546;0.01806013881318532;3.9218449289883686;0.0003261686139515229;0.0091771183848271;0.0438462322830631;0.9759625189957922;0.952502838484612;0.6827858751642903;1.2864616327600753;0.3017587265162718;-0.9424351173269174;0
1.1055812539020622;1.4493662740506228;1.2223099089796563;1.1402605415952296;0.2733289401075124;-1.1313633993248935;0.07470870950029611;0.33574474357821105;0.01541370088490991;3.5364210506147984;0.00023758217496947255;0.0091771183848271;0.037728153359845;1.046228696645149;1.0945944856838075;0.9423893145786408;1.693777227368764;0.30597889537483663;-1.4274894136735379;0
1.0794899222456023;1.6626735629081821;1.1652984922298162;1.024384571499318;0.4058446231116425;-0.2684495709602146;0.16470985810863115;0.5140476579284692;0.01547429221176235;3.950966182982152;0.0002394537194550089;0.007137758743754401;0.037728153359845;0.9794987362953894;0.9594177744042649;0.7688480189510001;2.275502443073305;0.29283394515268985;-1.5999475960792862;0
1.1003016096211349;1.5850859751204223;1.2106636321348605;1.024384571499318;0.47617737132423515;-1.6621450858746734;0.22674488896125855;0.6501385329968674;0.026914525643157584;1.7938031346241015;0.0007243916905961871;0.008157438564290801;0.0754563067196899;0.9730366830821542;0.9468003866235205;0.7688480189510001;2.3066764833290385;0.2918377839458499;-1.5926859262334676;0
1.1073409597301933;4.822953244578542;1.2262040010961857;0.14484660172545594;0.360760734015581;-1.6806390226851928;0.1301483072074608;0.4459679284611089;0.026926112581619213;1.8823042614493677;0.0007250155387580325;0.008157438564290801;0.0754563067196899;0.9840611936309128;0.968376432810297;0.14564708587922714;4.667193869904452;0.2845086139502276;-2.136675753387614;0
0.3464983436981609;3.3714506066018615;0.12006110218556885;0.14484660172545594;0.25254441007043865;2.6943728927553843;0.06377867905782589;0.13346537463466568;0.027638778449485254;2.001666444077614;0.0007639020741797305;0.0132558376669726;0.0754563067196899;0.3626125417034147;0.13148785540061067;0.14564708587922714;2.9119278444882517;0.0968602934612011;-1.5044672476130423;0
0.3802617518694305;2.4811437131440806;0.14459899993480832;0.14484660172545594;0.11664813865203015;-2.8697508576327997;0.01360678825098325;0.21320436807785748;0.021201004707551863;3.5681504750905617;0.0004494826006096363;0.007137758743754401;0.0550627103089629;0.3795744961159593;0.1440767981016844;0.14564708587922714;2.5067122882147572;0.10103294172024821;-1.2599757870177013;0
0.5509150809273674;0.489820270425452;0.3035074263932078;0.3980221722945867;0.18497515012875954;1.4382502839193958;0.034215806165157125;0.11798033355930282;0.029420899451929314;1.2968739009279158;0.0008655893245605346;0.016314877128581602;0.0810645457326398;0.5492897297896346;0.3017192072523698;0.3855506461352749;0.530441023353891;0.1409238214956171;-0.08748650566985447;0
0.6682010949630883;-0.7209982033506014;0.44649270330987023;0.8591804323184453;0.28941806716566254;-1.3364903963134758;0.08376281760190796;0.3812543618215607;0.028953341214440122;-0.8486215972598631;0.0008382959674797971;0.0392576730906495;0.0683185479759355;0.6694725653727273;0.44819351578674055;0.8498457133939401;-0.6835339797664517;0.1632886566083144;-0.613552977224495;0
0.6792119956544028;-1.2516916022265814;0.46132893504083655;0.9414833016861497;0.30018397763161053;-2.3107088404252045;0.09011042042673525;0.4750582892052182;0.030206455006269117;-2.237858276918742;0.0009124299240457606;0.049964311206281205;0.0683185479759355;0.677240282940153;0.4586544008368585;0.9101849244579472;-1.073733729970962;0.16567089250307734;-0.5338665112615356;0
1.4107846567931883;3.194030726437923;1.9903133478430743;0.9414833016861497;0.30567065517367925;-0.38495420365410266;0.09343454943430632;0.32154917177194786;0.03932316930039509;0.814893290099055;0.001546311643827535;0.026001835423677004;0.1070663811563169;1.3341880464444726;1.7800577432753182;0.9101849244579472;3.0706790316439907;0.3549293591587246;-1.7178409878976257;0
2.0712727697561406;-2.2276150993694834;4.290170886733275;3.318097028932533;0.20709890238638995;-0.15110629902678477;0.04288995536964747;0.2236992094476058;0.0232589838774962;2.4461163241724457;0.0005409803310136282;0.0020393596410726994;0.0647496686040584;1.8832701052377352;3.5467062892821506;3.133182466447848;-2.5133981145967206;0.6164287616555746;-0.5239217668897367;0
2.2375588115373164;-2.294331492549875;5.0066694350882885;3.522793634350082;0.1470701717132885;-1.5012203344865387;0.021629635407776168;0.21288585615509215;0.018851671089444893;4.488817847617675;0.0003553855028646124;0.0020393596410726994;0.0469052717446722;1.8544587018214578;3.439017076761327;2.877789981713522;-2.151838099454295;0.8071513827979633;0.6712342629389713;0
1.585615094705008;2.2545469325100562;2.5141752285563714;1.1461799071036984;0.11392044518314234;-0.22985236649883709;0.012977867830725338;0.12723536620901532;0.0341280605684738;1.9930191706718396;0.0011647245181654162;0.0071377587437544965;0.09584990313041711;1.2608898915854492;1.5898433187023657;0.6547924397236214;3.7245575114209877;0.8224890998779311;1.9126445576301028;1
0.9783257134941676;-0.7681417723212173;0.9571212016838722;1.1461799071036984;0.1434627298552022;2.2194111548233324;0.02058155485750672;0.07097579758473183;0.034856051055648485;0.9910152192527626;0.0012149442951939738;0.022432956051799804;0.09584990313041711;0.6836049028135439;0.4673156631507149;0.6547924397236214;0.989771311812742;0.5432663356310349;1.2538939573637597;0
0.9364093789960377;1.1743950814138664;0.8768625250717449;0.7286743109428242;0.2534340024831199;-0.08635783224861626;0.06422879361461403;0.26053464220931;0.044769634455909084;0.6217596157642594;0.0020043201693157216;0.04894463138574491;0.1091057407973896;0.6882604996987887;0.47370251544562625;0.7047564645057137;0.5588784002934304;0.542656742011352;1.1690742449571176;0
1.202265131729933;-1.4951167991257985;1.4454414469735934;1.5489178234248737;0.26407581083643966;-2.8122756843375316;0.06973603386892306;0.47402226143242565;0.04340531590454323;-2.269462779410265;0.0018840214487731936;0.0683185479759354;0.10196798205363511;0.8931827390761047;0.7977754053834929;1.3720475771755587;-1.877915924521858;0.5183155563783625;0.48110555005723293;0
1.454114895133953;-0.12611709886217545;2.1144501282504273;1.5489178234248737;0.22013843522588122;-0.33642528116129594;0.048460930663699504;0.25617960813530605;0.0487562654508321;-1.603894268790911;0.002377173420712004;0.0683185479759354;0.1193025390027531;0.7554816600636048;0.5707525386924602;0.7995662677715027;-0.7281597849972066;0.4006597288026875;0.36712016717553964;0
1.788684236135416;-2.8375764310136677;3.1993912965993365;3.225142723914071;0.119706145273241;1.64299069998201;0.014329561216178278;0.08823290448508336;0.07125876867685028;-1.6600615355241632;0.0050778121133408585;0.1009483022330987;0.1723258896706434;0.5815391471101949;0.338187779621653;0.6925579124927299;-0.3743280523572932;0.28527208157006595;1.063197643616977;1
1.679768078107043;-0.22066888977489185;2.821620796227429;1.997159622437553;0.07628451409571776;-0.7631832740990644;0.005819327090819762;0.08823290448508336;0.07119307825142257;-1.496819307792722;0.005068454390913178;0.1009483022330987;0.1723258896706434;0.598027227572472;0.3576365649180172;0.19225818011631035;4.432867873483834;0.32086602033317085;2.0769814102255486;0
1.7838848482262106;4.270806810629352;3.182245151731051;0.326815058790876;0.14854389057236178;1.6015700903199968;0.022065287426373793;0.09386630633112913;0.06007203752325101;-0.5286571456074599;0.003608649692194877;0.0662791883348629;0.15397165290098902;0.5754278118685676;0.33111716667184765;0.45780754628699394;1.8733625664317242;0.29109729141032137;1.4378119663787126;0
0.4147783736200308;2.1968283833754434;0.17204109922287786;0.326815058790876;0.11745601808681962;0.1723907089288351;0.013795916184811297;0.1253543510516928;0.046288859342232064;0.18444234421420327;0.0021426584992049447;0.0479249515652085;0.11930253900275321;0.29131042034660504;0.0848617610025157;0.2664469770372553;0.7581821004844921;0.17515343426393964;0.8588632463329022;0
0.6738464533144657;1.0029914699355362;0.45406904264448444;0.42407967942278946;0.16770602137463944;0.8580264167308324;0.028125309605311025;0.1253543510516928;0.05076121410889325;1.752120393226529;0.002576700857808903;0.048434791475476704;0.12338125828489861;0.3188012032000527;0.10163420716180128;0.35998580975528016;0.5610997934067363;0.19823164792178763;1.223945759229095;0
0.6929187622907065;0.3183333486645772;0.4801364111344845;0.5807268474229139;0.18611441180624294;-1.7218980403433644;0.03463857428198378;0.25774632842952006;0.02256466429529837;-2.1273114352522726;0.0005091640747595131;0.0356887937187723;0.0525135107576221;0.3499370511118654;0.1224559397408683;0.5601417229734365;-2.4768182497965;0.21230736804042158;0.6735472018165022;0
0.7426367796925735;-1.4207309398217838;0.551509386552156;0.9809003045489075;0.27096846115342804;-1.159370038875661;0.07342390693985683;0.326165651099648;0.048184052565704606;1.15000274858489;0.0023217029216545844;0.048434791475476704;0.11930253900275321;0.33554703506675965;0.11259181274209322;0.5601417229734365;-2.3220881649853062;0.19871229180871983;0.22193242386272724;0
0.6601017068761704;-1.9361661657159484;0.43573426342083366;0.9809003045489075;0.2780825626615242;-0.6104048959458043;0.07732991165640055;0.2980857125608618;0.04311389086553515;1.5811708088661263;0.0018588075855652756;0.021413276231263406;0.11930253900275321;0.43876912521080697;0.19251834523825678;0.5601417229734365;-0.1648246446605981;0.2510206669604837;0.8690044986671241;0
0.6754520429651474;-1.98097253452156;0.45623546234579127;0.9809003045489075;0.33695491339334727;-0.015984302532347765;0.11353861365991816;0.3951006405326152;0.045015717163168836;-0.12282487046159456;0.002026414791714413;0.044356072193331306;0.11930253900275321;0.4681690104449348;0.2191822223409895;0.7339161954829398;-2.067630851735443;0.23755555966063743;-0.1407547962855409;1
0.778265316264227;1.3908615361558982;0.6056969024998573;0.4173775032109486;0.37613280462443077;-1.5891666901069545;0.1414758867146402;0.5398993006776758;0.03918079075594489;-0.5389889475680789;0.0015351343642611365;0.044356072193331306;0.10094830223309881;0.6654329979382865;0.4428010747451355;0.5279386271224646;1.1160476000632258;0.2798404029431679;0.9438950582583087;0
1.068725170914586;-1.4545018365278253;1.1421734909464112;1.3930037768528458;0.33047414965791916;-1.8283510050595477;0.10921316359212474;0.4359417805282759;0.04022956740840623;-0.9025476734398422;0.001618418093867501;0.050474151116549404;0.10094830223309881;0.8945683711661756;0.8002525706909045;1.0064164561631364;-1.2084206853385158;0.32207113117434283;0.21478682926410475;0
1.021955938574522;-1.9617697429556162;1.0443939403877323;1.483001886894844;0.23895578627120473;2.3849951438589643;0.05709986779248967;0.12300229746342328;0.02603280724684558;-1.2322191768903086;0.0006777070531514157;0.029570714795554204;0.0657693484245946;0.8592420934225792;0.7382969751092163;1.4702977263227095;-2.5613423900106;0.2598122837031279;-0.030221293138700193;0
1.018171585160883;1.4602294940540805;1.036673376829025;1.0504172481029048;0.14113922711129906;0.33037354745871994;0.019920281429574853;0.12300229746342328;0.025602899368217708;-0.8672652368095027;0.0006555084560590827;0.029570714795554204;0.0657693484245946;0.7536627308872699;0.5680075119284574;0.7680662370877731;1.0132630662411384;0.20580285754310332;-1.2561074955292817;0
0.6615722944137281;-0.06890360704248384;0.43767790073584456;0.5659411019941558;0.13730793679778988;1.1047381332819508;0.01885346950766586;0.08050127254657191;0.01941948026687535;-1.3404680410217662;0.0003771162138355611;0.027531355154481504;0.0448659121035994;0.536643866245581;0.2879866391790051;0.3849934395963728;0.7680710139315655;0.12946897548250544;-0.007373741175429797;0
0.4483646363982599;2.0682123335945874;0.2010308471725438;0.12037769105874219;0.1625790077718602;-0.8387685491272521;0.02643193376808258;0.2228325273515681;0.01354678317078255;2.3537465191013283;0.0001835153342761973;0.00917711838482721;0.034669113898236;0.3466726456408026;0.12018192323559347;0.13968079876048112;2.270968299147538;0.080195625894772;1.1041987812635645;0
1.0458932910186653;3.5507533409999774;1.0938927761978545;0.12037769105874219;0.19508896315671573;-0.9553196016831885;0.03805970354556239;0.23222768872344446;0.01872716320350659;3.6464709154665678;0.00035070664165077125;0.0071377587437544965;0.04792495156520861;0.6953579016948674;0.48352261144948894;0.13968079876048112;2.8846132566508396;0.16822969867407758;-1.3380690061269007;0
1.1022307675739662;-1.0209745929099416;1.2149126649866948;1.2334205455968723;0.26038117579025694;-1.4848453389359537;0.06779835670591669;0.34224689221331683;0.02403720808585113;1.6844543578645432;0.000577787372562507;0.014275517487509007;0.0652595085143265;0.7198952133872715;0.5182491182579051;0.6917112198793345;-0.23615841366594617;0.18036301173130573;-0.3712665370713202;0
1.2075976379663558;-1.8178274984208613;1.4582920552219216;1.8674251919750726;0.18245050666359244;1.3172272097758366;0.033288187381801594;0.1120851366705562;0.042820482509627944;0.8968569974473889;0.0018335937223573524;0.0316100744366269;0.1152238197206077;0.8183404097152832;0.6696810261729775;1.2585134607865451;-1.6921353646146902;0.21741655846825592;0.5274416542073146;0
1.1296897441734446;-2.3305622087315996;1.2761989180906625;1.8674251919750726;0.1761238031342571;1.1414965589938575;0.031019594030474554;0.1120851366705562;0.05061865639655809;-0.5393146584635389;0.002562248375392811;0.0652595085143265;0.1233812582848985;0.7522281034300573;0.5658471195899809;1.2585134607865451;-2.3391289750948068;0.20200638641046828;0.33755611909479416;0
1.2026110428513757;1.9230618547292053;1.4462733203880735;0.8345447852270236;0.17595893617710812;3.2189215781050535;0.03096154722057961;0.020266303099675476;0.05061865639655809;-0.5393146584635128;0.002562248375392811;0.0652595085143265;0.1233812582848985;0.7747760175916576;0.6002778774351885;0.6221843360168706;1.7550667343120072;0.22701358956820494;1.4419258296254538;0
1.4408123795917631;-2.5832228463443996;2.0759403131848786;2.436812149365943;0.18638837655062035;-0.8626896725916566;0.034740626913175844;0.20176563599460806;0.04704140096510064;0.2825853261610855;0.0022128934047593715;0.0438462322830631;0.1233812582848985;0.9444742613576441;0.8920316303670675;1.6353615563373158;-2.754544960146228;0.24964647103537402;0.1824465557911537;1
1.8384668692916886;-2.7262958359939655;3.379960429483183;3.1067595863970405;0.309792323916156;1.158528290648152;0.09597128395737253;0.3278347024319084;0.04817164324244823;-0.6266000572214784;0.002320507212677708;0.053023350667890295;0.1233812582848985;1.304405688984948;1.7014742014562971;1.9312374882512913;-2.1206426445012667;0.381183800891209;0.04192640982761148;0
1.930804942103269;-2.7075713179895575;3.7280077244504075;3.1067595863970405;0.3938073261608734;-1.9378199863041345;0.15508421013797652;0.5553578384909263;0.02978966280818097;1.3274874573113589;0.0008874240102251207;0.015295197308045294;0.0825940654634445;1.3229949484724421;1.7503156336836;1.9312374882512913;-1.647841584225895;0.3620911452665288;-0.7518912080594118;0
1.819114371611682;-2.8071663742677235;3.3091770970041647;2.8669288093750014;0.5790785815782671;-1.32804983021443;0.3353320036426978;0.7493234160873286;0.02109037077426071;-0.928716190077805;0.00044480373939579027;0.023962475782604298;0.053023350667890295;1.416234608816653;2.0057204672100584;2.398382312188681;-2.4742390396928258;0.46340811462382653;0.3849152805770794;1
1.8391430559352815;-2.877141531463464;3.3824471801949656;2.9942254193536404;0.6478826791342552;-0.4882125364578253;0.41975196592218034;0.6787658487610888;0.020602832008949485;-0.7708986687243934;0.0004244766867889934;0.0209034363209952;0.053023350667890295;1.6725442497428111;2.7974042673477433;2.511688900610204;-2.668574416510149;0.6130824957230527;0.57290760376031;1
1.5265444000409867;3.1989202484720045;2.330337805296496;1.0810563534965039;0.49099691226879705;-2.3893371735141002;0.2410779678574928;0.7845854742893135;0.016545856531364644;-1.3477344433030467;0.000273765368356502;0.0209034363209952;0.0397675130009177;1.332338652155416;1.77512628402731;0.6965647922227425;3.334991045827605;0.6909671197361351;1.7423204067641032;1
1.581069397520106;2.810001602576468;2.4997804397745913;1.081671497104784;0.4343771082927154;0.29137731259495797;0.18868347220874143;0.4597171227822039;0.01724435048973974;-1.008150612501255;0.00029736762381298726;0.0209034363209952;0.0418068726419904;1.4798577660893608;2.1899790078549937;0.850203522157112;3.3302325704501876;0.8862821069443354;1.7900590867859636;1
0.5922915851760958;-1.9114920645256106;0.3508093218704124;0.8591891114263821;0.2530518659705697;0.516032117216851;0.0640352468711872;0.2931832706355122;0.019368549110771918;-1.3346978958747282;0.0003751406946563837;0.0229427959620679;0.0479249515652085;0.48805463947024286;0.23819733110842872;0.5771114283465799;0.47678828202093254;0.5218021966791081;1.041183939920453;1
0.3888359866489586;3.7564116383539528;0.1511934245132691;0.15636116585284876;0.13272899727471826;-1.8386151813435643;0.01761698671755217;0.1986810909358736;0.026576307002717;-2.17202206036062;0.0007063000939026647;0.0418068726419904;0.0622004690527174;0.24568012669492187;0.06035872465283287;0.31016610999068694;-0.2287797205352907;0.33102723502105735;0.768258928427929;1
0.6560775793823207;4.5401956279130955;0.4304377901681653;0.16707326060090955;0.1336764803935603;-2.0440442403122234;0.01786940141040991;0.1986810909358736;0.0545628756850298;0.8990287840784438;0.0029771074030200163;0.0560823901294993;0.1356174161313346;0.4272109143011552;0.18250916529802896;0.31016610999068694;3.011660798311695;0.5134888101162878;1.6938727723402287;0
1.7824958496829924;2.526153077448452;3.177291454137093;1.430744468252692;0.10068558847542572;-2.6792658295372718;0.01013758772664278;0.15657937973051794;0.050428296194391105;1.8692351664167244;0.00254301305706924;0.030590394616090498;0.1356174161313346;1.5344958347726383;2.354677466934576;1.0261219375967348;3.367810077718611;1.030442637317134;1.8518174570192578;0
1.6929843002378864;1.5724554501384287;2.8661958408519657;1.505329229438869;0.1997555687436754;1.6920304028117055;0.03990228724410923;0.15657937973051794;0.051357862380384006;1.9645153519940237;0.002637630028282463;0.030590394616090498;0.1356174161313346;1.437852220615142;2.067419008327895;0.8315024771701044;3.147416624640885;0.8533083277801079;1.6957593863225429;0
1.509326420296659;1.6405235957710442;2.2780662430055267;0.6897015535054885;0.22406098067981214;-2.455641541524791;0.050203323063199155;0.369796675797625;0.09571529765971255;1.1700223866159927;0.009161418206087376;0.101967982053635;0.2263689201590699;1.2862230754346573;1.6543697997805884;0.628404106557501;2.545142756017866;0.6422018892579278;1.4201771128845255;1
1.0977836980309963;3.606405552730775;1.2051290476626095;0.6151167923193115;0.1842557633132521;-0.9533234700472484;0.033950186314149186;0.22469271168956695;0.0986573819899573;1.0038122319532559;0.00973327902111235;0.101967982053635;0.2263689201590699;1.0799755612455342;1.1663472128876067;0.5628803462939944;3.7951217069551055;0.47896586066013286;1.897615185080977;1
1.0141106723934616;4.002332308940389;1.0284204558623187;0.14553843330837468;0.12568012708028506;-0.8726584223717732;0.0157954943429166;0.14913968746772976;0.11239258640951712;3.7466539840172763;0.01263209347982077;0.008157438564290798;0.29570714795554176;1.0167249467448956;1.0337296173334105;0.13451249580074753;3.934145419435756;0.42969776989007236;1.858345993256566;1
1.4651808057423485;4.488539041341116;2.1467547935157976;0.14553843330837468;0.11060919451070682;-0.9551673993523089;0.012234393910307376;0.14913968746772976;0.11279428825649089;3.7787240061058847;0.012722551463288358;0.013255837666972602;0.29570714795554176;1.461574663568379;2.1362004971850204;0.13451249580074753;4.445574149421399;0.5687766990021452;2.0552739575738084;1
1.4005836442911013;4.9306711389119;1.9616345446557424;0.14553843330837468;0.06758843998590416;1.2316206307543496;0.004568197219728169;0.06188659294168364;0.11862518719631181;3.643351243658612;0.014071935037360019;0.0586315896808403;0.29570714795554176;1.3906001842915765;1.9337688725517663;0.13451249580074753;4.937013688567132;0.5228407996735212;2.218363007545607;1
1.379261942130869;4.614386217387119;1.9023635050106167;0.4300567119624077;0.057937176614517756;0.14731592672571145;0.003356716434061823;0.06188659294168364;0.03695970136586879;-2.741750207772729;0.0013660195250542035;0.06423982869379011;0.0795350260018355;1.3687226148797176;1.8734015964831716;0.4163200245481873;4.6452747724359895;0.5039363508524728;2.1433273750830684;1
1.4561049558174473;4.060224498741697;2.12024164235613;0.4874600774211575;0.14219027143568957;1.8283915838662412;0.020218073290955076;0.12444173823431992;0.07071481393342606;2.1214122787279344;0.005000584909639068;0.06423982869379011;0.1687570102987661;1.4525720930267936;2.10996568544024;0.46011164868126286;4.023119215018615;0.5555176444580936;1.937602024399459;0
1.4268125200755777;3.2197876053166063;2.035793967444421;0.7481796896462631;0.2655378877143358;0.34022912540434075;0.07051036981179121;0.3064363372923009;0.06662936648782744;2.5350628725577926;0.004439472478569222;0.0453757520138677;0.1687570102987661;1.4258411822355428;2.0330230769588504;0.7012356430117634;3.2560607990220354;0.5240834157221353;1.6949066665660024;0
1.1879288825970062;2.3738873091163675;1.411175030108172;0.9027033395135056;0.4163312242694401;-0.2786310574228234;0.1733316883016908;0.49928159725892063;0.07425910616736316;-2.2839261630394176;0.005514414848775713;0.1085959008871214;0.1687570102987661;0.7760204199520715;0.6022076921825894;0.9225914152801122;-0.35186086704687014;0.4238422109673078;-0.7063412534438915;0
1.5197736726546904;-2.932774600497373;2.309712016094326;2.7428348854491955;0.5928912980888764;-0.5811313162756934;0.35152009134951295;0.7237073587361804;0.08692538721569436;-2.445659630935515;0.007556022942598399;0.136892015907005;0.2008769246456612;0.804933292919963;0.6479176060509748;1.093987068287352;-1.828344933428787;0.4723390207881241;0.04634528241466068;0
1.3423054812920803;-1.1361244885261368;1.8017840051067635;1.84013154593569;0.7947663945008359;-0.7521739124759961;0.6316536218278582;0.9797136217240785;0.06501818286865432;0.0003621958230120015;0.004227364103541775;0.0672988681553991;0.1690119302539001;0.733555241099236;0.5381032917441582;0.6801110369945824;-0.021391427390265488;0.45242984924027935;0.2959703428471306;1
1.5531302161057197;1.0176620693634888;2.4122134681805996;1.3300872124944982;1.0217877973889997;-0.8590820326102685;1.0440503028930634;1.267300386222625;0.06108554497902738;1.243746177334181;0.0037314438053847768;0.032119914346895;0.1690119302539001;0.9609867655844847;0.9234955636285294;1.3351110626178526;-1.610096765168952;0.49606734596875;-0.19511777226026983;1
2.499385006767476;3.4294230660657803;6.246925412054058;1.0007767414348803;1.2738791693034373;-0.9308017625926025;1.6227681379852155;1.586467652231815;0.03692205576615838;1.3490673316686674;0.0013632382019993093;0.023962475782604298;0.0994187825022942;2.454291941739376;6.023548935286836;1.7506075150243139;2.5811459379359696;0.8808329455445708;1.5804555016244999;1
2.499385006767476;3.4294230660657803;6.246925412054058;1.0007767414348803;1.2738791693034373;-0.9308017625926025;1.6227681379852155;1.586467652231815;0.03692205576615838;1.3490673316686674;0.0013632382019993093;0.023962475782604298;0.0994187825022942;2.454291941739376;6.023548935286836;1.7506075150243139;2.5811459379359696;0.8808329455445708;1.5804555016244999;1
2.499385006767476;3.4294230660657803;6.246925412054058;1.0007767414348803;1.2738791693034373;-0.9308017625926025;1.6227681379852155;1.586467652231815;0.03692205576615838;1.3490673316686674;0.0013632382019993093;0.023962475782604298;0.0994187825022942;2.454291941739376;6.023548935286836;1.7506075150243139;2.5811459379359696;0.8808329455445708;1.5804555016244999;1
1.5045308324000453;-2.6922655166008784;2.263613025642373;2.6053305619275076;0.5862201414157571;-0.5893675660136258;0.34365405420151024;0.7191934870128311;0.030956982270373416;0.44694278273979177;0.000958334751288214;0.0346691138982358;0.07545630671968989;0.728318778856766;0.5304482436354109;1.2501085814460116;-2.9275938775947186;0.3264632030240004;-0.5305275681661077;0
1.5045308324000453;-2.6922655166008784;2.263613025642373;2.6053305619275076;0.5862201414157571;-0.5893675660136258;0.34365405420151024;0.7191934870128311;0.030956982270373416;0.44694278273979177;0.000958334751288214;0.0346691138982358;0.07545630671968989;0.728318778856766;0.5304482436354109;1.2501085814460116;-2.9275938775947186;0.3264632030240004;-0.5305275681661077;0
1.5045308324000453;-2.6922655166008784;2.263613025642373;2.6053305619275076;0.5862201414157571;-0.5893675660136258;0.34365405420151024;0.7191934870128311;0.030956982270373416;0.44694278273979177;0.000958334751288214;0.0346691138982358;0.07545630671968989;0.728318778856766;0.5304482436354109;1.2501085814460116;-2.9275938775947186;0.3264632030240004;-0.5305275681661077;1
1.730662619041278;0.19006780765976097;2.995193100946816;1.5976850286907236;0.40561378778380136;-0.1818422595650032;0.16452254484032267;0.48774198901356747;0.027347577065601692;-0.2597724215131099;0.0007478899713590237;0.0285510349750178;0.07035790761700811;0.9081971317676518;0.8248220301509894;0.3367516704666671;1.670619115640232;0.32657995455809213;0.2252833438041351;1
2.20983507142673;1.08523131214809;4.883371042907581;1.6246326979049563;0.24441683963125807;0.8482819613965079;0.05973959149533213;0.2762261010418423;0.027938110622629218;-0.2733460492599266;0.0007805380251622676;0.0285510349750178;0.0723972672580808;1.1349531726501825;1.2881187041087148;1.292632624712005;-0.21446004972426516;0.32238013333234394;1.1008432035435627;1
2.466246942693433;0.5778479101404331;6.0823739823447065;2.8684285966900367;0.11308444077460904;2.437859172516333;0.01278809074530606;0.08760282151408116;0.04169854675833253;0.13625882566319447;0.0017387688017568446;0.0356887937187723;0.11114510043846221;1.2330214042842083;1.5203417834230009;2.2067023156826435;-2.78068690597167;0.3097592037832828;-0.15277205018852552;1
1.5056671792123661;0.29798310240518927;2.2670336545573235;1.3692697038363573;0.09376733656033338;1.4279703794448355;0.008792313405618833;0.08760282151408116;0.040360519388036246;1.721526801611193;0.00162897152527205;0.0193739165901907;0.11114510043846221;1.1909468234641358;1.4183543363193156;1.1553071491082232;-0.017690875089360958;0.2554940078023916;-0.7866478663924071;1
0.8349290517025558;0.5054691453770962;0.6971065213769291;0.6367648005824504;0.18578994732829832;0.22971772525095702;0.03451790452825186;0.22885124132001833;0.06373855351850291;0.1624044533787862;0.004062603204631059;0.0560823901294992;0.17028653002957062;0.721585753910834;0.5206860002470667;0.7655426322655723;-0.5620513438818442;0.14492199663883998;0.1798920777548996;1
1.5483633003072044;2.9283304816135973;2.3974289097382178;0.6367648005824504;0.2799497872865662;-0.7523757645046155;0.07837188340179367;0.35569635848754766;0.07192393852338677;-1.453063701384334;0.005173052932715919;0.10502702151524411;0.17028653002957062;1.4045237712686627;1.9726870240587464;0.7655426322655723;2.58547881997983;0.30416053272333743;-1.4808382183045419;1
1.5296256448738708;2.9219420644203;2.339754613455805;0.5112909955311737;0.3611130620061259;-1.0547478477957775;0.13040264355144013;0.4616201994887297;0.07162842492830923;-1.5939552693943497;0.005130631257710431;0.10502702151524411;0.17028653002957062;1.3621205315189673;1.8553723423855137;0.6177888910800631;2.3949115457838617;0.3027660310012282;-1.2278085380624937;1
2.069743880581415;-2.2893567512705246;4.283839731204213;2.983446652298911;0.42696598545902237;-1.1714887173323376;0.1822999527389941;0.5466227643235657;0.04779949691588871;-1.6347775954503447;0.0022847919054120544;0.0662791883348628;0.1152238197206076;1.8830894411224726;3.5460258432669463;2.368518303610987;-1.7410593390196247;0.5025250690069095;-0.3091195278303183;1
2.1216819010715224;-2.460185736193882;4.50153408933447;3.342415486703877;0.47685946877761454;-1.223580381941628;0.2273949529628687;0.610704052992056;0.04488676434511007;-2.104502293891381;0.0020148216133734445;0.0662791883348628;0.1060467013357804;1.7342730681844547;3.007703075029922;3.1405437298167036;-2.959000961863257;0.6313236891884986;0.292545736664965;1
1.8099323008537138;2.491456561322291;3.2758549336736182;0.7766823634815119;0.5027108467330131;-1.3320485806091267;0.252718195423023;0.6538640654942101;0.034818743915496796;2.022459768115469;0.0012123449278529453;0.0147853573977771;0.0958499031304169;1.4970491677440008;2.2411562106430054;0.9436467171413905;2.8556753001041053;0.7046947398450899;1.709420924619333;1
1.8149313442418833;1.8483427972814006;3.2939757843116495;1.1191256306542205;0.5398946070449611;-0.9486001094027223;0.29148618671623294;0.6516651614150777;0.01783711194507584;-1.0491978245546416;0.00031816256254116717;0.0224329560517996;0.044356072193331195;1.500714317254569;2.252143462012847;0.4283137688619061;4.289168918002258;0.742440054416563;2.0350852722944524;1
0.845728862733366;0.10220914710523843;0.7152573092602726;0.7794384562057215;0.5388777619889216;-1.5121968008402895;0.2903892423661888;0.7255798469653258;0.02398957959828402;-1.3546347094003839;0.0005754999293024049;0.0300805547058223;0.0601611094116446;0.4751757852013925;0.22579202684175986;0.4096371139088394;0.04377696035182529;0.3982605145336446;-0.46595001232106936;1
1.7365987404657315;1.4056046977402765;3.015775185387165;1.2811763951395052;0.4807530963830183;-1.6818624511891649;0.23112353968185967;0.6875132449334731;0.02470067817459321;-1.7544691460250874;0.0006101235022848255;0.0346691138982358;0.0601611094116446;1.427078954622909;2.036554342727615;0.8106509260677405;3.0462497210813573;0.8116122933334915;1.655521290218291;1
1.7295163139709244;-2.783416544451603;2.9912266802915735;2.890952671092177;0.39373134174723873;-0.06516124014318099;0.15502436947408088;0.4344349368154474;0.024209612720028736;-0.033989106605124185;0.0005861053480537772;0.023452635872336102;0.06423982869379;1.7152235932460573;2.941991974827916;2.798689604479557;-2.7303922754878758;0.7066524895512657;0.28790974613361275;1
1.8917715920456664;-1.7520383099531156;3.5787997564709952;2.511476001348239;0.26053040206430134;-0.10808271096689263;0.0678760903997865;0.30934037048758123;0.029264988493422114;0.37096903823590327;0.0008564395515201287;0.029570714795554197;0.0754563067196899;1.8940231573935902;3.5873237207431847;2.5339788038222384;-1.8010860829755977;0.6037756024427374;-0.7471883451389655;1
1.7424905464481966;2.364310578459205;3.036273304461335;1.1838538632878022;0.20053916750982942;-0.5279149297970882;0.040215957705535425;0.2121963829096738;0.01688794198998212;-1.6200891302016533;0.0002852025846570013;0.0224329560517997;0.040787192821454106;1.739057712299002;3.024321726706639;1.1346888433989437;2.5129648618776153;0.5089691584639314;-1.5773374780331801;0
1.0797027234491539;-0.7252507463276446;1.16575797102352;1.1838538632878022;0.13482365406449304;0.8891543828615008;0.018177417695302088;0.097878867148256;0.031664301204657026;2.0715953827272613;0.0010026279707792446;0.01121647802589991;0.08769246456612631;1.065185459199398;1.1346200624898328;1.1346888433989437;-0.5343757430643036;0.28350418878450695;-0.7043475480041544;0
1.3866562483242506;-2.122872244890998;1.9228155510166856;2.108571327325459;0.18146608699808686;1.5572708683014784;0.032929940730397234;0.097878867148256;0.02679838071559042;3.38360319543713;0.0007181532089777286;0.01121647802589991;0.0693382277964719;1.3874815697666676;1.9251051064421763;2.0891783727917708;-2.0688164314741244;0.4278182918251863;0.06264911424646868;0
1.832541426215448;0.44618835052966804;3.358208078795748;1.5079062761758504;0.18155103342766868;1.5825662370102183;0.03296077773865447;0.097878867148256;0.03978058367111484;1.2145272749563294;0.0015824948372145686;0.022432956051799707;0.110125420617926;1.6788286572178035;2.8184656602957334;1.571894985315709;0.23238332275878903;0.6775022006872868;0.5491236993268176;0
1.1958035298337213;-0.22928193889539492;1.4299460819627876;1.2117778591445962;0.3171714878431313;0.6010164050013896;0.1005977527006256;0.25229215437630703;0.04129136745523881;1.2155746461722228;0.0017049770263235545;0.0316100744366269;0.110125420617926;0.9982400088110439;0.9964831151910731;0.8069759018738574;0.3950423830673155;0.5620651087190035;0.2417698775164796;0
0.8525755882047971;0.8767885904205729;0.7268851336027558;0.6687519014269019;0.3922541189086178;-2.5466809092682965;0.15386329380077607;0.6001153434789335;0.04129136745523881;1.2155746461722228;0.0017049770263235545;0.0316100744366269;0.110125420617926;0.6650491838012983;0.44229041687477305;0.5394506912363703;1.4073968360786786;0.4342131778677552;-1.0863404235876708;0
0.9162204616223983;-2.79379303906738;0.8394599342955607;1.6485422356190482;0.4275255919666975;-1.8120704395559553;0.1827781317864751;0.5935723730421243;0.022381913992370665;0.17045616091987034;0.0005009500739618778;0.024472315692872497;0.0560823901294993;0.5480966613168202;0.3004099501466451;0.3989284954664096;1.3003553409339166;0.41261393499048216;-0.8875541946369035;0
0.8343678437367366;-2.277152382689818;0.6961696986618912;1.2133515952090834;0.29543391942010744;3.9063602930409664;0.08728120074392655;0.11841605706600156;0.022759655615122696;0.116083093838616;0.0005180019237189861;0.024472315692872497;0.0560823901294993;0.5586526222635722;0.3120927523619655;0.47617200068986865;1.0206253147620892;0.41572571394964425;-0.9229290563914307;0
0.8063837819410216;2.5164111695068954;0.650254803777505;0.6661683799430116;0.0735111283264751;-0.652789419583718;0.00540388598783149;0.08098029430805109;0.016608577971317085;-2.3287691863322686;0.0002758448622293191;0.024472315692872497;0.0387478331803813;0.331531547931267;0.109913167273702;0.5394506912363703;-1.9758515168339958;0.20240886618881554;-0.38910417179595946;0
1.144540683749992;-2.6906344779752622;1.3099733767588992;1.9635776027996468;0.08310742836600833;-0.4557070147063496;0.006906844649611207;0.08098029430805109;0.015379935891708286;3.65158797246693;0.00023654242803305674;0.007137758743754399;0.0387478331803813;0.3576687634983824;0.1279269443824618;0.668501637218635;-2.898870226821197;0.22186240003319072;-0.253945924763659;0
1.0088681430647917;-2.00908059012018;1.0178149300910009;1.4908076294530732;0.11797068251742866;-1.2602504361967632;0.013917081933627949;0.15169476247509728;0.017313550813357923;-3.2003639693449304;0.00029975904176672677;0.031610074436626896;0.0346691138982359;0.36430750966022063;0.13271996159483176;0.47617200068986865;-1.3806868506157197;0.253384138612037;0.7364657224746665;0
1.0600301089429762;-2.4931327891660806;1.1236638318656582;1.7327159667398637;0.13127506484384352;-0.1921231587414821;0.01723314264975532;0.15851051168628816;0.015901775213311205;-2.675263888288038;0.00025286645493467866;0.027531355154481497;0.0346691138982359;0.3906402840571061;0.15259983152821655;0.5991240642717204;-1.6992689325652286;0.27695693703441915;0.6767877771136055;0
1.1122815102289287;-0.5290729714756589;1.2371701579971464;1.3613439413107546;0.07733804812194024;-1.9638823771519103;0.005981173687311544;0.11105631121195714;0.01714760722714621;-3.0214599809144684;0.00029404043361647695;0.0336494340776996;0.0346691138982359;0.3638933690236951;0.13241838401941516;0.3669528407855307;1.5317937215287667;0.2667764134140798;1.315898570918459;1
0.6828739478283483;-2.340797692614624;0.46631682862267376;1.0388828743760543;0.1464892224215693;2.2956917450489023;0.021459092285676003;0.11105631121195714;0.018710499552094407;0.5912811050915986;0.000350082793488925;0.014275517487508896;0.049964311206281205;0.16014881337737819;0.02564764242618231;0.2091307598800316;-1.4870303132395943;0.13007205900116536;0.18746549879093377;0
0.8035878825838396;-1.9117378262712894;0.6457534850355787;1.1412688073821837;0.20244403539746378;-2.635044083534909;0.040983587468009564;0.34284561099204414;0.021685883411514756;-0.8068046732332661;0.0004702775393378108;0.029570714795554204;0.052003670847353904;0.24225578643551274;0.058687866061488764;0.3669528407855307;-1.5624701539315768;0.18621356425144497;0.4194117746256395;0
0.7648477392361862;-1.1973288698643063;0.5849920642147052;0.8509059350718284;0.22337590234678342;-1.748513851258733;0.04989679374923972;0.3090466897337216;0.026090655784533325;1.3175208137116836;0.0006807223192670023;0.0183542367696543;0.0693382277964719;0.21284095876303158;0.04530127372716651;0.17288180084414972;0.39325637640808964;0.1545282849249198;-0.6201299078808342;0
0.7287392195246444;0.0652632663661296;0.5310608500733878;0.6129903333944777;0.14959900654705924;2.403253010389072;0.022379862759867072;0.07725738995363463;0.021181378686490237;3.1944643238371313;0.0004486508030605029;0.007137758743754399;0.0560823901294993;0.1288522192017354;0.016602894393212067;0.10148059635214102;0.7934945648213964;0.08971934777622739;0.6852631606639448;0
0.4697813751415392;0.6073221407096661;0.22069454042987563;0.3480312441649869;0.18019548957035605;3.087224744511836;0.0324704144615003;0.07725738995363463;0.04982156020528976;3.1506070388329923;0.002482187861289312;0.007137758743754399;0.1345977363107983;0.18941949528034746;0.03587974519226157;0.17288180084414972;0.12348363935352442;0.13807834338370065;0.11818774250397203;0
1.1840792672979985;2.091174587292894;1.402043711244965;0.9289233829351196;0.3589874537672594;0.17681973246768953;0.1288719919623002;0.3827074479918018;0.04947811800963225;2.8968787420211206;0.002448084161775095;0.010196798205363511;0.1345977363107983;0.3848905893239157;0.1481407657501111;0.27135337977378393;1.50968879624446;0.2492313939618907;1.0288117618017025;1
1.139904653157793;-2.1894237472605815;1.2993826182907882;1.7617762709353006;0.510567849346831;-1.6598715834150302;0.26067952878664824;0.747361301025304;0.048979670337565444;2.812624928190717;0.0023990081063765883;0.0030590394616091116;0.1345977363107983;0.38197176531993987;0.1459024295016312;0.14791088490020732;2.7387617307597742;0.2513597690446094;1.3712114983398471;0
1.0281592029512574;-0.5299192303470642;1.057111346613365;1.148785937540823;0.5893142358939757;-1.2109095647221924;0.3472912686273004;0.747151971252257;0.042405687431280294;-2.169190971326357;0.0017982423265194437;0.0632201488732538;0.08973182420719891;0.4838954760990017;0.23415483178907953;0.38320786571587706;1.1697223475348864;0.3454370977217552;0.9070818233595744;0
1.1244922352415359;0.9928444530683175;1.2644827871185054;1.2249147454450888;0.570749987178607;-1.3082426797999898;0.32575554786438005;0.7424247946094518;0.04617697496791738;-2.1440423483427438;0.0021323130171876687;0.0632201488732538;0.10706638115631681;0.5979682077544735;0.3575659774850971;1.0263156624595513;-2.5790071900210023;0.3811540026645902;0.019492269561425503;0
0.6830532854062448;-0.1776692090031453;0.4665617907042649;0.6548323316695486;0.5293896562920625;-1.293934719917529;0.280253408189028;0.6847730540545287;0.03273791596987268;-0.9567983636025232;0.0010717711420504448;0.03670847353930871;0.0815743856429081;0.7186931791720986;0.5165198857884983;0.6921661887368686;-0.3327281733042599;0.3801702724899847;-0.5501788034762973;0
1.785319967784907;2.5404839504659846;3.1873673873715016;1.132277744791062;0.4478123281749053;-0.9865853908997112;0.20053588126542907;0.5860370080661907;0.032374633577032796;-0.8489036280116041;0.0010481168992471392;0.03670847353930871;0.0815743856429081;1.808099629503462;3.2692242702105565;1.224864777012335;2.3529183098932123;0.7034129123067383;1.4267212948360766;0
1.864500811011556;-1.5485861030689587;3.47636327426275;2.385919414696457;0.41589335177537545;-0.3016844101599041;0.17296728005095618;0.42019841381986;0.032143374600524896;-0.9655376902056586;0.001033196530709669;0.0361986336290405;0.0815743856429081;1.9012115521967101;3.6146053662062236;2.507449063930441;-1.6610841143774746;0.5922057953973833;0.1284453948043092;0
1.450011882315954;-2.5353647658775422;2.1025344588574564;2.180608739011534;0.42013417339961184;-1.1738385345569273;0.1765127236581751;0.5088080955608065;0.040135768693006627;0.07116718435719349;0.001610879928578531;0.0361986336290405;0.1060467013357804;1.4860049286151102;2.2082106478683987;2.3121836848322297;-2.636262971470528;0.36728783095225487;-0.49429821285317516;0
1.2650020390027799;-2.6278637323596334;1.6002301586811907;1.98978154407079;0.45066520113608877;-1.652429211511284;0.20309912351503134;0.6433600926146197;0.04855057458142099;-0.6001152960773398;0.0023571582921861215;0.0509839910268174;0.1238910981951666;1.1834257823872687;1.400496582418919;1.6729580750035913;-2.0033465871974108;0.27648381364891506;-0.4779483494388488;0
1.149299619406046;-2.403008901605927;1.3208896151668825;1.7328409173611679;0.488394202742552;-0.9099885275115452;0.238528897272533;0.5837703524742781;0.05306304449560459;-1.7516182623311398;0.0028156866911425125;0.0805547058223717;0.1238910981951666;0.9058661852333518;0.8205935455492253;1.2975013262761301;-2.0181722289614874;0.20205758797831724;-0.21176786594018698;0
0.9151882661151586;-2.8834340529864284;0.8375695624348704;1.4607061799245775;0.4248375150372791;-1.722531007191364;0.18048691418305035;0.6071215140465385;0.03511164966930782;-0.2743755285329558;0.0012328279425002037;0.0387478331803814;0.08769246456612609;0.6936438523845778;0.481141793950918;0.9600681170988752;-1.9596658726623286;0.16673968255769306;0.34709111974569784;1
0.7967992193917149;4.417858614798412;0.6348889960232463;0.11793943230117154;0.31838057402597664;-0.33942435271247123;0.1013661899171104;0.38783134930248164;0.021577735704284902;-2.902562096546547;0.0004655986781239715;0.034669113898236;0.0458855919241358;0.6276412717055537;0.39393356594816475;0.1878048696194723;3.173132856427953;0.1573457425491245;1.5494653278433905;0
0.24608811632031777;1.4969962669817523;0.06055936099408225;0.11793943230117154;0.17338894698861276;2.8566751225011964;0.03006372693781997;0.09760411954408132;0.023963560523818574;-2.793238447918833;0.000574252232978716;0.0387478331803814;0.0530233506678902;0.2790658935691887;0.07787777295356976;0.1878048696194723;1.4742460408709448;0.07334824440938582;-0.9145522616107808;0
0.7817101430552736;4.067087849191776;0.6110707477554964;0.36842683661020637;0.1577689520433745;2.257026918071021;0.024891042228864596;0.1235466296592107;0.02350356456612753;1.6440279497259727;0.0005524175473141256;0.013255837666972501;0.06423982869379011;0.7439384793303373;0.5534444610283347;0.27168069687384744;4.31017991917476;0.17545191997763804;2.0507865585643854;0
1.149460956642014;-1.965395454174125;1.3212604908443737;1.7419194479724807;0.17187493645099677;-2.9038517144475158;0.029540993780034178;0.3009997563955604;0.02118628689619261;-0.46528238231995783;0.0004488587524477827;0.0254919955134087;0.0520036708473538;1.078505573208331;1.1631742714414308;1.6140230405101264;-2.071328251631344;0.22781862813725304;0.7840567221985708;0
1.1223154694856623;-2.636466672973538;1.2595920130468226;1.7796398064114456;0.16898781657551493;-2.6528108807632265;0.028556882150959875;0.3009997563955604;0.027468970707910444;-1.7314359934610895;0.000754544351752042;0.0387478331803813;0.0672988681553991;1.0550080785741058;1.1130420458566268;1.677764941668693;-2.7401160782360243;0.20656924254581124;-0.4118877550876916;0
0.8715076345391701;-1.082979608282579;0.7595255570600596;1.0956434351404027;0.15605877638791293;2.096759037677271;0.02435434168769261;0.13922560541291418;0.020822451164129806;-0.36107516864197464;0.0004335744724825707;0.020393596410727;0.0540430304884266;0.8231208204198014;0.677527885008567;0.9171818126175726;-0.45565850870071384;0.15490428645692383;-0.6798088954092578;0
0.6440484318787988;-2.1647726136276346;0.41479838260553975;1.022352697701109;0.1200812041311546;0.3405107971969379;0.014419495585588022;0.13922560541291418;0.019753911643882405;-0.6763808244637014;0.0003902170252343129;0.020393596410727;0.0509839910268175;0.5985746072616893;0.35829156045848565;0.9171818126175726;-2.001457832532953;0.10975214463222147;0.09144347699243023;0
0.7414049719813525;-2.3520103764910196;0.54968133247867;1.0956434351404027;0.16931270795220504;-1.607669433467952;0.02866679307410868;0.2503356897505009;0.03178556430376322;-0.8061169059054502;0.0010103220981086667;0.0356887937187722;0.07851534618129899;0.7124456651981522;0.5075788258596375;0.9770749191140329;-2.046019563485764;0.13554928375526315;0.6594850299833424;0
0.4952994980589891;2.732317600999842;0.24532159277748652;0.31419467147070534;0.2795039676364991;0.8938349516081926;0.07812246792454512;0.25706508591916855;0.030431933823855735;-0.7237547619325587;0.0009261025962595347;0.0336494340776995;0.07851534618129899;0.4752549681655863;0.22586728476607248;0.05989310649646029;3.827843576874867;0.0954113462086856;1.8088924400571855;0
0.1744498744461916;1.7587207496149364;0.030432758694292013;0.09025024085414834;0.4125251219806583;-0.8426249937633384;0.17017697626515704;0.47503842744525926;0.023745626199673565;-0.18726387485923723;0.0005638547636146236;0.0254919955134087;0.061180789232180996;0.205320700831685;0.04215659019001429;0.282864169424772;-1.7689919820697628;0.043643642196182206;-0.8189195300175207;0
0.496888600489113;2.686752470173315;0.2468982812960293;0.33115417488556;0.43069186581265295;-2.233577793065024;0.18549548327718424;0.6783867917625734;0.017253392359008957;-1.9456483402181075;0.0002976795478939087;0.0254919955134087;0.040787192821453995;0.3861611381395912;0.14912042460926442;0.282864169424772;1.4838237550822864;0.08023626999927617;1.0875580849312734;0
0.5117088107869181;-1.1116643772598422;0.2618459070369619;0.6842929226820385;0.38570471594215494;-0.7935845097228823;0.14876812790001842;0.5348291060368648;0.024887290933704807;-1.306369477027309;0.0006193772500188656;0.030590394616090498;0.0622004690527173;0.3960099391270089;0.1568238718873773;0.4484775196828066;-0.27154866782594905;0.081658317074788;0.5912280451520283;0
0.5655008339804573;-0.9556270016177422;0.3197911932325927;0.6842929226820385;0.2287832778651831;1.972621659329846;0.05234178823073758;0.20943943106331897;0.0188157867719444;1.6589622672023683;0.00035403383184727776;0.0091771183848271;0.0520036708473538;0.5306088838731333;0.2815457876450923;0.5900820096841475;-0.7534424233281681;0.11174288533744331;-0.128702698590191;0
0.5989249626286626;-1.486054530731084;0.3587111108597449;0.7611444549077824;0.08926599893543573;1.2430392936170307;0.007968418565941212;0.08616861886159088;0.01876598751363065;2.3884345997553695;0.00035216228736174144;0.0040787192821453;0.0520036708473538;0.5606267905345491;0.31430239826506917;0.7026708276240798;-1.2987119047447753;0.12079691563200216;0.6543204202545742;0
0.9639716999318673;-0.23584327036182393;0.929241438269534;1.0169454116819017;0.05065496469647965;-2.725773324646837;0.0025659254484016;0.08616861886159088;0.014140132102334042;1.7779600419588892;0.00019994333587145771;0.0040787192821453;0.039767513000917604;0.8990458624856663;0.8082834628525956;0.9540618687613183;-0.2936355602800778;0.20536261586959423;-0.41419251786839695;0
0.9305349485441751;-1.687265126928421;0.8658952904621104;1.300872388266967;0.044998714169888515;-0.1163811599006775;0.0020248842769433257;0.05244006046218286;0.019339001345114296;-0.6045279601223564;0.0003739969730263326;0.020393596410727;0.0499643112062812;0.8661187857069792;0.7501617509545322;1.2035260144382827;-1.6671069939130223;0.22335324386034994;0.119361385727289;0
0.8463951386249147;-2.2125485223075856;0.7163847306878884;1.210339001151282;0.0439311846606641;-0.3003804050972387;0.0019299489856893686;0.05244006046218286;0.019002739566043116;-0.2652712558870114;0.0003611041110148605;0.0183542367696543;0.0499643112062812;0.789170079952992;0.6227894150930118;1.1286735494548021;-2.1768688974093613;0.234684452976312;0.21488696380206476;0
0.787219964870764;2.735379573789982;0.6197152730911268;0.5187571885881415;0.09354288914696088;1.0274568107266024;0.008750272109960612;0.09784248913440785;0.01958740971989244;-1.0399673915437393;0.0003836666195349368;0.0224329560517997;0.0499643112062812;0.7485105523972804;0.5602680470500818;0.5676292699345256;2.5058179684014825;0.2447126185085216;1.5278295684248853;0
0.3296707747256461;-2.1780388002566546;0.1086828197082077;0.5187571885881415;0.22861878070487995;2.382729053999938;0.05226654689098599;0.1669130004064323;0.021981137398899134;-1.7200973631890701;0.00048317040134928215;0.0336494340776996;0.0499643112062812;0.288536941504674;0.08325356661287167;0.41146087390492525;-2.447144970419123;0.10353723068637766;-0.41219237527668073;0
0.5324832459551254;0.13909335277896653;0.2835384072229066;0.5699362557734888;0.3480295411479129;-0.9315473016843635;0.12112456151162682;0.4665161554638486;0.013955092303149185;2.0657079599983206;0.00019474460118941363;0.011216478025899902;0.034669113898236;0.41404651016029387;0.17143451257591832;0.41146087390492525;0.13947444848729637;0.1446415898967888;0.7031087460761521;0
0.5561401337862258;-1.6253797821210465;0.30929184840776114;0.752222501629559;0.4197043220113545;-2.143269800950024;0.17615171791501072;0.6501928728930881;0.0149061705447983;1.4954051759572582;0.00022219392031061247;0.011216478025899902;0.0387478331803814;0.42082711738207795;0.17709546272410923;0.4990947691956844;-0.6894634885715334;0.1459092791818308;0.4387186290643092;0
0.5881614831038243;-0.3385116157890593;0.34593393020689023;0.6080477210527651;0.3829529343347145;-0.866665882579678;0.14665294991556815;0.5242764510828957;0.014892213453212682;1.7191438799444896;0.00022177802153604883;0.010196798205363504;0.0387478331803814;0.49633361751656185;0.24634705987707672;0.5350422650967652;-0.7925548288218044;0.15703467532476625;0.17634551478557872;0
0.4153806811250665;-2.3042756446569364;0.17254111025192415;0.6482357947896276;0.2613303476683526;0.6021673820865155;0.06829355061246206;0.26069234890073933;0.0086642788972154;-1.5607231374815964;7.506972880873212e-05;0.010196798205363504;0.0214132762312634;0.38517226447838193;0.1483576733234046;0.6394850721794021;-2.651966231106306;0.11367450899617479;-0.23400820681113443;0
0.34766697309388334;0.79293762910275;0.120872324180263;0.3609047217485051;0.13867825137983683;2.462954314088067;0.019231657405769216;0.1118886734651321;0.010237504148474418;1.4684311224502515;0.00010480649119003094;0.006118078923218098;0.0275313551544815;0.34251986322893846;0.11731985670637071;0.33422591430459647;1.192149923955597;0.09574403938309818;-1.2285355068628374;0
0.36059508592522516;-0.9246061744134219;0.1300288159934205;0.4724182406699766;0.07843117424955613;-0.5918208676641399;0.006151449094164238;0.0823204180016428;0.01090151708853191;1.7837435674878641;0.00011884307483155327;0.0091771183848272;0.0275313551544815;0.35847109458934556;0.12850152565608353;0.47812817969711974;-1.0397065204702507;0.10101552738759403;-0.7885332641697085;0
0.2323514833803848;2.0093102988308273;0.05398721182906523;0.21799154820043487;0.09696666940021638;-0.07454765981339999;0.009402534974570859;0.09087560854053689;0.0077321050719399475;-0.5769376181444675;5.9785448843519465e-05;0.0091771183848272;0.019373916590190703;0.23318495173639858;0.054375221716306536;0.2182566896308913;2.043307744476118;0.06267132231544935;-1.5275002277245897;0
0.6199412531627764;2.33011693862869;0.3843271573730336;0.551979386714839;0.07704343024150544;-1.7028670545289242;0.005935690143377714;0.11225571220664277;0.0159507390217285;0.8362274080554238;0.00025442607533929224;0.016314877128581703;0.0387478331803813;0.6204294351032593;0.3849326839425495;0.5542356573968106;2.3240723052367094;0.1803930907006528;-1.5792983058187287;0
0.6191483751984805;-0.1920777254081069;0.3833447105109184;0.7874355525897725;0.07504813511017527;-1.4905394929958529;0.0056322225835151235;0.10311568629251133;0.016356249164709076;-1.8967682723924852;0.00026752688673804635;0.0244723156928725;0.0387478331803813;0.6193496310870623;0.38359396552768016;0.7874099343592849;-0.18211079079004358;0.18624319596725863;-0.7446859116232835;0
0.7866161762433836;-1.064457702500403;0.6187650087277621;0.9292608421489117;0.1663856148609011;2.724704931199298;0.02768417283264011;0.10311568629251133;0.013899099999093462;-0.7934675177653728;0.0001931849807847999;0.0163148771285817;0.0356887937187723;0.7738399450482005;0.598828260552202;0.9290756134920892;-1.1495421013551521;0.26379790599375674;-0.18423292863193197;0
1.0832925694072169;-0.6472816729010518;1.1735227909328896;1.2097236154250859;0.23065511091554075;-2.455761261947906;0.05320178019146041;0.36761745581714456;0.011400366970020288;-1.5740799999994952;0.0001299683670511296;0.016314877128581595;0.027531355154481497;1.0445184008052388;1.0910186896207335;1.1727457432703001;-0.6718972277838375;0.4172357652396653;0.15264617665716915;0
0.7378903477631548;0.8783534340242376;0.5444821653220294;0.5159189391511076;0.27335557573700825;-1.525334009845352;0.07472327078651125;0.36371928119212615;0.013263679038653248;0.9692461814467705;0.00017592518164040953;0.011216478025899798;0.034669113898236;0.699696343210399;0.48957497270200445;0.4768444067406852;0.8902095742957066;0.3218042374858707;-0.2049786344492823;0
0.73713840164803;0.9067155211211558;0.5433730231842124;0.5080147701934918;0.2902412584227346;-0.44786648369064724;0.08423998809081264;0.3068615625995208;0.017519511854727863;-1.7860841210035427;0.0003069332956279501;0.024472315692872497;0.0428265524625268;0.7150331151542791;0.5112723557672326;0.6255483254298222;0.36201445331015236;0.3244203791537561;-0.3514256720509342;0
0.5987397198440741;1.3555527670689749;0.35848925211896043;0.5080147701934918;0.24910081338249945;-2.304174518227896;0.062051215227822816;0.3944366566977635;0.019793348520119793;-2.379609720475397;0.0003917766456389284;0.0326297542571633;0.0428265524625268;0.6292840969165071;0.39599847463202387;0.6255483254298222;0.5296051755942391;0.2933804852920406;-0.8904627011896562;0
0.6288984481296231;3.268355564830941;0.39551325805984827;0.38903899503619144;0.2129123974009448;-0.47630729056346394;0.04533168896701785;0.27668412012411703;0.02425895228585769;-2.2702493476007604;0.00058849676600752;0.0326297542571633;0.0571020699500357;0.6590456810408251;0.434341209698565;0.465615199062801;2.9260783463726816;0.2863546524633956;-1.7101630098419398;0
0.2053410417056412;1.0504818917300394;0.04216494340875788;0.2215912698261926;0.11715647342300707;1.7500557027469743;0.01372563926491576;0.09063659851717976;0.02221872735795223;3.787145068486334;0.0004936718454070149;0.0061180789232181;0.0571020699500357;0.22782824503859508;0.05190570923736612;0.20874241338277333;1.5819020839594262;0.0870500998407277;-1.4131716860383525;0
0.18740251053251825;0.38945638270657906;0.03511970095389061;0.2215912698261926;0.09809899589931728;0.5152682554692412;0.009623412996454268;0.10935006255602353;0.006285728564259129;1.3351800554071172;3.951038358354313e-05;0.0061180789232181;0.0142755174875089;0.1494234567540969;0.022327369428343465;0.20874241338277333;-1.6395638793630134;0.056210707133902534;-0.6482139721138417;0
0.2274783625980882;2.2765018262181633;0.051746405450307294;0.10847347538508778;0.08547216224371973;2.1383158467026617;0.007305490518616748;0.019458548197642145;0.006670919642620993;-2.7626866975247606;4.4501168878306595e-05;0.0122361578464362;0.0142755174875089;0.18428337977999676;0.033960364063138515;0.09449360005634411;1.7937829126521017;0.06728913532960178;-0.8462838503149882;0
0.22280079909471015;1.767033406801552;0.0496401960772414;0.10496783894925787;0.1892934310007194;1.432417529357096;0.03583200302002412;0.14608854864059162;0.013936453197324198;2.3640348664995714;0.00019422472772120787;0.0081574385642908;0.0367084735393085;0.19116252306622977;0.03654311022504683;0.15120555058988616;1.2432596367416064;0.06951308981662739;-0.9575553328054967;0
0.47299548197099783;0.9823759887607105;0.22372472596497653;0.43822502985441947;0.25717851549842957;-2.2167989002929525;0.06614078883397598;0.3960309329170313;0.016057933871748295;-2.562873959417273;0.0002578572402294412;0.0254919955134087;0.0367084735393085;0.32126523123554857;0.10321134880083048;0.4114927236824659;-0.9928184498246478;0.12152881685308149;-0.7936406120751237;0
0.6857122651095008;-1.407429048154924;0.4702013105216023;0.9206281199818247;0.2613606651371093;-1.8039978735431532;0.06830939728091218;0.36699042426611883;0.015199729249894158;-1.9261561619708516;0.00023103176927008804;0.0193739165901906;0.0367084735393085;0.4311542202459808;0.18589396163591976;0.6836588178252141;-2.252503686398667;0.17376026677839415;-0.057053673919167124;0
1.0330333938013996;-1.3693488457724772;1.0671579927088375;1.4077623323031623;0.2525802523158177;2.659564799395568;0.06379678385992213;0.17703670544351535;0.01233349004931865;-2.7664528873294576;0.00015211497679664218;0.0193739165901906;0.0254919955134087;0.5953809188889212;0.35447843857701616;0.9107870257731865;-2.1659661099159764;0.2583214298392699;0.019539800108589602;0
0.828613135737127;0.8463566020319971;0.6865997287161145;0.5698864294810693;0.12152522944305882;-1.9951443807762697;0.014768381391188093;0.17703670544351535;0.018317377988653218;-0.7259047341203578;0.00033552633637919734;0.020393596410727;0.0458855919241357;0.5160117506562956;0.26626812681537493;0.5120733510823021;1.133773501988505;0.2520886537913536;1.1629921562463406;0
0.47597376460901397;2.2392435355798312;0.22655102459607704;0.08275221715973169;0.16736579662743234;-1.6622531092119956;0.028011309880735042;0.2308337210011191;0.016432354651279523;-0.4744122131381978;0.00027002227938542774;0.0183542367696543;0.040787192821454;0.2655962194081824;0.07054135176391936;0.36309175423381146;-1.0462918345802936;0.1481981332266617;0.9199143386273521;1
0.4666399072903642;-3.1073137833591247;0.2177528030759597;0.7706058201950508;0.2697303186620568;-0.772950380242951;0.07275444480553472;0.34108717839254665;0.020283684643995475;1.0029710977543413;0.0004114278627370578;0.020393596410727;0.0499643112062812;0.36450822752869905;0.13286624793611382;0.09831048736180126;2.6054746908944595;0.2355788804278169;-1.190602562333071;0
0.4970725476820581;-2.915390633162635;0.24708111765913193;0.7706058201950508;0.28240085509920976;-1.3759109252503035;0.07975024296076486;0.3744742637449634;0.017608308733015093;1.806459143864026;0.0003100525364371756;0.0071377587437545;0.0489446313857448;0.286514952001469;0.08209081772040407;0.08645024700246617;4.200947172235861;0.19659605150286635;-2.002772609016863;0
0.6631493368879678;-1.8418298910745488;0.4397670430149514;0.8832998131546992;0.24768210143592923;-2.0379404465950586;0.06134642337171793;0.35547230622197357;0.012500958544938786;2.4759396708914934;0.00015627396454227804;0.009177118384827203;0.031610074436626896;0.4039164029649367;0.1631484605841331;0.6341921832827668;-2.582730864695113;0.3109679886414999;-0.624521435129857;0
0.9403895020910855;-1.5072502402558416;0.8843324156431198;1.3220531024511946;0.2448404474707873;0.3145944511952384;0.05994684471769535;0.22010350375490395;0.017504668581831095;0.8671658754961141;0.00030641342215974467;0.0122361578464363;0.0479249515652085;0.3475559968757378;0.12079517096428787;0.5477419362803007;-2.2550910450172075;0.28968306781192205;-0.025338779715372628;0
0.843858881110166;0.3134798603341231;0.7120978112285014;0.7222622299452621;0.1924613656157571;-2.1937380987647273;0.03704137725468214;0.2976224960021545;0.03052744960037483;0.16418633740266012;0.0009319251791034253;0.028551034975017903;0.07953502600183529;0.3368168037011198;0.11344555925543869;0.3951034981895839;-0.38977048739259007;0.3326367735196479;0.6872397370466328;0
1.0404479372838387;-1.4059350814108822;1.0825319101981945;1.4696724148051619;0.22252114792592903;-0.42972231321730564;0.04951566127427319;0.23502136896621062;0.035561836268032075;0.3340384480804464;0.0012646441987543213;0.028551034975017903;0.095849903130417;0.35753185255105746;0.12782902558859108;0.5268536524909139;-2.163329371307089;0.330355478687094;-0.1877453904651707;0
0.7526749430041306;-0.541561217588234;0.5665195698262713;0.9872900816396941;0.25457022233486215;-0.716768702737261;0.06480599809962113;0.28180093027170816;0.04984242525361434;-0.9750750903284976;0.0024842673551621324;0.0601611094116447;0.12745997756704391;0.3068315564549605;0.09414560403657363;0.5268536524909139;-2.6857698936974312;0.2942018487590183;-0.5662200587791697;0
0.7849516775778562;-1.8910337970268987;0.6161491361322907;1.1909305552532996;0.3110654761232067;-1.006182110911606;0.09676173043575727;0.4187043997887985;0.06800966289150123;-1.8118348399689477;0.0046253142466156395;0.095849903130417;0.16518813092688892;0.4701787792344444;0.2210680844423924;0.6503652678819167;-0.9991700658850249;0.5019432031526696;-0.9554106784645386;0
0.7591619270930319;-2.0832381596869425;0.5763268315476059;1.1909305552532996;0.3578744697832202;-1.4628743231881316;0.12807413612262097;0.4759273629338321;0.06806467824472384;-1.89268319596977;0.004632800424557783;0.095849903130417;0.16518813092688892;0.4729987694745111;0.22372783592440168;0.7428614824075386;-2.3748138277752666;0.5807265464089059;0.12967700505239216;1
0.5690837599322461;-2.95228631426267;0.32385632581862234;0.9259891340109112;0.35683664449789937;-1.455842161498057;0.12733239085652023;0.47372274618653876;0.06280184753556563;2.7022207394295683;0.003944072053880431;0.029570714795554204;0.16518813092688892;0.4686521841191556;0.21963486967965493;0.7428614824075386;-2.2029554946791854;0.5670519592065392;0.018150017260317855;0
0.5853161790437688;-2.975178881941678;0.3425950294503971;0.9560970829700448;0.31961698018539253;-1.0096455519197736;0.10215501402282962;0.41424797985797435;0.06176263887090241;2.547020074772979;0.003814623560297505;0.029570714795554204;0.16518813092688892;0.5295489671852428;0.2804221086469573;0.7454384251852284;-2.02637930622465;0.6089670587441688;0.2335103293466686;0
0.7278784667250341;-2.0071422955087;0.5298070623219866;0.9865138955558537;0.24712068659961076;-1.0835867666175432;0.06106863374546304;0.31989549064504885;0.038245470191125196;0.6067912432153703;0.0014627159901402457;0.029570714795554204;0.1040073416947079;0.7094336058076944;0.5032960410493071;0.9584327093978187;-1.8110094215642836;0.7108355093841495;0.5496039887593586;0
0.6335518417742426;-1.7606961152196163;0.401387936215535;0.9487027312596283;0.15190302780384163;1.2826195364950372;0.02307452985597468;0.10659724040739382;0.0263878480235342;-0.6239230584014214;0.0006963185233131379;0.029570714795554204;0.0683185479759356;0.5878135652292868;0.34552478746756504;0.8060540175442338;-1.518436428481144;0.5226846691677692;0.73676309670113;0
0.8955055460923249;-0.5631841088452904;0.8019301830821131;0.9865138955558537;0.07806553182554953;0.23603306144403055;0.006094227259205885;0.08659364095821376;0.030680334117005794;-2.1676006199802167;0.0009412829015311096;0.0509839910268176;0.0683185479759356;0.529399521987564;0.2802638538806613;0.665959625302122;-1.2243470632407245;0.44746842016966365;0.899351989095489;0
2.1760736511482803;2.441222183603737;4.735296535221807;1.168427746415852;0.06724735674642347;1.1612023773986013;0.0045222069893807474;0.05960186797880507;0.036362703131524524;-0.7578632625750773;0.0013222461790313835;0.0509839910268176;0.0846334251045172;1.8452466766501274;3.40493529768834;1.069816108302466;3.77098873638244;0.8788427431232065;1.9045394636368944;0
2.1676161662944287;2.116691511853715;4.698559844380957;1.168427746415852;0.08016823380312733;-2.9571422947192976;0.006426945711112889;0.13573324680553833;0.036952667719475946;-1.3044298086555355;0.0013654996515859996;0.055062710308963;0.0846334251045172;1.8245984395168633;3.3291594654873724;1.069816108302466;3.4507491037590206;0.8415849837927137;1.7947870450084487;0
2.167676281794154;2.2016178605865107;4.698820462652928;1.104252099755846;0.09610787222332805;-1.8902242025465792;0.009236723103295551;0.13573324680553833;0.032688651341827725;-0.7205603763774538;0.0010685479265475754;0.0336494340776996;0.0846334251045172;1.8257171457751764;3.3332430963774566;1.0347742513424978;3.5058663758306587;0.8448319577725372;1.8102798169124301;0
2.2245805896572075;1.864146150383996;4.9487587998796085;1.4909383878150826;0.087773538641806;-1.7683284242515296;0.007704194085704609;0.12253983555667203;0.03397691898178765;1.6194407975644;0.001154431023494962;0.029570714795554204;0.0846334251045172;1.8551730766027579;3.441667144151742;1.0601346754166878;3.3212413921603052;0.8714529369350867;1.7536471558473308;0
2.1568241925738594;2.1343044416693573;4.65189059767188;1.4909383878150826;0.23008149811489811;2.9701425205292296;0.05293749577479587;0.12253983555667203;0.01743920809267566;-3.085776901161287;0.0003041259788996442;0.029570714795554204;0.0367084735393087;1.9477479461822926;3.7937220618573395;1.1958450091404802;2.7698902190866996;0.9581440385601325;1.5740511304654814;0
1.2218165205582106;-1.6431263739281345;1.492835609908972;1.4909383878150826;0.2701791388474847;-2.870706781719207;0.07299676706836841;0.46588873358674077;0.013392398834061004;1.2499054820343456;0.00017935634653055854;0.012236157846436307;0.0336494340776996;0.9755543821906062;0.9517063526112953;1.1958450091404802;-1.5577764667099032;0.6381054664603829;-0.017012780031006532;0
1.2006246616401015;-0.8216080165083994;1.4414995781384083;1.4909383878150826;0.37506699812894445;-0.6839596231265818;0.14067525308545764;0.40579014899715293;0.01951561689536439;0.2864621937099301;0.00038085930280663203;0.016314877128581706;0.0525135107576221;0.9941082624545988;0.9882512374805015;1.1958450091404802;-0.8929528976016847;0.7495724123792065;0.871549767354034;0
1.1681841411766236;0.30118853297772574;1.3646541876965657;1.2058670186561555;0.3149044053986705;-0.6142964002348718;0.09916478453949022;0.3746066895513529;0.02898160742444485;-0.9800676739315458;0.0008399335689046369;0.03517895380850421;0.0739267869888855;0.9445601917129188;0.8921939557687459;0.7049648960914746;2.001458624350054;0.7691496407256904;1.4381333735415625;0
1.1156671954989799;0.9763033478962116;1.2447132911125591;0.823868519816634;0.2455172822006333;-2.479525865067661;0.0602787358591854;0.37440893875522585;0.03438944836930446;-0.6129675955255903;0.001182634159145057;0.0402773529111859;0.0876924645661262;0.9554068846777409;0.9128023152896262;0.7812279540062246;1.8982401691291102;0.7877661790446527;1.4366483828048398;0
1.3516405908296991;-1.428656963831956;1.826932286778458;1.912950804768599;0.26215301526235757;1.5503656361921412;0.06872420341114589;0.1920277541971822;0.03333627932609453;0.2686027268469348;0.0011113075193073974;0.031100234526358697;0.0876924645661262;1.3495319509767332;1.8212364867070678;1.9274770717390362;-1.4497012355108012;0.7111789319053742;0.7288919614368131;0
1.261951325729945;2.3405268041237632;1.5925211485115658;0.9767376271985226;0.1927329972286289;-1.1728758483549875;0.03714600822073068;0.25666741952678374;0.021542169143165785;-0.7080133869833887;0.00046406505139276406;0.028041195064749502;0.052513510757622;1.2605287272802264;1.5889326722987074;1.041373603347954;2.1815435665012437;0.7327046709292173;1.4620243130458044;1
1.1695065197404828;2.4400103565904416;1.367745499715496;0.40371477485383256;0.361584208378733;1.3241534858882413;0.13074313974887503;0.2834300193584067;0.03927819374976067;2.9518766793787257;0.0015427765042437382;0.028041195064749502;0.0968695829509533;1.164322089251512;1.3556459275190058;0.6575580174946554;1.8016404887859434;0.5920103061978339;0.9646406735322436;1
1.3085263096287763;-1.609495480095461;1.712241102990704;1.6236329180527482;0.46793517682404895;-1.400932110123757;0.21896332970935395;0.6361884738888473;0.039284811030625345;3.2094006150267638;0.0015432963777119427;0.0254919955134087;0.0968695829509533;1.3309533146717425;1.7714367258356982;1.8063537397632252;-1.4848300762447029;0.5496548438794026;-0.20222409843700348;0
1.075807363722746;-2.810155321490099;1.157361483840085;1.6236329180527482;0.5317410718680294;-2.2357147605139773;0.2827485675113608;0.8325271707661197;0.03695126082953537;-0.16842259792063766;0.0013653956768923553;0.0387478331803814;0.0938105434893442;0.9423931771774886;0.8881049003906814;1.615985272215498;-3.2242699257607863;0.3464045298525409;0.5713500970978761;0
0.8156793514561365;4.150464969119976;0.6653328043919033;0.2366519385203789;0.49303879441919246;-0.49491407979834773;0.24308725280233073;0.6133124433850408;0.040496825095283503;-0.863504818201708;0.0016399928427979836;0.0571020699500356;0.0948302233098806;0.7263064212919469;0.527521017609915;0.2678667485721955;4.022183002140747;0.29881342967759905;1.9602234281336544;0
0.9316460801852214;3.28834218609231;0.867964418724488;0.41815948453834917;0.3456568674961244;-0.12669229869358034;0.11947867004723328;0.3819387092606674;0.03954399328611591;-0.7235943796532306;0.00156372740501238;0.052513510757622;0.0948302233098806;0.6883330414278314;0.4738023759212886;0.2159675464246975;4.534174326954734;0.2776556763645236;2.1179263086318354;0
0.9325959161955883;3.5146848478054764;0.8697351429046889;0.35671810483247146;0.19415254933956538;1.5702949788971854;0.037695212415052366;0.12151181661074717;0.023907088717450526;-1.3843998838534404;0.0005715488909440503;0.0331395941674313;0.058121749770571995;0.6535433688164719;0.42711893492398306;0.32046514094719747;4.097244808787894;0.2558411565512118;1.9888370628618994;0
1.2527438448451786;4.1339869715329955;1.569367140797481;0.35671810483247146;0.10203481757208172;0.8453049946221659;0.010411103996967996;0.096193621447487;0.02846075984244736;-2.935611298578688;0.0008100148508094643;0.052513510757622;0.060161109411644695;1.0029730934892023;1.0059550262633;0.32046514094719747;4.61256723365652;0.36967289728969316;2.1295599000647414;0
1.5286197672162278;-3.0704492651275372;2.3366783927241945;2.5927591109775485;0.10289357235438736;0.7953506237301203;0.010587087231847547;0.096193621447487;0.026505791912930843;-1.2771220441776308;0.00070255700493159;0.034669113898235904;0.060161109411644695;1.2082650903915713;1.4599045286589518;2.1413578763058276;-3.2621193352515516;0.37863819811999794;0.565846337187828;0
1.4329068878255635;-2.3176903144549286;2.0532221491779423;2.4175485521630473;0.24452250665055292;2.433886224438691;0.05979125625866969;0.1064714178620636;0.025541910955326996;-1.153762977076268;0.0006523892152498532;0.0336494340776995;0.056082390129499296;1.1143193944187488;1.2417077127777674;2.0322239780964027;-2.813738407463671;0.3302013347886424;0.06855672385989096;0
1.065395330519179;0.7287587089014996;1.1350672102920705;1.1470188688643281;0.25617765000164533;-3.0763487332044517;0.06562698836036548;0.42570958355058974;0.02793438876680474;-1.3609572299346244;0.0007803300757749867;0.034669113898235904;0.06627918833486279;0.9049177755484391;0.8188761805035353;1.2234292820570682;-0.8664640093167838;0.2385048475053299;-0.9678731955038996;0
0.5503638778395754;-2.394705953738351;0.3029003980306151;0.8595027147114771;0.24732633970572987;-3.218325201574844;0.061170318312234094;0.4360596160519652;0.026269374596565524;4.329992513695163;0.0006900800416946821;0.0030590394616090994;0.06627918833486279;0.5804279788060089;0.33689663858082874;0.9789142369539059;-2.615273510656715;0.14493346071152283;-0.5436468036591025;0
1.0097335736578732;0.8164858536028751;1.0195618897718994;1.030094497372997;0.19214071376707992;4.483031268673578;0.03691805388692293;0.0440162241393125;0.009483570530100046;1.88506131176968;8.993810999938206e-05;0.0030590394616090994;0.0265116753339451;0.9526017466714308;0.9074500877614609;0.963408153444409;0.36235505886474445;0.2702713159109568;-0.780169104620658;0
1.000481022811209;0.8829280009511713;1.000962277005363;1.030094497372997;0.04633044073913741;-0.34544988958798467;0.0021465097390827234;0.0440162241393125;0.0117727765044328;-1.3128732295605279;0.00013859826662332498;0.0152951973080452;0.0285510349750178;0.9149916242406754;0.8372096724305893;0.963408153444409;0.5757135363853365;0.2618145782637297;-0.9272010170407422;0
1.0549748560726633;-1.4290724920567293;1.1129719469455368;1.545482083725863;0.11138304732583137;1.9681503135750116;0.012406183231588392;0.0879245116804952;0.031891698813254286;2.8337614838900245;0.0010170804531953249;0.0152951973080452;0.0836137452839807;0.9527930338488793;0.9078145653509516;1.3371140112163395;-1.1924057633819807;0.27858902874571106;-0.5273387178443226;0
0.9295382419311121;0.2435764192216124;0.8640413432123828;0.8029037405057169;0.10588583152797218;2.408801849526436;0.011211809318370108;0.0439082875411827;0.03153268138436639;-2.769252559806107;0.0009943099952879667;0.0479249515652085;0.07035790761700811;0.8436929293353777;0.7118177590105105;0.6182209028750929;0.6437437168083058;0.2656970892710444;0.32382913208259745;0
