acc_X_std;acc_X_kurt;acc_X_var;acc_X_iqr;acc_Y_std;acc_Y_kurt;acc_Y_var;acc_Y_iqr;acc_Z_std;acc_Z_kurt;acc_Z_var;acc_Z_iqr;acc_Z_range;acc_std;acc_var;acc_iqr;acc_kurt;acc_cv;acc_skew;hole
1.959134567555288;-2.307638695481954;3.8382082537900453;3.1448103813769643;0.901890263715952;-1.1283341014786394;0.8134060477856295;1.1367042247186512;0.02087730623769914;-3.0915381806858377;0.0004358619157426714;0.034669113898236;0.043846232283063;1.5627396192267664;2.4421551175010188;1.499710989553935;-0.2100817255346321;0.6087217422369698;0.7062431045597715;1
1.959134567555288;-2.307638695481954;3.8382082537900453;3.1448103813769643;0.901890263715952;-1.1283341014786394;0.8134060477856295;1.1367042247186512;0.02087730623769914;-3.0915381806858377;0.0004358619157426714;0.034669113898236;0.043846232283063;1.5627396192267664;2.4421551175010188;1.499710989553935;-0.2100817255346321;0.6087217422369698;0.7062431045597715;1
1.959134567555288;-2.307638695481954;3.8382082537900453;3.1448103813769643;0.901890263715952;-1.1283341014786394;0.8134060477856295;1.1367042247186512;0.02087730623769914;-3.0915381806858377;0.0004358619157426714;0.034669113898236;0.043846232283063;1.5627396192267664;2.4421551175010188;1.499710989553935;-0.2100817255346321;0.6087217422369698;0.7062431045597715;1
2.524586946520071;-0.32550631690284487;6.373539250539535;3.1448103813769643;0.8053571045642285;-1.1166787400091327;0.6486000658720776;1.0144950676702034;0.023591874343929547;-2.967607410033066;0.0005565765350597612;0.0387478331803813;0.0509839910268175;1.9271755123747614;3.714005455496924;1.499710989553935;1.1803487524371015;0.6986962509351327;1.1613159615597413;1
2.2550757965084904;0.9247744316700116;5.085366847998402;1.423966032268784;0.7122633492941882;-1.1015708310854275;0.5073190787477748;0.8966135672108582;0.03604679939232307;-0.6499428471299092;0.0012993717464303825;0.043846232283063;0.0846334251045171;1.869877539546227;3.496442012899452;1.4512967109468693;0.5044966400748988;0.6100969598969803;0.5046557697156394;1
2.915737512010868;-1.3216084459921322;8.501525238947325;3.8743404764451723;0.6226154683807535;-1.0814152504710381;0.3876500214669851;0.7830597233406156;0.0349335222853822;-0.5102458950793327;0.0012203509792632948;0.043846232283063;0.0846334251045171;2.5486901809222733;6.495821638329611;3.860771286056778;-2.1498309090041894;0.6762366056887439;0.17227108731037075;1
2.103932092973283;-1.748018884856818;4.426530251842941;2.9462309945431127;0.5364233974924077;-1.0535496717047603;0.28775006137729764;0.6738335360594747;0.032773626174980454;0.08803381759774354;0.0010741105726573639;0.029570714795554204;0.0846334251045171;2.1201960002643565;4.495231079536975;2.999038560860402;-1.7219521813287528;0.4341855582778812;-0.7219551072031051;1
1.3320394716132065;2.971487074582214;1.7743291539355905;0.6407504216122017;0.45370320488136895;-1.0132462174187324;0.20584659811962547;0.5689350053674365;0.0491227512464246;1.3806049018128235;0.00241304469001811;0.0219231161415315;0.136637095951871;1.3420561486124467;1.8011147060284736;0.5895639857504937;3.0643391916761;0.2372780509297102;-1.6070383480105321;1
1.330798909567286;2.9196247412799514;1.7710257377054777;0.6407504216122017;0.3744826613185274;-0.9514239622623393;0.1402372636282069;0.46836413126450016;0.09239953473332856;0.6155663949511437;0.008537674018935591;0.0739267869888854;0.2416641174671152;1.3480066762300493;1.817121999160785;0.585875241762599;3.31996205542814;0.23704645344808212;-1.6953957368766375;1
1.939962851931516;3.943918755596073;3.763455866874261;0.6407504216122017;0.29881419332187753;-0.8487696193622843;0.08928992213060441;0.37212091375066647;0.07326667375616705;0.8977569290406358;0.005368005483292617;0.0734169470786172;0.1789538085041296;1.7316538335977214;2.9986249994136847;0.585875241762599;3.9351935638868176;0.31437302564292163;-1.906729314400237;1
1.7616042054132472;4.492241082060758;3.1032493765296385;0.24612661248465262;0.2268097664292803;-0.6582055884167891;0.05144267014770469;0.28020535282593584;0.07271557648872741;0.9684240008620719;0.005287555064087966;0.0708677475272763;0.1789538085041296;1.5756565821716777;2.482693664940933;0.18766046067935171;4.547125231019298;0.29808554143843524;-2.093207325077132;1
1.704231359151222;4.838805799452639;2.9044045255144213;0.24612661248465262;0.158757162023393;-0.24173370294345395;0.025203836493721852;0.1926174484903065;0.06343195326107909;2.4768462145949157;0.004023612694515721;0.010196798205363504;0.1758947690425205;1.5409901475867704;2.3746506349594965;0.18766046067935171;4.7869082449135005;0.2938759881384857;-2.173252785194785;1
1.6601425208238154;3.291724294969285;2.7560731894472523;1.072349998117958;0.1167497596840415;0.15241926166589082;0.013630506386281441;0.10935720074381328;0.0762390537973409;1.026053702957243;0.005812393323913841;0.0667890282451309;0.194758845722443;1.508817186200053;2.2765293013726455;0.9327571542160404;3.3012934352661034;0.2966017038116684;-1.8168073624667118;1
1.568202353347482;3.045125176819404;2.459258621044581;0.8262233856333054;0.0718618537344435;0.5154579230356156;0.00516412602215055;0.06417612626856406;0.04277553808770422;-3.1157122689530063;0.0018297466586926347;0.07953502600183529;0.0866727847455898;1.4308061403472518;2.0472062112553995;0.7450966935366887;2.9317292375963198;0.291558154525227;-1.5925148751063618;1
0.6552178069866724;-1.5823676637594357;0.4293103745924244;0.8262233856333054;0.06865891869198396;0.6199018393237606;0.004714047115952464;0.06417612626856406;0.033942474760807306;3.8630101406564847;0.0011520915928880412;0.0188640766799225;0.0805547058223717;0.6281236049835105;0.3945392631374811;0.7450966935366887;-1.4337504958751488;0.11778782467727743;0.4998644000282204;1
1.4018200116524615;1.360501161952487;1.9650993450693073;1.246250227455171;0.11054983186896085;0.25072554885014736;0.01222126532625551;0.09803355086275434;0.06380703001156608;-0.4651233821407293;0.004071337078896895;0.07953502600183529;0.1427551748750891;1.3355544056262318;1.7837055703876374;1.1579472906306068;1.3164654580111173;0.23179501177574582;1.3734433061145657;1
1.4138314392302125;4.72104980276648;1.998919338555774;0.08968080762122543;0.19897934368816203;0.9306084864234924;0.0395927792145717;0.1503192437035612;0.06082969174089663;3.704136394347072;0.003700251397292507;0.0356887937187722;0.1427551748750891;1.3597267445228682;1.8488568197707576;0.1782615005809811;4.705277595634456;0.24715415999154264;2.1475096759196868;1
1.4697948256847202;4.524113473288224;2.160296829609577;0.44506496241204285;0.20891872961336005;-2.639431868168747;0.043647035583260246;0.35306959360416346;0.05971180950476961;-0.43220702900684554;0.0035655001943338946;0.0774956663607626;0.1427551748750891;1.4373819112542596;2.066066758800948;0.4306631849433362;4.4429864396285526;0.2671370391945661;2.077274731404361;1
2.854916486252875;2.1815777617668197;8.150548143478463;0.45687340931355536;0.3369995879606749;0.7250759400849572;0.11356872228566467;0.3139245609892256;0.055337714780354985;-1.618858670386859;0.0030622626771119182;0.07545630671969;0.136637095951871;2.5355362302217044;6.4289439747668915;0.46086561090529976;1.983932171692474;0.560524345457506;-0.350015477877181;1
3.879801455368488;-1.7020970921502705;15.052859333079436;4.938894464585633;0.42794888428301864;-1.23973388534156;0.18314024755908048;0.5173592795978139;0.04192421983356005;-1.111367729467298;0.0017576402086526702;0.0525135107576221;0.10604670133578051;2.807644763000319;7.882869115203118;3.083034665323021;-0.5445760894466787;0.709470390108469;0.38623187493381417;1
2.8543736948872467;-2.5989315876369345;8.147449190064272;4.482021055272078;0.5354190015098714;-1.186336734054547;0.28667350717782775;0.749587961738458;0.0670709855878125;2.048994831318874;0.004498517107720553;0.0469052717446721;0.1753849291322524;2.0623288010387633;4.253200083593983;3.6467899653349765;-2.925327183754335;0.8366272219631671;0.3937703732711013;1
2.391069093755986;2.528922811374683;5.7172114111150725;1.7880372936766205;0.5461466136419619;-1.3853647494788615;0.2982761235925825;0.7697729169942025;0.06744509514740676;1.4754567455941274;0.004548840859442751;0.0550627103089629;0.1753849291322524;1.5751231533278;2.4810129481493126;1.0246209109172546;2.9638895124367437;0.8952278082137158;1.6609384996796495;1
0.9390122868507256;-1.6389601131185607;0.8817440748566293;1.2727514570664469;0.35548831665234454;-1.281885825877853;0.12637194327631757;0.4602274483591254;0.06718831203272747;-0.5257687821931931;0.004514269273807151;0.0729071071683491;0.1753849291322524;0.553627823532953;0.30650376698983456;0.7543031558859952;-1.770803489669434;0.46879118394550623;-0.4215237558855311;1
1.009955176765038;3.270504189387355;1.0200094590744995;0.40082234036673103;0.32208110048740896;-1.982859406867809;0.10373623529118042;0.4602274483591254;0.046785417071223384;0.34345468823000286;0.0021888752505283206;0.0418068726419904;0.1228714183746303;0.6758814167320789;0.45681568948376206;0.44488905318825656;1.3309550375338748;0.4554352794393974;-0.7363985848545077;0
1.1823132506047511;1.713824176451574;1.397864622555573;0.8541624636369738;0.3961028409294244;-2.5669930179806535;0.15689746059236087;0.6655597313217072;0.04996743257762039;0.32976760292543617;0.0024967443183990393;0.0418068726419904;0.133578056490262;0.8888310750631763;0.7900206799979617;0.9355932356727359;-0.5096996313584169;0.5305226717006439;-0.22221382753252958;0
0.7600420436220281;-1.9349998169284177;0.5776639080731489;1.153346008357734;0.45530759800714143;0.03560497888042491;0.2073050088030327;0.4451038973621376;0.03204618618636565;0.8315172234563022;0.0010269580490912128;0.0285510349750178;0.0836137452839808;0.8233109727767609;0.6778409578946163;1.2270857162414033;-1.8480560503166963;0.3663708300962945;0.1876789791606111;0
0.837786477686585;-0.614667572165081;0.7018861821944948;0.9426673998733497;0.31145713559433935;-0.6620985936890058;0.09700554731263068;0.41565071764400885;0.033468184512958916;-1.0338461540052108;0.001120119374593463;0.0428265524625267;0.0836137452839808;0.8882914873602169;0.7890617665166263;1.0238197536595277;-0.6879405463736425;0.3242515290338188;-0.26261141437790875;0
0.5937605408905235;-1.2612903584480755;0.3525515799186071;0.7825580102546974;0.18473611370833368;-1.8266292970490714;0.03412743170805839;0.28894319834530346;0.026182153371609482;0.42165542470449563;0.0006855051551744818;0.0224329560517997;0.07035790761700819;0.6165549152960234;0.3801399635756865;0.7884422272287042;-1.209202011019953;0.1961914154899269;-0.5493181575380698;0
0.38112467543599193;0.4938555227131995;0.1452560182261902;0.2941561599251781;0.2158964868323566;-0.5428797547477847;0.046611293026553924;0.28894319834530346;0.027304771391683604;0.2774833078574363;0.0007455505407521033;0.0280411950647496;0.07035790761700819;0.3977315369281284;0.15819037546721118;0.36008521223514656;0.24796504990676502;0.1197444320375754;-0.3585519455326997;0
0.42158915680604453;1.0503612560136624;0.17773741713643162;0.2941561599251781;0.23382317532299268;-2.489035737579344;0.054673277318126975;0.40021959251113215;0.022983546963917734;1.5873034344863097;0.000528243431042612;0.018354236769654298;0.0596512695013764;0.44689883761067567;0.19971857105777308;0.36008521223514656;0.8776738603639641;0.13564051453416212;-0.7087240503465893;0
0.49715220979633684;-2.490465188170797;0.24716031970538094;0.829045461255606;0.24568987804407744;-1.5695806473943972;0.06036351617331365;0.34373258377814875;0.010740573662266913;-0.29827510819072484;0.0001153599225945817;0.011216478025899798;0.0280411950647496;0.5322226961204991;0.2832609982657731;0.899422704265942;-2.383502416338645;0.16837255634177556;0.10710608253772919;0
0.4694774967378315;-1.6409722481132978;0.2204091199432206;0.5967193616747117;0.1656408617810832;2.0836851801625556;0.027436895091579913;0.12744115109865273;0.01084174299460381;-0.7445040913551134;0.00011754339116104078;0.011216478025899798;0.0280411950647496;0.484825239782976;0.23505551313062018;0.5622252485234762;-1.2255789655548053;0.169104014789062;0.6285739446596104;0
0.5476840246002155;1.2399965131857027;0.2999577908022894;0.31503973225503934;0.07130300974568277;-1.6188439472168181;0.0050841191987929316;0.09415851531636543;0.007437374336212978;1.864333943407613;5.531453701695943e-05;0.0020393596410726994;0.0209034363209951;0.5243487943723345;0.2749416581597207;0.2989347956513799;1.1279529728509072;0.20916577572220335;-0.39942692452330736;0
0.5195499732817752;1.3321383146953008;0.26993217473709336;0.31503973225503934;0.07758723587688449;-2.4854340824991916;0.0060197791710153116;0.12226346430431434;0.021432689903638225;4.114081432782108;0.0004593601965055159;0.0020393596410726994;0.05506271030896301;0.49385115868887325;0.24388896693834267;0.2989347956513799;1.1960474380917578;0.19854414360127134;-0.6795650917648196;0
0.5354309015226077;0.99098557433492;0.2866862503053125;0.4299243489429685;0.3221939236801465;4.474263616606426;0.10380892445640805;0.048722966726904016;0.022344719261239848;-0.8156734291435607;0.0004992864788636231;0.025491995513408798;0.05506271030896301;0.50278401229444;0.2527917630188956;0.37822636320452485;0.9603689550211397;0.20048825257077346;-0.8122777187554573;0
0.977061882046708;0.9372978264159014;0.954649921348655;0.7591011292445682;0.5797908375169837;-0.695302634619433;0.3361574152686454;0.7056683567849993;0.022606096948501436;-0.8193635651446473;0.0005110356192450459;0.025491995513408798;0.05608239012949941;0.9625965838689984;0.9265921832762657;0.7407947839374285;1.1133878662724648;0.338644056085531;0.8240936675942689;0
1.474053641515512;-0.5199982000163258;2.172834138065142;1.5398769860313495;0.8547940056526436;-1.2763381826454594;0.7306727920996918;1.2153593648271586;0.03775983281077558;0.2326850033461696;0.001425804973897724;0.0367084735393087;0.09890894259202611;1.5104074020147198;2.2813305200608553;1.5942317096756908;-0.4495041376260514;0.4312801041596716;0.5267383675697107;0
1.296179321091302;-2.8369216222177744;1.6800808324247085;2.412679978109476;0.9907431890123101;-1.1846058377187774;0.981572066574282;1.24638500665378;0.05132951136393683;-2.200946838855805;0.002634718736860521;0.0795350260018354;0.1213418986438258;1.422209174442071;2.0226789358671975;2.5574401104789475;-2.7984118069760275;0.32930936605788746;-0.028779399441643032;0
1.1338992950736306;0.16554090279929667;1.2857276113684766;1.246430526949685;0.8473295560969303;-1.8884144306298936;0.7179673766354209;1.2923410606872294;0.04622648487293696;-1.295558231199576;0.0021368879037078695;0.06525950851432641;0.1091057407973896;1.2449858657650286;1.5499898059546977;1.3257768215361603;0.6794714104895654;0.2677438654467811;-0.990750070650763;1
0.6145808771145191;-2.9941082168673443;0.3777096545148517;1.201979772379726;0.7752823543385235;-0.13011975793351974;0.6010627289486841;0.7443878617810697;0.03622662809502832;0.826818039173291;0.0013123685831354951;0.029570714795554204;0.0958499031304169;0.6491616986512979;0.42141091099583855;0.9016876967824698;-1.8377377896377638;0.12456488893305269;-0.7234257277768629;1
0.6244660645807434;-3.0040116708198723;0.3899578658129612;1.2430324857140844;0.6507954036180102;-0.9061567967522409;0.4235346573703288;0.7454618744075239;0.019724941155913875;0.605233441532576;0.00038907330360426497;0.016314877128581602;0.0530233506678902;0.42415611336639014;0.17990840850608203;0.4130204800516273;0.5369068415225726;0.07863501501651396;-1.0063962055572264;1
0.5913025419709045;0.45462004503186887;0.34963869614125326;0.5793740324208256;0.5948312354124601;-2.1910183555137053;0.3538241986223135;0.9185944245802711;0.014839757448537905;-0.3126220484345576;0.00022021840113143623;0.016314877128581602;0.0382379932701131;0.40136852053729566;0.1610966892782975;0.30061354172392907;0.6550408254188073;0.07542816157908723;-0.3778377452006469;1
0.3527268838164782;-2.877146631828927;0.12441625456688332;0.5539010850007875;0.5870568934899014;-0.27897469322994795;0.3446357961940135;0.6553197801529813;0.014080260903115224;0.649992026109152;0.00019825374709979516;0.009686958295095305;0.0382379932701131;0.46743001645080406;0.21849082027919897;0.30061354172392907;0.9014061011338738;0.0871974966173657;0.22117852064924592;1
1.016230832974649;2.997792379491178;1.032725105888349;0.5759759911852251;0.42931512167255237;-1.296985110293864;0.18431147369671846;0.5862395357396433;0.014505819048084841;0.06964928899449656;0.000210418786255781;0.013765677577240704;0.0382379932701131;0.9901725517984826;0.9804416823351189;0.743210414939032;2.9528874943778973;0.16682539977776425;1.7342193846458946;1
1.2118735151233364;-3.001494122704583;1.4686374166573912;2.1646610093355045;0.3267675473429332;-0.3815624592614384;0.10677702999651609;0.39329907537837316;0.02491808332817902;2.1486542263155273;0.0006209108767500732;0.013765677577240704;0.066789028245131;1.159650620737394;1.344789562176623;2.199045619797946;-3.0352683369174223;0.18334715523897085;0.31988036648951146;1
1.642575427348124;-1.4843662270207194;2.698054034527872;2.3558272735564447;0.2628524348784797;0.45030757559880996;0.06909140252154541;0.21827246821830393;0.02731476538236641;-1.7680592872057517;0.0007460964078937224;0.038237993270113194;0.066789028245131;1.238897503693631;1.5348670246583105;2.199045619797946;-2.8341691016261454;0.19782630659213132;0.19196665576457297;1
1.972533093621894;-2.9452857992320207;3.89088680543356;3.7048205303983046;0.2797745657317932;-0.4349161338516782;0.07827380763041347;0.3159236860587531;0.020490237014782777;-0.9335838232957675;0.0004198498129219743;0.02447231569287249;0.0525135107576221;1.294661674908181;1.6761488524760564;2.458882794714799;-2.981657306868268;0.2084605227066784;0.18264676233707006;1
1.990752432656367;-3.0172095838869684;3.9630952481272432;3.7048205303983046;0.253270937631853;-2.5149927038617896;0.06414616784891797;0.42069433532515665;0.022333083203969442;-0.5039643940495004;0.0004987666053954219;0.02447231569287249;0.058121749770572106;1.306411264777847;1.706710392738454;2.458882794714799;-3.0464977931037462;0.21185943768005075;0.33536756253691713;1
1.5642692470949147;1.9208890074964877;2.446938277406891;1.196337723638118;0.25910170072562494;-2.3925873509045794;0.06713369131891131;0.42069433532515665;0.03678345672104643;-0.6165557984746334;0.0013530226883490956;0.0438462322830632;0.09177118384827171;1.0420825669921692;1.085936076428989;0.7821544680319086;2.8269705759476813;0.18217178383574906;1.6689796125913905;1
1.0029940739106173;-1.1634915496196665;1.0059971122998168;1.196337723638118;0.4700088758177824;0.48614192181218624;0.2209083433474956;0.5298325301597671;0.03991496249102063;-2.377398263311612;0.001593204230659584;0.06423982869379019;0.092790863668808;0.43815139884449283;0.19197664830938585;0.7821544680319086;-2.793975862200721;0.08113129062027966;0.03128220578298794;1
0.9374034639878658;1.3952676609888854;0.8787252542964499;0.6665887691627077;0.7340522247467607;-1.3748498780734753;0.5388326686556688;1.0775856068887406;0.034930545799858576;-0.9557718027111276;0.0012201430298760178;0.0489446313857448;0.0805547058223718;0.37068135505661953;0.13740466698661163;0.5812342894748266;-2.3415593038174087;0.06787917925719507;0.0979936376359746;1
0.6579753417009091;-0.6784951479745077;0.43293155028642805;0.6665887691627077;0.8625122880585198;-1.3701492319030872;0.743927447051943;1.1299361065235378;0.032736327945522635;-1.518395729422488;0.0010716671673568063;0.0489446313857448;0.0744366268991537;0.8140607764679356;0.6626949477835782;0.5812342894748266;2.83347249149138;0.15568471759714383;-1.62459950100689;1
1.06380651931072;-0.6911650209401307;1.1316843105279892;1.2930192494051127;0.8455558499728326;-1.2645406525292782;0.7149646954232795;1.0843839213097697;0.0312868942735181;4.119567011585275;0.0009788697532822997;0.015295197308045202;0.0744366268991537;1.2768245234525726;1.6302808636898893;1.5256084874708051;-0.9383247008355937;0.276177685632531;-0.8299922076254072;1
1.5210237683794798;-1.9052059420546759;2.3135133039753133;2.270396439906289;0.8404459528848617;-0.9145532484958601;0.7063493997205431;1.0003711118547276;0.03177738542801262;1.235221742548647;0.0010098022246404685;0.032629754257163204;0.0744366268991537;1.72452294770517;2.9739793971617283;2.4472991993295157;-1.7120015795129102;0.44440408777914664;-0.14244157222976667;1
1.4314465968547532;-0.8934055736325526;2.049039359647054;1.9285649896277057;0.7975389775351163;-1.4885698227723811;0.6360684206877587;1.0719998577046619;0.029688271724604507;-0.1828181165785511;0.0008813934779939514;0.033139594167431397;0.0744366268991537;1.6279393027716667;2.6501863735087;2.187743776557247;-1.1259202215201587;0.5516683215106408;0.5066633182217755;1
1.0378174763598904;-0.49630746677644905;1.0770651142380117;1.193623911401943;0.7183743789652748;-1.4814570198695698;0.5160617483537442;0.9832407797287914;0.026875866436700552;0.5318896798848934;0.0007223121967233673;0.0275313551544815;0.0678087080656674;1.2580280879214067;1.582634669999191;1.541721459481196;-0.8346888203245099;0.61231539860505;0.7015457818647952;1
0.7136293913611018;1.0888434884018718;0.5092669082144166;0.6465344593845299;0.5852765653185746;-0.38872189047183764;0.3425486579111078;0.6911128556907951;0.016512832406140227;-2.7632862929067;0.00027267363407327487;0.0275313551544815;0.036198633629040494;0.9171101702117673;0.8410910643058569;0.9333503011889335;0.5499311171640772;0.6702401901329998;0.9260252521043265;1
0.3668950601195381;-1.594812669780777;0.13461198514011946;0.4772963682463165;0.37730975489488133;0.03874909735504062;0.14236265113883542;0.47561410223134126;0.015168915486194938;1.8114154763497652;0.00023009599702732462;0.009177118384827196;0.0407871928214541;0.5112759388945348;0.2614030856924881;0.6424429514659871;-0.9152746498583207;0.5488751308690302;0.8013015548793705;1
0.35118107208779914;0.8513433889495102;0.12332814539273597;0.24379138158294245;0.205497609933075;1.7309335923607598;0.04222926768820624;0.193912388904198;0.03215146037395305;0.8087504994264734;0.001033716404177873;0.0305903946160906;0.0795350260018353;0.3752044377381774;0.14077837009842184;0.30996599493310867;1.1842326048045624;0.5807992706167592;0.9906460872616535;1
0.8970021996904227;3.8376096099082653;0.804612946249457;0.482867618738537;0.09166157025997666;-2.334477569060109;0.00840184346252464;0.1456793958849101;0.06070350179339307;0.34814274768915254;0.0036849151299804764;0.0693382277964718;0.14938309370857542;0.5186167560666193;0.26896333967306324;0.30996599493310867;2.7703766565701238;0.7237053602630983;1.5567442857871843;1
0.8302105282656004;2.9651913850691236;0.6892495212430473;0.5367588218554231;0.07482213029957116;-3.093446888613937;0.0055983511825660045;0.1370224072177668;0.07839739849319713;-2.7436624502458415;0.0061461520905011485;0.1391862955032119;0.1723258896706433;0.5380345308803303;0.2894811564196171;0.19882905516987232;3.997129253898007;0.8316471573745904;1.952710813113132;0
0.7785209376362776;2.844988722185022;0.6060948503380689;0.2545610135851555;0.13402149145742778;1.0558344513529978;0.017961760172473386;0.1370224072177668;0.06823441062904322;-0.7159205226105799;0.004655934793892886;0.07494646680942181;0.1723258896706433;0.5719344067664613;0.32710896564330405;0.34458441984881494;3.5351420115495977;0.9546659104481591;1.8545113643261952;0
0.6778870855590378;4.370363245493986;0.45953090076772624;0.2545610135851555;0.16216087115131875;-3.0574686822032713;0.026296148132554605;0.3111773268603992;0.04715178548181887;-2.5533235086566877;0.0022232908741234647;0.07494646680942181;0.09788926277148971;0.6180401992488253;0.38197368788752767;0.20093634581997313;4.345496963581105;1.2437359340887293;2.0556053791930666;0
0.6504836267503997;0.8618784541383336;0.4231289486703534;0.5959247979453983;0.19497983247228587;-3.035923761495449;0.038017135070920666;0.3219258740301619;0.05524839437681456;-2.312772991188473;0.0030523850812160342;0.07494646680942181;0.12949933720811652;0.6080306526683179;0.3697012745842606;0.5675917050798993;1.5577203116358191;1.0143911912952837;1.3684693277956663;0
0.4308379657635061;-2.2808176561455262;0.18562135274323605;0.5959247979453983;0.20717584776767256;1.8314438420991301;0.04292183189825383;0.0924450029782296;0.05219824563009663;3.554700526767784;0.0027246568468599023;0.0254919955134087;0.12949933720811652;0.37723211182360505;0.1423040661908969;0.5675917050798993;-2.027258325322036;0.7921751701788511;0.4144525753518154;0
0.41157919086351125;-1.5927936832038891;0.1693974303518626;0.5658483479228713;0.10336705162593993;1.6601240942922324;0.01068474736183973;0.0867016440906071;0.01683861602266489;-3.1724518253071836;0.00028353898955874686;0.0316100744366268;0.0336494340776995;0.37447462180771107;0.14023124237802823;0.5675917050798993;-2.0712430964962834;0.7415431123026093;0.04487552135518634;0
0.42513729991602117;1.7750551976321418;0.18074172377988496;0.4112147416645988;0.11609114587450374;-2.1716291375038304;0.013477154150455306;0.1658184238605443;0.0387706350988291;3.2028748289950144;0.0015031621459665589;0.0081574385642908;0.1040073416947078;0.3778248362949951;0.14275160692133984;0.43425509869080225;0.5999891846481766;0.5671515572335502;-1.099269631127489;1
0.6744239053167603;3.818192136414602;0.4548476040627105;0.20768832190782094;0.08557401292447227;-3.080315285300697;0.007322911687997747;0.1608132355784041;0.03423908104492878;-1.1483188381571512;0.0011723146708012013;0.0438462322830631;0.0785153461812991;0.6717284501481623;0.4512191107384522;0.23833798950601903;3.644249531275669;0.609581368413786;1.8026153888456864;1
0.6522217773818958;3.6418115355835945;0.42539324689119923;0.06691836802776097;0.09796839700212752;-2.456543190362153;0.00959780681116647;0.1608132355784041;0.036159117419184574;-1.3464864886229542;0.0013074817725343773;0.049964311206281205;0.0825940654634445;0.6484482649028404;0.4204851522555042;0.03909115616036041;3.5721678394354135;0.5628478392361005;1.6779979263287816;1
0.6646986948000302;3.6545714169303594;0.44182435486886373;0.19814880376980826;0.08351396031640815;2.2044830790968923;0.006974581567730596;0.0460850928088464;0.03921063369633365;-1.5191304540982966;0.001537473794868056;0.054043030488426604;0.0927908636688079;0.6630577410769879;0.43964556800211796;0.19469145907934327;3.5877332494936005;0.5915064962228834;1.7573038867346922;1
0.6716184005879566;-2.8442843064002137;0.45107127600832503;1.0559572322633737;0.10220081709869884;0.5819087033599585;0.010445007015641694;0.0975170829458823;0.0591651587575689;-0.6824764247700857;0.003500516010808332;0.06423982869379;0.1519322932599163;0.6667413105926617;0.44454397525082023;1.0234160290686711;-2.814897061246621;0.4702479894562737;0.6180700613629354;0
0.789760225833948;-2.6125205454003884;0.6237212143092886;1.245872751847629;0.14391992467232348;2.4364366274884026;0.02071294471768726;0.1024005184523167;0.04577556117564424;0.6319397793058942;0.002095402000945148;0.036198633629040404;0.1233812582848984;0.7927398622047881;0.6284364891284664;1.2495001236776595;-2.6012085115007992;0.45491312271260764;-0.3124791169081894;0
0.8417188434287505;-1.7206767752633734;0.7084906113830334;1.2083126278373748;0.1247142488417287;3.0940114879568412;0.015553643864156629;0.0464074270373669;0.030878794147989608;-2.6342643545973843;0.0009534999280339172;0.0530233506678903;0.06933822779647181;0.8449146782956917;0.713880813599512;1.2057751784031927;-1.6782776379421545;0.5905176588612083;0.8096138307541911;0
0.8282407749526685;-1.644612714774831;0.6859827812941968;1.2083126278373748;0.223549732857785;1.5244657130073687;0.04997448306078704;0.1046111222337712;0.02520589941844471;-2.2231769598544973;0.0006353373654927513;0.0387478331803814;0.0591414295911084;0.8260874239245778;0.6824204319663452;1.2057751784031927;-1.5757038566673174;0.5632927860207542;0.6951479747315593;0
0.8883598364982653;-1.792837056280116;0.7891831991032247;1.3223468925060287;0.5092976815618319;1.468536010566665;0.2593841284442571;0.3924404779520435;0.05838101099583383;3.0827401567580544;0.0034083424448956706;0.0387478331803814;0.1447945345161618;0.7685279139703605;0.5906351545516338;0.8459401399192739;-1.0208660165307972;0.49953067374137006;0.6268891346260079;0
1.3193074240668319;1.4739076306223506;1.7405720791978596;0.5938234495444175;0.6749864125184318;-2.352519271212253;0.45560665708450265;1.0678245620320421;0.05424035346415263;3.794584936998978;0.0029420159439162144;0.018354236769654402;0.1386764555929437;0.7312083110881504;0.5346655942043854;0.5286623265441293;1.1554471066633134;0.49571953220916254;1.050034894680378;0
0.8404500869436841;3.6753943289203335;0.706356348643646;0.16042433346055374;0.6996094709417763;-1.7044721371292948;0.4894534118314321;0.9536271893012065;0.05475974949361699;3.833354453573307;0.0029986301646036865;0.018354236769654402;0.1386764555929437;0.44105800790436456;0.19453216633656653;0.5286623265441293;-1.0568215472309521;0.33765380012981866;-0.3176338441598966;1
0.8365488301044323;3.669243930863684;0.6998139451490942;0.11837348431944417;0.584672926508277;0.235649814933281;0.341842430991753;0.6465101109589175;0.04978920210031935;4.483647346710225;0.002478964645786445;0.017334556949117997;0.1182828591822167;0.35633925092289603;0.12697766174829064;0.5888531514733077;-2.787249322675341;0.2289185471363657;-0.31107545726370284;1
0.7174030362077928;3.5289798621610706;0.5146671163601596;0.39829095310764817;0.40597480495911425;-1.3236327446149367;0.16481554226159084;0.5184166796161298;0.05338683641202646;4.394436046216126;0.0028501543020844748;0.014275517487509003;0.1305190170286529;0.34256982302249295;0.11735408364566215;0.24850547502117903;2.0855853511871296;0.19790285846766142;-1.3376988913733552;1
0.6879563974093719;2.053522057296829;0.4732840047364816;0.5712949153389597;0.3571243993993811;-0.07373369825989447;0.1275378366463687;0.3648083782642324;0.01706250691412423;0.40312499999978374;0.0002911291421945372;0.014275517487509003;0.0448659121035995;0.22141008700890352;0.04902242662929023;0.2830448613523284;-1.0037924638469764;0.1137112530421119;0.3797354624005029;0
1.4979702591296886;4.336077516035718;2.243914897237066;0.5002525910966762;0.22305044314480424;-1.0876714582713614;0.04975150018709355;0.2572707182340306;0.025946794432547205;-0.22327037462178248;0.0006732361413248626;0.0265116753339452;0.0683185479759356;0.9897145317271653;0.979534854311922;0.3034606187297857;4.397160566559289;0.4048847946186731;2.0669555733950578;0
1.4914392036060635;1.7103599706345538;2.224390898053089;1.4049186453190543;0.16341506937258934;-0.7681225525627724;0.026704484898048192;0.18776012578518242;0.027938110622629367;-1.5606699232929735;0.0007805380251622759;0.037728153359845;0.0683185479759356;0.9185933331317743;0.8438137116741428;0.4046241202111087;4.099525107780226;0.3557724484760664;1.9911091880064484;0
1.5082460927585688;1.697109237790574;2.2748062763214896;1.4049186453190543;0.17611859872341473;-0.6164818452631747;0.031017760816299183;0.18776012578518242;0.02616228981259247;0.8919436266784521;0.0006844654082380797;0.023452635872335995;0.0683185479759356;0.9346303658146485;0.8735339207028238;0.4046241202111087;3.9003428066956545;0.36449554293373065;1.923046844618928;0
1.4878812990319668;1.814868321110417;2.213790760009053;1.2773823402088744;0.22408565945818046;-1.384178441450575;0.05021438277480762;0.29873005627840543;0.02626541627896666;0.9369247709589056;0.0006898720923074067;0.023452635872335995;0.0683185479759356;0.9902073343878703;0.9805105650755317;0.6018269016335656;3.2947926723267713;0.3965059404168924;1.7559979666849248;0
1.410094327185604;2.2822983160395993;1.9883660115610207;1.1408548776201426;0.15138562535944264;1.0633061196675453;0.022917607565469525;0.11664089877649775;0.014723696419082107;-0.6375446405494571;0.00021678723624129128;0.019373916590190707;0.0356887937187723;1.0321880158521854;1.0654121000688714;0.6234911602051771;3.357307582426801;0.42749303387097853;1.8499295916809633;0
0.5113139638539403;2.3574398497632636;0.26144196963202865;0.3763062837870823;0.07323585899522574;1.9888763773117784;0.005363491042768587;0.011643628887754387;0.02776264403762778;1.5005516848538842;0.0007707644039600292;0.023452635872335995;0.0713775874375446;0.28824801164167296;0.08308691621537803;0.12926285766062384;3.338856299397191;0.14627186293910463;1.7421184888628667;0
0.18906109699653656;2.5800329212143835;0.035744098397533806;0.07013748900576733;0.05931925756917313;2.1128253412803417;0.0035187743185579037;0.011643628887754387;0.026755667917613874;0.19695811835579136;0.0007158657657176324;0.024472315692872497;0.0713775874375446;0.09249098512779264;0.00855458232990956;0.0800693531369332;0.6320269837091163;0.04967432163318303;-0.6780405818264621;0
0.22152642025749575;-2.430248743910113;0.049073954872100624;0.3255603920261949;0.08773644965135334;0.048455064979519825;0.007697684597424459;0.07641963043383515;0.03545055883956721;-1.9143252044831034;0.0012567421220376165;0.0520036708473539;0.0856531049250535;0.13154028784382774;0.017302847326037058;0.12926285766062384;-0.13278341881893496;0.06908103679702347;-0.22467608474331252;0
0.44881995131512614;2.3930873095350136;0.2014393486985122;0.34656331416444086;0.1396752053302632;2.2926999908372068;0.019509162984051184;0.07641963043383515;0.032927922881459674;0.16901859338606565;0.0010842481052873556;0.030590394616090498;0.0856531049250535;0.1355756585292762;0.018380759185646897;0.15258012413590616;-0.6216181007760682;0.06789623307814022;0.47357699054178004;0
0.40645859229056647;3.33570266105558;0.16520858724682894;0.09239572304589139;0.3218878195834233;1.3348879539964689;0.10361176839617046;0.3028354509434179;0.019149901944173802;-2.112524316245137;0.0003667187444714716;0.0275313551544814;0.0448659121035994;0.32783254491217706;0.10747417750359459;0.15258012413590616;3.268738708048216;0.17280750312765591;-1.687202573200097;0
0.4858109187954066;2.2554898304330577;0.23601224882083716;0.29581742240355346;0.607980126251525;0.2214691434700041;0.3696398339168202;0.7234202897576019;0.0215415658140108;-1.2177718968857516;0.00046403905771935877;0.027531355154481497;0.0509839910268175;0.6865119271602154;0.4712986261332328;0.7311998472309402;0.6597051139393054;0.4266651240264561;-1.2391987965244473;1
0.47421356429466893;2.540454320966161;0.22487850456105413;0.2079272995699264;0.8762175126582079;-0.99686441611293;0.7677571294889367;1.103268047827939;0.020677135687792964;-1.1790950184711388;0.0004275439402514014;0.027531355154481497;0.0509839910268175;0.7860509692184569;0.6178761262092755;1.4795515896624667;-2.9296388269042097;0.5850230829587235;0.014600938800193284;1
0.6992849943549817;1.074640143734495;0.48899950333004677;0.44419387308227565;0.9764312912564308;-1.783866286871265;0.9534180665447008;1.3974305349637433;0.01772894522740866;-2.2348487376907493;0.0003143154988764563;0.027531355154481497;0.041806872641990296;0.6821853754570498;0.46537688648747605;0.7483517424315265;0.8526210118268635;0.6142623100286456;1.1976133935121134;1
1.012281759371893;1.6861325510411866;1.024714360357055;0.9284794344617082;1.015388364598528;-1.16951558859056;1.0310135309620734;1.275904479139954;0.016639850034352182;1.5528256158827827;0.00027688460916573036;0.0142755174875089;0.041806872641990296;0.7223211403396947;0.5217478297816369;0.7483517424315265;1.2431414821242466;0.6387866778447021;1.2944464236862518;1
0.989574056353983;-2.16454452039412;0.9792568130088759;1.538045649496956;0.8256301195158419;-1.101216252119163;0.6816650942517434;1.172251730993392;0.01729853081329523;1.3082906871568305;0.00029923916829852456;0.0163148771285816;0.041806872641990296;0.8175091831495211;0.6683212645337974;1.381715142072073;-2.724768729640141;0.6501360751681771;0.5600207548137272;0
0.8884615949030117;0.10407981488873592;0.7893640056176032;0.8874826198326011;0.5856830796733784;-0.49829199265356766;0.34302466981569296;0.6848097849754758;0.007630585065308439;3.965880102041178;5.822582843890819e-05;0.0020393596410727;0.0193739165901906;0.7363975244444585;0.5422813140079269;1.0673995955352993;-2.429993467072864;0.48138459688343993;-0.5194362838630641;0
0.5940588215980329;-1.2008737775211518;0.35290588351844354;0.8684378017780001;0.3807113562421569;2.4329668401375173;0.1449411367717425;0.23380670338198284;0.006968226598662214;3.651582610768839;4.8556181930303566e-05;0.0030590394616090005;0.0173345569491179;0.5188239007424356;0.2691782399815966;0.11585950106907328;3.337010751706861;0.2909967427333303;-1.6009358607532131;0
1.325493995320795;2.4434032747376597;1.7569343316314834;0.8684378017780001;0.18749168855727708;-2.476483653846324;0.03515313327805898;0.31037470834947034;0.012496799184136686;-0.8505215416285298;0.00015616998984863936;0.0152951973080452;0.028551034975017802;0.27340704624328205;0.07475141293547617;0.3985381597169313;-1.6944778263675733;0.1303332229436943;0.7764103099455674;0
1.547374274504914;-2.790989566813883;2.3943671453996087;2.545389219706729;0.14270400330202254;0.3463463276077488;0.02036443255842366;0.15028321213953744;0.019579445739193298;-0.484602675642486;0.00038335469545401456;0.026511675333945103;0.0463954318344039;0.4089668431265853;0.16725387877692505;0.5911856387648997;-1.7056554892116225;0.18637468335859664;0.8377466667066731;0
1.596974665444121;-2.664777906660548;2.550328082070362;2.5402492285338854;0.07842181668252989;1.9596199451822802;0.006149981331788322;0.06851155349865246;0.021296422555481583;-1.7352826193076918;0.00045353761366162467;0.0311002345263587;0.0509839910268175;0.6019486208083871;0.3623421420931193;0.8813987076554783;-1.4122125087266848;0.2452338781304607;0.3636663165640467;1
2.3829344972333386;1.9240758644452995;5.678376818104704;1.0613987151711592;0.03435264347070803;-0.04118304433835244;0.0011801041134255792;0.04095263460597853;0.039642471000625734;2.6289449301758823;0.0015715255070354523;0.024472315692872396;0.1019679820536352;1.7873206848045051;3.1945152303300453;0.7945482636025356;3.4986751346668044;0.5316701754222747;1.784015051928772;1
1.8008301615469373;0.931037851257552;3.2429892707371684;1.7869900852542138;0.043674243882919093;2.3460015863846473;0.001907439578744696;0.012868935292044359;0.0517915547190994;-2.039206043710896;0.002682365140221467;0.07086774752727651;0.1208320587335577;1.6009337348575383;2.5629888234049067;1.5806607716852334;1.2212374992434694;0.41470558567071286;1.3058068866275547;1
1.6007853198885584;1.8507031697215588;2.5625136403707143;1.2075368904561858;0.05607920982699371;-1.9489249624591902;0.0031448777748199876;0.07717633592779682;0.0456792091181435;-1.9221168612582258;0.0020865901456590843;0.0662791883348629;0.10094830223309892;1.4628009149769734;2.1397865168574706;1.0763255769732765;1.9660304965672057;0.36388284900356244;1.4872229219024364;1
1.9420834423930653;1.0057764709362544;3.7716880972172984;1.2075368904561858;0.1472788659100835;2.866996158665214;0.021691064343760356;0.09068188462264981;0.06646091283794488;-0.2990582482906916;0.004417052935252907;0.0662791883348629;0.1718160497603752;1.7268527080345781;2.982020275246356;1.0763255769732765;1.0872311485562207;0.45246275915947504;0.7121629754629321;1
2.025890065691476;0.32879254183129447;4.104230558267412;1.9662697156149678;0.3412378164115876;1.569945683927011;0.11644324734934838;0.32501144652121594;0.08483864791440748;-2.5556199711277094;0.0071975961799447975;0.1417354950545528;0.1932293259916386;1.868159959661874;3.4900216348838553;2.130885244111723;0.10076377688248901;0.5181199818402061;0.8802289017073818;1
1.1196427782823142;0.6827338410905869;1.2535999509597395;0.8165862192471254;0.524328167071385;-1.0570331318351112;0.27492002678443817;0.6958790824330818;0.08602829014930362;-0.07002623858199424;0.007400866706012769;0.10298766187417141;0.20342612419700212;1.0112602527374466;1.0226472987666042;1.0578478348313358;0.08749746971771681;0.35560034979007066;0.7886610610598803;0
1.1190411131815035;-1.8537759481655438;1.2522530129904983;1.6772430011629988;0.5787348000010144;-2.223332705868335;0.33493396873221415;0.9008537776433911;0.047557980516108954;3.52010688729343;0.002261761510770599;0.030590394616090498;0.1131844600795349;1.0713480475826131;1.1477866390590772;0.8620708796864549;0.9812710812624404;0.5205214541087643;-0.8148567778422068;0
1.2263306291839706;-1.980291398941625;1.5038868120747533;1.8033859908024712;0.5539797304740363;-0.8595614686019163;0.30689354177608585;0.6707612392754819;0.03541828170278054;2.382717662942268;0.0012544546787775185;0.030590394616090498;0.0846334251045171;1.0148883453880189;1.0299983536044306;1.7850298795053243;-2.785475058022998;0.6812953539054164;-0.2185198811258421;0
1.305304270573906;-2.480002217381911;1.703819238778477;1.9115252698071892;0.43125428276067573;-0.2937845947291547;0.18598025639942484;0.4948193769770364;0.03712110740297106;-0.6697306109724531;0.0013779766148229126;0.0489446313857448;0.0846334251045171;1.1778621860468792;1.3873593293191333;1.7970670363955341;-2.828702857798398;1.0257371096210137;0.5894019506349263;1
1.4337726026609123;2.578131444294138;2.055703876141046;0.5579931037407144;0.27660334789231933;-1.1003858924773102;0.07650941206523942;0.37618416011310707;0.03681171256844636;-2.0172275267530666;0.001355102182221912;0.0540430304884265;0.0846334251045171;1.033881508869284;1.0689109743818277;0.9082202603386194;1.0153134605821823;1.0652656182681364;1.2795797477381663;0
0.5990369632342972;2.557705631544914;0.35884528332096877;0.44985382473599644;0.17908097336238588;2.2428993024237833;0.03206999502041956;0.1611993665093465;0.03010560420366559;2.4199372861524844;0.0009063474044677672;0.0050983991026817;0.08361374528398069;0.5191765586421826;0.2695442990435397;0.35745265517544395;2.6851927165265246;1.1213375299940556;1.565985638554131;0
0.5391041247770824;1.732632230220157;0.29063325735166395;0.4532449176057822;0.0760583452033128;2.2860204463557836;0.005784871875066294;0.0488816121995289;0.015440659717725713;4.069795461984633;0.0002384139725185975;0.0050983991026817;0.038747833180381296;0.5193024014130829;0.2696749841133947;0.4508034400158469;1.961914925825661;1.0727722455122637;1.3627968616132102;0
0.6382630863062086;1.1157932592032533;0.4073797673411267;0.5610623023988373;0.0309151632684954;1.7258305248918724;0.0009557473199177271;0.020865906665721502;0.003718687168107136;-1.6298264458133254;1.3828634254244669e-05;0.0050983991026817;0.0091771183848271;0.526136958640775;0.2768200992477646;0.4508034400158469;2.367769377812433;1.1524489161184375;1.5541665732979935;0
0.6253266257311619;1.2965141598877448;0.3910333888483207;0.4570138481426751;0.038423038714431125;1.1212679903427276;0.001476329904050673;0.0319440463689068;0.014395192406714366;3.7295536887889065;0.00020722156442632697;0.0071377587437544;0.0356887937187722;0.5141994375265528;0.26440106155262333;0.41713738115046917;2.6045593930973134;1.0952493937299768;1.6239723590101607;0
0.2905079149842453;1.941191822412274;0.08439484866849348;0.05357761220906809;0.08749735100860695;4.109810836159244;0.007655786433523372;0.0319440463689068;0.013661426539180614;-0.3823527129677835;0.0001866345750854284;0.0152951973080452;0.0336494340776995;0.18217968751274502;0.03318943854224142;0.18610179408809385;1.0282653197134657;0.7601414523954431;1.2281743885729597;0
0.2999872300910395;0.8805986611989572;0.08999233821769427;0.20795644308690342;0.2548796148834434;2.5411318282562108;0.06496361808313243;0.1969754242463;0.012308173245238451;-2.2420954104605086;0.00015149112863480362;0.019373916590190603;0.0285510349750178;0.21015478754403638;0.04416503472767907;0.346248139157702;-2.589841070065314;0.6144948020204628;0.23794130009065106;0
0.34727099260268457;-1.0154005448541443;0.1205971423032538;0.41485308895748263;0.37512489201610216;-1.7729915336522108;0.1407186846100923;0.5710795340468635;0.02105830164990667;0.5460322783253263;0.00044345206837846207;0.021413276231263302;0.0530233506678902;0.35150864695014267;0.12355832888072003;0.40709734704231376;0.05760788928229014;0.8180406349846527;1.0531508073830396;0
0.4316330641077218;-2.9649951609611205;0.1863071020310207;0.6992375886302296;0.40263943818291636;-2.1908646510745142;0.16211851718025452;0.6407870860319771;0.03873844025408321;-0.31020290964363184;0.0015006667533191745;0.0458855919241357;0.09177118384827149;0.43890603858348537;0.19263851070504795;0.784747083782624;-2.792108986165079;0.750537851470987;0.006408627934818698;0
1.0263591909718262;2.103182092820506;1.0534131888923415;0.7811977056719863;0.28725768039969274;1.5418890588934981;0.08251697494861203;0.2551008255353686;0.047461687051032986;-2.3442238193791645;0.0022526117377301923;0.07851534618129889;0.10808606097685311;0.8457028284096874;0.715213273980145;0.4835794656084431;2.2608129642140717;0.8074718473891648;1.2865755416320317;1
1.2056579660623645;0.8746286957130245;1.4536111311296376;0.9355765365498216;0.13353898387590113;-1.8543652420717802;0.017832660214608182;0.1849559021381436;0.04137563692316396;0.4177942721260557;0.0017119433307974889;0.038747833180381296;0.10808606097685311;0.6997620362827742;0.4896669074226147;0.1059297288681329;3.7259417876242273;0.5721485362819182;1.7694394896213934;1
1.1771000139315486;1.2863268404590364;1.385564442797652;0.7334997142395472;0.14317612410104763;-1.395036660072049;0.020499402512598595;0.1849559021381436;0.022578483627590063;1.22528677805654;0.0005097879229213526;0.012236157846436196;0.0622004690527174;0.7208150811094186;0.5195743811547777;0.1059297288681329;3.392771437979794;0.5981039150577555;1.6055127807960017;1
1.1772812217258992;1.26133400362205;1.3859910750284261;0.7334997142395472;0.14828265801796736;-1.3379014848524935;0.021987746668873463;0.2064370945289169;0.018054380758260106;0.8760941065144413;0.0003259606645642328;0.012236157846436196;0.0489446313857448;0.7395882594572567;0.5469907935270145;0.2834109105021171;3.281074636054946;0.63230466508452;1.6665631039356936;1
1.2441001441429422;-0.8966600735945723;1.5477851686564896;1.476617747209912;0.10893102698796411;1.109718962856115;0.011865968640652567;0.09924799971159315;0.04997159410278604;2.8457018314196745;0.0024971602171736003;0.0244723156928724;0.1315386968491892;0.7482114959377594;0.5598204426534197;0.6846252394698719;1.0426447834822692;0.5986105745265019;1.0998321447558392;0
0.9426818324761995;-1.0533632279937162;0.8886490372806854;1.2848020521918695;0.10824660510844031;1.663681446879077;0.011717327517502615;0.07156605061916926;0.04745949629255365;-2.4344154294674225;0.0022524037883429136;0.0734169470786172;0.10706638115631681;0.3698119332562913;0.13676086597875564;0.30440270614049203;0.5741561225270834;0.40357098973600236;0.8121333078384338;0
1.1439047257781922;-0.6549329463227131;1.3085180216576813;1.2848020521918695;0.15327334833105508;-0.615223013963476;0.023492719308612943;0.19086291081343043;0.046924109871508864;-2.2843131090742523;0.002201872087233436;0.06933822779647181;0.10706638115631681;0.47607854177760317;0.22665077794108907;0.7178134166794766;-2.6909716112588615;0.4671695799273294;0.3703244694693721;0
1.289026416462271;-1.9318346608003907;1.661589102337564;1.9862648303201746;0.21994629935016813;-1.2198399528391957;0.04837637459783377;0.2945889483620629;0.032923186073137496;3.859834722150341;0.0010839361812064346;0.013255837666972602;0.0825940654634444;0.3933619728569187;0.15473364168988726;0.6846252394698719;-3.128664625274689;0.328284978501577;-0.4946880300142715;0
1.283275754829538;3.1389032098379794;1.6467966629333204;0.8724989415561284;0.2428760899487303;-1.402613774387864;0.05898879506878373;0.3198101626245628;0.010872866534162721;-1.044293296019416;0.00011821922666971565;0.013255837666972602;0.0275313551544815;0.36509392904374155;0.1332935770245966;0.1785501487418757;3.3321174297681324;0.26480472816421824;-1.726681078690009;0
0.3852923351547868;3.2302405640455873;0.14845018352902853;0.17103616342782324;0.32473732534300215;0.5322860621870275;0.10545433047092681;0.31309532610043966;0.009743146067577564;-1.9996305044956497;9.492889529415217e-05;0.0142755174875089;0.023452635872336102;0.3669762004215008;0.13467153167580154;0.1785501487418757;3.4044537302359834;0.2651700783182724;-1.763292065307423;0
0.2463013937235997;0.6390729380372555;0.06066437655018767;0.2866894251136083;0.40940734188985056;-1.2481613318307545;0.16761437159331297;0.5246626662395579;0.01781378019938623;0.1670069172352792;0.0003173307649920449;0.0193739165901906;0.0448659121035994;0.29909005106702274;0.08945485864727427;0.19185927863664487;2.6300580619005323;0.17957922650104685;1.5476562766074926;0
0.66909250770713;2.3757100889133937;0.4476847838698159;0.5916258325508936;0.5111989014837613;-1.2388235305804614;0.26132431687820434;0.6953344689376285;0.017714277445277135;-0.5615939880926497;0.0003137956254082543;0.020393596410726997;0.0448659121035994;0.7648143718938731;0.5849410234554198;0.6640782932216296;2.050951171698221;0.3816702916194451;1.5216384319231187;0
0.6150320872637013;2.9109713897788247;0.3782644683639451;0.30493640743728534;0.5830943283858695;-1.1486676306275878;0.3399989957957682;0.7266909766609742;0.011882661064103097;-2.3652885535127033;0.00014119763396435174;0.018354236769654298;0.026511675333945;0.6969172502937494;0.4856936537570006;0.7484107013253873;0.296870547584876;0.3149502203503722;0.8351038708645859;0
0.5947919481936239;2.7963689723386316;0.35377746163596663;0.17834664195822203;0.5344912657049226;-1.8784409561769675;0.2856809131148501;0.78374232705014;0.011768359780771809;-2.9391891891891713;0.0001384942919296875;0.0214132762312633;0.0244723156928723;0.6498319507139328;0.42228156416867524;0.5046655189651386;0.620070138624771;0.2698455781270747;-0.17132980638830395;0
0.5239937441889211;-1.872365716816817;0.2745694439491245;0.7239445445592478;0.42537750004804814;-0.4400059536231969;0.18094601754712722;0.561823304348982;0.011536360251845476;-2.76074218749997;0.0001330876078603602;0.0203935964107269;0.0244723156928723;0.48877040975743713;0.238896513454453;0.8034121483798926;-2.372301283342311;0.17728993940468551;0.02681274210668171;1
0.5739539416469426;-2.95964500141919;0.32942312713206195;1.0550901418148166;0.26853664101336644;1.6390014738766787;0.07211192756674165;0.21486357726376348;0.025536822012845645;2.2676179846939064;0.0006521292785157579;0.018354236769654298;0.06525950851432641;0.46715766476760123;0.21823628375111848;0.5972398364278808;-1.910579703810529;0.1537481755039986;-0.37385560307114396;0
0.5577092388114628;-2.9524054124491044;0.31103959505566126;0.9942033309594214;0.11642830246104524;2.8500252245927107;0.013555549613960632;0.04978757821351443;0.024297495971664675;0.5200181242470959;0.000590368310493061;0.019373916590190696;0.06525950851432641;0.5030507764771804;0.2530600837142941;0.8176259449912635;-2.4587742040026455;0.16319374524542057;-0.4828281218487454;0
0.8331247720577959;1.9138851655277083;0.6940968858163543;0.3311455972555688;0.05744244925651815;0.4944612427897693;0.0032996349765876624;0.04978757821351443;0.02535293979182843;-0.6926418638933427;0.0006427715560880775;0.0285510349750179;0.06525950851432641;0.7044660766860025;0.49627245320136865;0.3282019484911767;1.8273862508465228;0.20037297174541513;0.8006839051851347;0
0.8877121883373995;-2.50662366266466;0.7880329293227746;1.308977536332252;0.07112025610808008;-1.3134359897508918;0.0050580908288789025;0.09469193374081208;0.017549160736752268;-0.5830298797144463;0.0003079730425643674;0.020393596410727098;0.0448659121035995;0.7890562345151837;0.6226097412272806;1.1200844616037218;-2.165633853737765;0.19765166337587403;0.6763350600196323;0
0.8363499303020185;-3.1441164971904967;0.6994812059161912;1.5128040491685324;0.1173483847240746;0.8325310201345708;0.013770643397349427;0.08518441721342551;0.013786433185403022;0.9029310650268224;0.0001900657399755817;0.010196798205363497;0.0367084735393087;0.7585265075756604;0.5753624626949284;1.4058831867773809;-3.0828029993531936;0.1748170679195239;-0.4090990752758646;0
0.7685022757700504;-2.4989144809928994;0.5905957478637466;1.224768494052432;0.1710777583170742;-1.4921546221032358;0.029267599390795245;0.22821526565515304;0.007852196719967222;0.5106512459763634;6.165699332906399e-05;0.007137758743754399;0.020393596410727098;0.6755162937424357;0.4563222631115167;1.0161224376517661;-1.6747587086415348;0.15293814070464898;-0.6225104612100075;0
1.1032151703841906;0.484506134329673;1.2170837121658187;1.224768494052432;0.23345675089057424;-0.4554318361439312;0.05450205453638364;0.24904316158727502;0.015474292211762457;1.4069831700187312;0.00023945371945501226;0.010196798205363497;0.041806872641990504;0.8027838499132592;0.6444619096815544;1.0161224376517661;-0.22102320053226046;0.18469053754447967;-0.9789129123661822;0
1.187312416844882;-2.6600879535884387;1.409710775194035;2.0602599243508948;0.24611841039128082;-0.8917003989921829;0.060574271933530925;0.2926798490577478;0.01574076538629187;2.509165407719229;0.00024777169494628426;0.007137758743754399;0.041806872641990504;0.8516394158317073;0.7252896945981717;1.4105785255834347;-2.5105004712789984;0.20577014438129518;0.09978243960192289;0
1.0890361716968524;0.28445878378800654;1.1859997832641362;1.271142393739713;0.24072360380400937;-2.2545153581001345;0.05794785342838968;0.37814079974522663;0.0162733999122308;-3.188309487177787;0.00026482354470339336;0.0316100744366269;0.0316100744366269;0.73982528049167;0.5473414456545782;0.6919243486312272;1.5569710635228908;0.1955862626748359;1.3362707218706136;0
0.9283378590071761;1.0892703453422818;0.8618111804660276;0.5705728361674911;0.18959910250804896;-0.3513214356963263;0.03594781967185766;0.2150622995522089;0.014485196987523343;-2.4021615176019124;0.00020982093176735535;0.024472315692872504;0.0316100744366269;0.46646179469702037;0.21758660591196516;0.43222839006459424;0.005460033178476209;0.140043686206994;0.11595615269098199;0
0.6518362173444522;3.2828507879074302;0.42489045424192395;0.22772822583266716;0.1033672569800859;1.5755407164020891;0.010684789815587119;0.07441518012333148;0.015901775213311556;-3.1378461251305096;0.0002528664549346898;0.03059039461609061;0.0316100744366269;0.3105451634193939;0.09643829852317809;0.16697403888970186;1.61655158753031;0.09707908315443017;-0.8213277014542018;0
0.6812638745838775;-0.8524858222727758;0.4641204668130372;0.8099453052340371;0.05820488019772203;-0.7214530817457702;0.0033878080788311738;0.07441518012333148;0.014993108005068347;-2.371630578122217;0.00022479328765164454;0.0224329560517997;0.0316100744366269;0.34986538665751155;0.12240578878101006;0.4564882062878768;-1.885962635835836;0.1113871322475443;-0.1632313933868244;0
0.570055290667978;-1.9882362496216466;0.32496303441855284;0.820601856470411;0.10971755371531278;0.8896162705027457;0.012037941593272544;0.08468360337866665;0.013688038498664422;-2.070944726603468;0.00018736239794091937;0.0224329560517997;0.03059039461609061;0.31889946363442123;0.10169686790632154;0.5508177051512537;-2.8750892079499644;0.10812643793587393;0.3127156371553644;0
0.537503572631396;2.272382261168307;0.28891009059151446;0.39350676825319786;0.21808039666302112;2.0856601385447875;0.04755905940870063;0.15878683551818806;0.011948106727384465;0.5796791625379972;0.00014275725436896993;0.009177118384827203;0.031610074436626896;0.3795396051163144;0.14405031185184788;0.23658591883135482;1.1759131603265882;0.13816186197295885;0.40442039533378;0
0.4728105966056938;3.3270439412711403;0.22354986026263213;0.23838477706904104;0.288172204839899;-2.107211805879872;0.08304321964228872;0.4628622643513576;0.0065052056317887255;1.9316144377337128;4.231770031185575e-05;0.0010196798205362942;0.0183542367696544;0.44982670651561796;0.20234406589468787;0.5870009676842991;-0.5251185027956934;0.17001414544441384;0.694921524173217;0
0.1432659203473065;1.0965919080749806;0.020525123932960774;0.0834107763413332;0.34223613917924556;-1.8209416962971592;0.11712557496031595;0.48407467882845934;0.007513871082672294;-0.8059379546978569;5.645825864701891e-05;0.009177118384827099;0.0183542367696544;0.33842256305021473;0.11452983118147658;0.3961856415857268;-1.2090561456151232;0.14190223605853533;0.4735302965064832;0
0.7371247864450285;4.754123641267047;0.5433529507916289;0.0834107763413332;0.3085727853428989;-0.3744775738177921;0.09521716385427474;0.3712190885519151;0.007513871082672294;-0.8059379546937073;5.645825864701891e-05;0.009177118384827099;0.0183542367696544;0.4399245719456634;0.19353362900157517;0.3961856415857268;0.6553638138638908;0.18028244679021266;1.0659382063602907;0
0.8989885184393411;-3.271191398184305;0.8081803562857617;1.6024636128788297;0.2356004541973476;-1.0990938058230018;0.05550757401799648;0.28736108692031737;0.007785707828621273;-0.8897904904325529;6.061724639265458e-05;0.009177118384827196;0.0193739165901907;0.5154289262234957;0.26566697798790573;0.8215529127353851;-2.9286451164552485;0.20410845668940453;0.4523961947538885;0
0.7966638929717398;-3.061674060735925;0.6346733583648876;1.5190528365374965;0.23522261254718418;-0.03639970867286143;0.055329677453522734;0.22381088038512198;0.008512952570507956;-0.20014038439657847;7.247036146771802e-05;0.009177118384827099;0.0214132762312634;0.4947430967616325;0.24477073179329;0.8215529127353851;-2.522757514059252;0.19207363360666926;0.06376454654352313;0
0.6727953665568579;0.20215716080908544;0.45265360526037685;0.8226883222529748;0.1870701009053944;-2.447487752674258;0.03499522265275444;0.31328506785479027;0.009521866038486159;-2.632327876445204;9.066593285487611e-05;0.016314877128581602;0.0214132762312634;0.48920329098103527;0.23931985990667548;0.7904344080646974;-2.395692118902685;0.18946513046942282;0.04242313777543009;0
0.44094938034808545;-2.9155005885691705;0.19443635602936055;0.8226883222529748;0.14257617963123295;-1.9038110344200792;0.020327966998237603;0.1989639169502473;0.017083821734319982;1.5526314754106494;0.00029185696505002384;0.011216478025899895;0.0458855919241357;0.4121277941420301;0.16984931870437553;0.7379397868249695;-2.9486061384100757;0.15600185904693234;0.3885047228643151;0
0.383227017254321;-1.891723147573946;0.14686294675364364;0.5752510684440484;0.1143030658488355;-3.1110998164388524;0.013065190862443225;0.1989639169502473;0.016838616022665016;0.6793451622387726;0.000283538989558751;0.0122361578464362;0.0458855919241357;0.3431955167120196;0.11778316269123013;0.5418690397224339;-2.1059242859868;0.13276121644889735;0.4442184927202074;0
0.2805121205570011;-2.202145069782059;0.07868704977938551;0.40642924643947875;0.12606068145348331;-3.101101685561099;0.015891295408516595;0.2087565665389468;0.016816990417529074;0.7370918036329973;0.0002828111667032647;0.0122361578464362;0.0458855919241357;0.25745568256041607;0.06628342848264973;0.4173484188206613;-2.3209961998774724;0.10212684755871489;0.1641972829606482;0
0.2789482964408155;-2.1149884608163596;0.07781215208723306;0.40642924643947875;0.14098072237617745;1.8615254297771113;0.01987556408170882;0.03981074234223314;0.010537787851750016;1.5195366746612795;0.0001110449728084902;0.008157438564290801;0.0275313551544814;0.27373702404391276;0.07493195833241768;0.4349682662351424;-2.959308693620748;0.10672120532810482;-0.4864263348439819;0
0.3065287191835825;-2.544673053868788;0.09395985568432758;0.4955392603738744;0.13179263053272386;-1.48725474917185;0.017369297462735057;0.18688635965399336;0.011230374142762135;-2.6033102505222785;0.00012612130338642038;0.0173345569491179;0.0254919955134087;0.2189875363948754;0.04795554109629688;0.24751758159211645;-0.8370002846946439;0.08380815350222531;-0.7784150528034187;0
0.2784177054400284;-1.6054030524449676;0.07751641870249042;0.3671720065664532;0.17044213605717493;-1.850356072505349;0.02905052174373253;0.2570190800456871;0.012910129120437673;-2.568028832402367;0.0001666714339063728;0.0193739165901906;0.0295707147955541;0.12944477995716464;0.01675595105815877;0.058278352824455926;2.0271707109996826;0.04815116303851689;-0.9668423943593142;0
0.3875311024934776;0.23763087443886968;0.15018035539981026;0.4253074791583611;0.19110940239684857;-0.6600966009155597;0.03652280368448059;0.21630258534509372;0.02325898387749621;0.23098968354162727;0.0005409803310136288;0.0254919955134087;0.0581217497705719;0.15179090405993154;0.023040478555331336;0.22989773417763537;-2.0931516391773;0.05840118833384998;-0.7250268100618836;0
0.8325920573623483;2.2247124151161324;0.6932095339828679;0.6091451537872299;0.13267015022589057;-0.9156734140890835;0.017601368760960374;0.15332801298106413;0.030802095374718532;-2.7751037718146105;0.0009487690794732569;0.0540430304884265;0.06729886815539911;0.3094092200018944;0.09573406542218069;0.28078959684686877;1.5061066260588767;0.12647337642772302;-1.2253325185884953;1
0.8239492781841663;-2.618736788188722;0.6788924130202088;1.38253910213828;0.08918019234814409;0.05762099406485414;0.007953106707251977;0.08367487818149066;0.03451431681264814;-3.217175561990155;0.0011912380650438462;0.0632201488732537;0.06831854797593541;0.3408293882019244;0.11616467186209808;0.5334465488053803;-2.5159806199895307;0.14952635285130042;-0.2163986658407318;0
1.0023143331223947;-2.137091350045619;1.0046340223825907;1.5346589139905151;0.196464106390341;3.299478522401093;0.03859814509975523;0.08367487818149066;0.02825267638793234;3.6084495523974027;0.0007982137230812295;0.017334556949118;0.06831854797593541;0.42313362377016156;0.17904206356486865;0.7226857775730409;-2.5974395623434816;0.17994315312125483;-0.029675412272879335;0
0.935651191041535;-0.4382509719709198;0.8754431512974431;0.9854695096411157;0.30524330273940287;-1.7117887524359479;0.09317347386725874;0.42627418986576804;0.00919409734177665;-2.94118181035167;8.453142593006446e-05;0.017334556949118;0.019373916590190603;0.4240897874469696;0.17985214781681585;0.49615269880027824;0.024587000275952658;0.19368682279569283;1.1794758361750712;0
0.9313037747900502;0.30827560800588927;0.8673267209381966;0.9854695096411157;0.38565327919469455;-1.539272566315881;0.148728451753621;0.5496542451884134;0.014822230859868616;-0.9071085200605123;0.00021969852766324155;0.0183542367696543;0.0356887937187723;0.5377089447318544;0.28913090924464446;0.08691677641334583;2.5450714484820245;0.2712251195160917;1.0554722878712164;0
0.9082241825122798;0.4222412892466079;0.8248711657000989;0.9854695096411157;0.42368641380869454;-0.8825746913873059;0.17951017724607235;0.5036223274418228;0.021611439652067427;-0.22477775865939265;0.00046705432383495224;0.019373916590190603;0.0571020699500357;0.7595175421214662;0.5768668967902331;0.5390748486662293;0.6657237157715533;0.43389432959157764;0.35036173111648294;0
1.1291753587993274;-0.3710793661506706;1.27503699091959;1.2004915312896371;0.40125272209785234;-1.4539194473828918;0.16100374699093634;0.5349929864726968;0.03353026039772293;0.7050264546644106;0.0011242783623391067;0.0224329560517997;0.0912613439380034;0.8688851971185508;0.7549614857717429;1.073344958340184;0.14008823729244804;0.5709720794905272;0.9554850648471965;0
0.7810046968996771;-1.9959657812774434;0.6099683365793565;1.1496108883426106;0.4168264594925514;-0.9165743165865384;0.1737442973330956;0.4964216796990546;0.03533745987797183;-0.12292017788394816;0.0012487360706272686;0.037728153359845;0.0912613439380034;0.5894682194718968;0.34747278176736823;0.6044344027528537;-0.5842005934029295;0.5755663498945286;0.6070180914185732;0
0.8191891382802892;0.5022875004659397;0.6710708442764027;0.6595424330062194;0.4083803542580404;-1.3625185492774914;0.16677451374392258;0.5342488520884168;0.0344275982339677;1.3192502721859765;0.0011852595201594961;0.026511675333945103;0.0912613439380034;0.42432015741789547;0.1800475959911476;0.5754333096641533;-1.6028353644063078;0.4626910131170348;-0.15138939164328116;0
0.8578815155302053;-1.07698140825802;0.735960694688402;1.0708848173567311;0.4085838499692014;-1.2981574170278012;0.16694076245565487;0.527515974621707;0.020097007176395572;-2.3455431558712454;0.00040388969744809515;0.0341592739879677;0.0448659121035994;0.6445442521910364;0.4154372930325024;0.5754333096641533;0.3073985184096368;0.6136746453999098;0.8795982722375632;0
0.7692260386464551;-2.5291556604394607;0.5917086985317177;1.270772321071191;0.44308119997835815;-0.5601542658302124;0.1963209497742618;0.4937116312833707;0.022719647149114584;0.7253961075088652;0.0005161823665802704;0.018354236769654298;0.0591414295911083;0.7231621220528169;0.5229634547719333;1.1644056133870933;-2.191975551217574;0.5668822165965116;-0.26127043718133053;0
0.782527216194382;-2.689084468619465;0.6123488440849292;1.332141627492316;0.4317509598343599;-1.8625894437898023;0.18640889131789107;0.6217355163798161;0.032252361503158626;-0.23921364677712495;0.0010402148225304286;0.0326297542571632;0.08514326501478531;0.6942284271123265;0.4819531090108548;0.9820903396691999;-1.3033430126059795;0.5290785404230263;-0.4294395693085711;0
0.6949872290283907;-2.7789840670046337;0.48300724851256077;1.226945368263305;0.4789972974096501;-0.7756301238804136;0.22943841092574876;0.5540974198309687;0.04055134729300277;0.10678176129226102;0.0016444117672777228;0.04027735291118591;0.10604670133578051;0.45104518470549476;0.2034417586460139;0.58897230372294;-1.7260334710547707;0.29792833959554704;-0.025522540067684705;0
0.7877929846098626;-3.0772763187566703;0.6206177866005153;1.332141627492316;0.4203408902847205;-1.2200822772916642;0.17668646404535143;0.6054182386109044;0.023816673595570607;-0.8857619905520066;0.0005672339411579502;0.026001835423677004;0.06118078923218111;0.45489270969164447;0.20692737733060673;0.6238979609040689;-1.902245309045772;0.3018624982133788;0.032727358469249235;1
0.6476659178612926;3.9867104444707784;0.4194711411591106;0.20005728355865005;0.3083728534718336;-2.2152504433838467;0.09509381675836096;0.4328521032941792;0.017603879526874464;0.7782962178170661;0.0003098965743967099;0.014275517487509007;0.046905271744672204;0.35212380006137756;0.12399117056966498;0.07206664048560563;2.2436721185029938;0.25730862127407106;0.7964229052812979;1
0.1531844609162017;1.4403981126987293;0.023465479066187324;0.09486102432963905;0.22734908953205085;3.6715647557056763;0.051687608511052474;0.08722794315119842;0.03921063369633355;3.900078603832488;0.001537473794868048;0.014275517487509007;0.09890894259202601;0.1956497335327527;0.03827881823143714;0.07206664048560563;3.707515822954536;0.15377795957911305;-1.8289949621323534;1
0.8935475083504126;4.475799823294018;0.7984271496792307;0.20005728355865005;0.07183544756279027;-3.02355253666188;0.00516033152654639;0.14005321211867305;0.04005797607168982;0.09731850120393422;0.0016046414469600742;0.045375752013867704;0.09890894259202601;0.6156814412988951;0.3790636371598849;0.10512941329004555;4.852560045125631;0.3775111678026478;2.1957819602421655;1
1.372868439766188;-2.17292908157926;1.8847677529060478;1.9720787409636937;0.059761935159620014;1.957787626828786;0.0035714888940226266;0.05506945868793811;0.03582618603270719;-1.4563303589652155;0.0012835156056501434;0.0479249515652085;0.0887121443866625;0.9859263053449663;0.9720506795711756;1.3970874254604668;-1.629475258779583;0.48141555062084385;0.890730708018594;0
1.6869834823450482;-2.506151331530764;2.8459132697050253;2.766765243601657;0.1166703121587265;4.173349233433804;0.013611961739214687;0.05506945868793811;0.03405715335889232;1.3671720825845526;0.0011598896949111105;0.0280411950647496;0.0887121443866625;1.2344277819204736;1.5238119487771007;2.014561140386675;-2.2751985085028608;0.4713997766742016;0.07943882546522775;0
1.3335260799463116;1.3349148074622381;1.7782918058969768;0.8158222680031284;0.19077843665771102;-1.7048105728498737;0.03639641189356026;0.27261569605483715;0.015986550502511312;0.6872829276350672;0.0002555697969693447;0.0112164780258998;0.043336392372794796;1.018245348536498;1.0368235898162141;0.904194832293387;0.12310909105361034;0.3558130867601969;-0.2383663715621482;1
1.5581741045956636;1.4084440185599238;2.427906540232498;1.640806971862216;0.20870161052664452;-3.009601717751536;0.043556362236415215;0.3926923833042395;0.01275619047945021;-2.6570216088762044;0.00016272039554801618;0.0224329560517996;0.0280411950647496;1.4676339568773635;2.153949431379507;1.4184966099768572;1.53312512523404;0.3851982501285495;1.3160679004845925;1
1.4852959055211008;1.8751431100409508;2.2061039269577467;1.2286198722862478;0.22331280664756453;0.8467967400123205;0.049868609612812545;0.16203118525775928;0.011230374142762041;-2.9605285961576446;0.00012612130338641824;0.0214132762312633;0.023452635872336;1.4425604708179551;2.0809807119665202;1.2761025660713154;1.711841904944136;0.37580839091414314;1.3478287350680336;1
1.6043614176553491;1.3831441189659113;2.5739755584610813;1.6409178287609074;0.2764266072343542;1.5162129464792784;0.07641166918709592;0.2083825941983387;0.01150477227088273;-3.1256645206595217;0.00013235978500487217;0.0214132762312633;0.023452635872336;1.5942698062454714;2.541696215105973;1.6000883140539903;1.1644972414003913;0.44079182378614884;1.3609809222785294;1
1.606010445635849;1.3020898402366257;2.5792695514914588;1.6621659806756122;0.3779482540854301;-1.388049314490189;0.1428448827662248;0.5525962077303039;0.02188157819299984;1.5968126982779995;0.0004788034642163662;0.0214132762312633;0.0520036708473538;1.5847403189626288;2.5114018785457746;1.4736872767146192;1.647782917366148;0.44124116204895125;1.4567508811411398;1
1.5406736723230114;1.6329643167391161;2.373675364589274;1.2498680242009526;0.41433394584217204;-2.33249085155378;0.17167261867714395;0.6634907251086698;0.030277795062254035;2.1559540994667494;0.0009167448738318549;0.0061180789232181;0.0846334251045171;1.5502623515707477;2.4033133586976643;1.2471576013759456;1.8308573132238048;0.42626427249343113;1.476239064494224;1
1.248340175701136;1.8671209761359862;1.5583531942695434;0.46256143734762656;0.3424427834480069;0.07138581383020437;0.11726705993561853;0.4097606564918878;0.03281563502415958;-0.5763764364341194;0.0010768659020388488;0.034669113898235904;0.0846334251045171;1.2526631497241136;1.5691649666767369;0.5283984055034336;1.9009491197646209;0.4980705790316253;-0.827559272619877;1
1.3563000754159173;-0.8256903299275417;1.8395498945732232;1.592934530322428;0.17972966730885037;3.036897127838948;0.03230275331095003;0.1158460380493261;0.040252175730092085;-2.553847191356249;0.0016202376510062143;0.0683185479759355;0.0907515040277352;1.3563576036915748;1.8397059490919512;1.5921397474153838;-0.8554129173635907;0.6230076595101761;0.22209575359695105;1
1.5930915154494796;-1.3270162632349287;2.5379405765971197;2.2075213025440124;0.08846043151796171;-1.3284856920141455;0.007825247944343994;0.1158460380493261;0.04024184207335801;-2.5407253773874126;0.0016194058534570869;0.0683185479759355;0.0907515040277352;1.582454059882874;2.5041608516397904;2.204365455923385;-1.3142797085746984;0.8945666972630962;0.7709250394252083;0
1.1318286174582703;1.799397971867948;1.2810360192974994;0.9225122909802883;0.21483074878290132;2.0462723041457154;0.04615225062262206;0.1800936368695749;0.03258511272745447;-2.49753003655062;0.0010617895714609153;0.0530233506678902;0.07443662689915359;1.0130928512843376;1.0263571253234287;0.7034347113917011;2.811764418186499;0.955373842414508;1.7119745163523716;0
0.548884184392873;0.06868189914366003;0.3012738478766295;0.6746893894678605;0.23948357519297822;-2.7911914785343055;0.05735238278721085;0.41992905506587436;0.027809418751585723;1.8531109298913033;0.0007733637713010476;0.016314877128581498;0.07443662689915359;0.34012115388076125;0.11568239931718047;0.11055315768523871;3.60612211831355;0.5693058068950303;1.7833576891662286;1
0.6069592692653176;2.4933067917795433;0.36839955454708834;0.4077959639049369;0.20363152457205388;-1.729707234495861;0.04146579779953898;0.2776638614192653;0.024468066658081666;3.0222934012946587;0.0005986862859843278;0.016314877128581498;0.060161109411644695;0.34046511023698456;0.11591649128868205;0.09682983569677456;3.733421907603469;0.5725117129387421;1.8177126346821673;0
0.37712209287705784;1.0445503778904666;0.14222107293597225;0.235806933986348;0.12647943617083887;4.623680962442177;0.015997047774093304;0.019153009816206323;0.007944346357003225;-2.7944980173644836;6.311263904003042e-05;0.0142755174875088;0.0173345569491179;0.21385592439184856;0.04573435639749204;0.09682983569677456;2.279845619140198;0.40016451184681406;1.1888174921521015;0
0.28221727659293466;-1.58039929498709;0.079646591207533;0.4184258634690692;0.03732986080861969;1.7958512805832676;0.0013935185079909204;0.019153009816206323;0.0064247920881100335;0.27390567797522536;4.127795337544128e-05;0.007137758743754399;0.0152951973080452;0.17360867682953063;0.030139972670500403;0.19761464950831253;0.534368140463093;0.284993451523857;1.1318629819509387;0
0.47015845457454086;0.9199446140293818;0.22104897240792062;0.4300991293723939;0.0309861447462625;-1.6574773316320364;0.0009601411662363312;0.047182209113975804;0.010611531143671105;0.7887958707089476;0.00011260459321310178;0.0081574385642908;0.0285510349750177;0.38358680506576737;0.14713883702056302;0.32461552686415873;1.8515969492823992;0.48036831340868624;1.4025708947616786;0
0.39172021693572284;0.01892138170903716;0.15344472835616976;0.39563701712820176;0.05343086199780577;0.8330182015382507;0.0028548570138285647;0.04899309044748934;0.008771617484493508;1.8657779401020622;7.694127329427222e-05;0.0081574385642908;0.0214132762312633;0.3453772662794117;0.11928545606263963;0.4124686071056891;-0.47423719011242466;0.3736183549648504;0.6411367565158023;0
0.29781144233469764;0.6820973632171743;0.08869165518547292;0.22525227915857293;0.14005820399695704;2.16156754705867;0.01961630050685323;0.11696741057436694;0.01538669481793736;1.5743098626755874;0.0002367503774203404;0.0061180789232181;0.042826552462526604;0.29216767953084616;0.08536195296243923;0.3456507961582235;-0.9147177899213403;0.2760295565473675;-0.139270737005009;0
0.39992811939151196;-0.6211318123900279;0.15994250068003144;0.4064430231557741;0.22175929242128462;-1.3486924545802925;0.049177183775188815;0.32123324540432435;0.025095312697453225;-0.6120826884566716;0.0006297747193829571;0.0275313551544814;0.06423982869379;0.42633714283714486;0.18176335936254007;0.3367127598130666;0.5485046412013356;0.3413357111874116;0.05851196061759292;0
0.2773201709648592;-1.0749950452112185;0.07690647722397875;0.37037965443151055;0.21050031632559588;-2.0522249768323846;0.04431038317317593;0.3188164247116978;0.02395054038674009;0.19152724147017608;0.0005736283848168682;0.021413276231263302;0.06423982869379;0.2816463566631421;0.07932467022162183;0.19904401250945036;1.7482175323456406;0.20365974669150402;1.1419798884440644;0
0.28548171277060913;-1.9136476496801151;0.08149980832644058;0.4189685596594481;0.23171969730416372;0.6684837929232378;0.053694018118733255;0.17435499036669422;0.01614510938203102;0.43219551669368766;0.000260664556957746;0.0132558376669726;0.0428265524625267;0.3438272207800127;0.11821715774930762;0.5912264247943195;-2.8408433429143027;0.235278534543934;0.29754496284748083;0
0.264585648374723;-1.6964338832941077;0.07000556532587256;0.35498419855071983;0.18679613281999374;-2.3582993012195934;0.034892795236504744;0.2939010295922132;0.012434241812190354;0.5273093101432392;0.00015461036944402283;0.009177118384827196;0.0336494340776996;0.2730955618510422;0.07458118590273644;0.471863317868348;-2.525664490468453;0.17570656841215482;-0.10644961321154345;0
0.3091064173257086;-2.5024079554262557;0.09554677723193514;0.5269594552565993;0.21072453487791137;-1.1719553056489609;0.044404829599512086;0.2519607995095027;0.014431261599830074;-1.2889377865303981;0.00020826131136273006;0.0214132762312634;0.0336494340776996;0.32611049536158593;0.10634805518497896;0.2802805616606141;0.05862070285503288;0.18623995605930452;0.26448428166871457;0
0.4361316673611064;-1.6433403552711827;0.1902108312751788;0.6745483460701323;0.25888515616635827;0.0010810702165784392;0.06702152408327972;0.2281001943070513;0.01702285144084858;0.71993103456269;0.00028977747117720057;0.0132558376669726;0.0448659121035994;0.49202880696295126;0.24209234688138515;0.6568909407783166;-1.3676939725564086;0.25941618712416803;0.3981633239327534;0
0.3701225099812235;0.17545449634785015;0.13699067239480087;0.3340500998874605;0.22148448779449453;-2.4045124548472203;0.0490553783335896;0.37316210814038153;0.01725339235900898;-0.05490334057235202;0.0002976795478939095;0.017334556949118;0.0448659121035994;0.39773029703457297;0.15818938917920963;0.455849627295823;-1.1116432344959353;0.19101262509373917;-0.3252007885192155;0
0.6367478481679224;0.8668240991346808;0.4054478221464796;0.4715934238552979;0.1883997563843761;0.7566870773782904;0.03549446820569226;0.16292608423557353;0.02176246147691752;-1.10564499512605;0.0004736047295343191;0.025491995513408798;0.0550627103089629;0.5776405815793891;0.33366864148737485;0.3516600731801822;1.0024283286969091;0.24607745318677374;0.01386028733210965;0
0.4674045978967826;0.7142296451328356;0.21846705813505304;0.4460338733339526;0.13514641249709522;-0.8908446743733359;0.018264552810835014;0.16292608423557353;0.024563492162112607;-2.0101325593264634;0.0006033651471981674;0.0356887937187723;0.0571020699500356;0.3688922490394133;0.13608149140135653;0.2883470934048349;1.831070073327704;0.14494695997429768;1.287197391457646;0
0.42966630293229646;1.9024532873346374;0.18461313187550796;0.12885646595192224;0.1581509517072843;-1.8636464126700563;0.02501172352591977;0.2364684024433117;0.02843608961241527;-1.7333438004062376;0.0008086111924453115;0.037728153359845;0.06627918833486279;0.3269378568911526;0.1068883622685798;0.10594643987744057;3.101688625011344;0.12602849853109183;1.533562796486876;0
0.7347149220188893;-0.02906372626466336;0.5398060166372226;0.6840047250695438;0.18417203684861408;0.11603128184631235;0.033919339156967265;0.18189817278215648;0.01787496107851695;2.9517948596303873;0.0003195142335584959;0.008157438564290798;0.0469052717446722;0.5888537965174983;0.3467487936730712;0.6876168511139458;-0.5475476164229155;0.20868839307121043;0.958204308331956;1
0.568605867225915;-0.5453686859465977;0.3233126322437349;0.6635190655809096;0.19506829323304462;1.3368067274377609;0.038051639024853076;0.12668141225677743;0.008208264218414345;-0.019004343853348853;6.737560147930126e-05;0.008157438564290798;0.0214132762312634;0.5027914931821281;0.25279928561631404;0.6021111358895452;-0.3909192405420801;0.1694542543814488;0.6042750260499987;1
0.8361768224308935;-0.10524450687277564;0.699191678370626;0.7447442979896151;0.22659415582480777;-1.9744809953436047;0.05134491145395727;0.3456112760286574;0.018249135424228007;1.824051566743454;0.0003330309437318135;0.012236157846436203;0.0484347914754767;0.8051592899983417;0.6482814822706338;0.5447644551910273;0.8036719736483562;0.30513983060443506;-0.1961912468411685;1
0.8754820448950865;-0.9990414357788211;0.7664688109336824;1.0454337868784744;0.19647560396964273;-1.5874314551536248;0.03860266295523589;0.24972906123234329;0.02118015145634423;-1.881701188970278;0.00044859881571368066;0.031100234526358704;0.0489446313857449;0.8497369257087183;0.7220528429129038;0.9559981586210378;-0.6233899457858408;0.3346331433495717;0.27855240657976427;1
0.923399834537908;-1.515144119146239;0.8526672544246358;1.193717277810209;0.14348238563723043;1.955215470858936;0.020587194988150904;0.07386511055503397;0.014732520930763585;-2.8035354440818607;0.0002170471729753871;0.0270215152442133;0.0316100744366269;0.9016400506970719;0.8129547810210183;1.1215533848508423;-1.2170127074341732;0.37197121598919386;0.7132067388528216;1
0.7314931966615718;1.5118650066953319;0.5350822967621649;0.5200240909999216;0.09765724263572059;-2.0567336266182026;0.009536937039212004;0.14105115240748023;0.02047119934736764;0.8633709738458464;0.0004190700027196654;0.0142755174875089;0.0550627103089629;0.6969493595719223;0.48573840980771266;0.5434768158900065;1.2443021442092903;0.36386642133631575;0.943218377186136;1
0.45694787829706673;-2.475773256906354;0.20880136348019093;0.7515051131857282;0.20861554079589323;1.8131813362196152;0.043520443861562993;0.15817678248119993;0.01518604196278698;2.6493622655363076;0.000230615870495527;0.0025491995513409;0.0418068726419903;0.4911672338941497;0.24124525165123034;0.7223700567933806;-1.869149405649786;0.3301722088523874;-0.18163236407724342;1
1.0808700042481336;1.824505002654064;1.1682799660833603;0.9031951456522043;0.3150164900644861;-1.86766421554839;0.09923538901254848;0.4681396904825373;0.015186041962786983;1.4541284888538566;0.0002306158704955271;0.0081574385642907;0.0418068726419903;0.5526384590543484;0.3054092664259647;0.9601779210775963;-2.8703963247696027;0.403045063576063;0.4889816657747319;1
0.9458938565878302;3.0115651263511745;0.8947151879305988;0.15169003246647605;0.3403446310761619;-2.0653749701478277;0.11583446790236876;0.5086272062978787;0.019740748510786294;-1.3771827365203144;0.0003896971517661112;0.0254919955134087;0.0489446313857447;0.4271030450562878;0.18241701109635344;0.25518449295604584;3.4547046092082305;0.3738201966760448;1.87154521074819;1
0.8364548982064235;-1.9100006638264329;0.6996567967335182;1.2405161762365173;0.32500664678759483;-0.24963760041382935;0.10562932045611642;0.3457723898477686;0.022007138000642846;-0.6618059558932016;0.00048431412297933837;0.0265116753339451;0.0550627103089629;0.2858957159831736;0.08173636041753148;0.05721714043260717;2.7817123359701674;0.3396541529539299;-1.2613521092332975;1
1.209034873744652;-1.0685899976109756;1.4617653259307464;1.6637096347235967;0.33116974599270016;-0.031588428952243675;0.10967340066086953;0.3358200901554499;0.03876124769806914;0.513789346391936;0.0015024343231110706;0.0326297542571631;0.1029876618741714;0.6237731224521625;0.3890929082937205;0.05721714043260717;3.1443624907913374;0.6095695207590062;1.4498954071524746;1
1.1993765544943944;-0.5081591500674492;1.4385041194708452;1.5548471362776832;0.387182189367336;-1.381152085760963;0.14991004776328365;0.520836912823601;0.04200783855988582;-1.7374542362240863;0.0017646585004734297;0.0591414295911082;0.1029876618741714;0.7564009364470156;0.572142376657922;1.1415386840000674;-2.5091290181826067;0.6005198658599665;0.2098109985692731;1
1.274055097537442;-0.4671815173926544;1.623216391561141;1.5548471362776832;0.3522242646462731;-2.2271096439559606;0.12406193260560783;0.5719120892247436;0.04204494905791487;-1.7506689533165947;0.001767777741282657;0.0591414295911082;0.1029876618741714;0.778204280719392;0.6056019025299862;1.1415386840000674;-1.86372084876058;0.5318194233717445;-0.8441466649209693;1
1.37710613627382;2.2701234437535134;1.8964213105630088;0.20783205236362967;0.2573742876798725;1.2846137160866924;0.06624152395872178;0.23978717500536523;0.039104421992618446;0.13206897003373896;0.0015291558193767814;0.0346691138982358;0.1029876618741714;1.380502222678342;1.9057863868198426;0.12713423291307313;2.194534451069534;0.6472172218164416;0.6370965910747222;1
1.015479229952192;4.858050773239334;1.0311980664642966;0.11094720438335393;0.11637367156327438;-0.7645036788702045;0.013542831433116857;0.13549180040563824;0.023236621614968346;-1.1270126218658636;0.0005399405840772141;0.0316100744366268;0.0560823901294992;0.9928725382285011;0.9857958771683063;0.04642996024948065;4.933709784695263;0.4010189790238838;2.2167757861100865;1
1.2649715446191112;2.788403238069847;1.6001530086960598;0.20674820111431869;0.1204302990242843;-0.4779712372101355;0.014503456923078532;0.13549180040563824;0.015747369441705395;-2.203420223356119;0.00024797964433355684;0.0224329560517997;0.0346691138982358;1.2345099133639241;1.5240147261938035;0.1520429722263299;2.785310989958326;0.5523401984470101;1.2242324922411085;1
1.451560725392619;-2.0209638486871113;2.1070285395023465;1.997180751448905;0.17189187942456446;-0.9175105931486224;0.029546818212109006;0.24161489313882617;0.050636113053676525;4.293850873090584;0.0025640159451847102;0.003059039461609;0.1284796573875802;1.4067793190993747;1.9790280526457005;1.8744159164554377;-1.9314473629417677;0.5434068480097084;0.12350116042698352;1
1.5247773688128605;-2.6047385427902285;2.3249460244438698;2.4826412058489957;0.1475053448420827;0.3518722939312677;0.02175782675698173;0.11523595279469462;0.050016308630287463;3.0700363596412195;0.002501631129000168;0.023452635872336;0.1284796573875802;1.4873515263553294;2.212214562951528;2.412046656209892;-2.5840595438369576;0.5994272108848171;0.28850043649605794;1
1.2028982855195531;-0.6474963005153853;1.4469642853058802;1.4088000229173228;0.09710373467861672;2.1688683001999904;0.00942913528853519;0.01946600184971109;0.04874560158389264;1.6011256889100285;0.002376133673775597;0.0361986336290403;0.1284796573875802;1.1576275642114862;1.3401015774222185;1.3628767365942658;-0.6392699269564078;0.5300910709801832;0.4544654620214416;1
1.2692836582356386;-1.926819617270213;1.6110810050640452;1.7407250641558505;0.11343100259205974;1.9214891285576208;0.012866592349039864;0.01946600184971109;0.050397359219110094;1.4158563140807285;0.002539893816260021;0.0361986336290403;0.1345977363107983;1.2261036499510456;1.503330160423276;1.72013550898543;-2.0102373517037484;0.5130312393680245;-0.2828145041743112;1
0.9157378111735698;2.3608392535341323;0.8385757388129605;0.36372514476977713;0.15022738207220013;-0.8767759311236674;0.022568266324266797;0.1691146666681741;0.052881484215356045;0.7660492824432943;0.0027964513728189508;0.0514938309370855;0.1345977363107983;0.8954151592045598;0.8017683073333272;0.4009570095273971;2.320072174643285;0.3141196459977563;-1.2335299534056463;1
0.8638690253853981;-3.068346525438082;0.7462696930203176;1.562018522292781;0.14812428199434058;-1.4606595020193716;0.02194080291633893;0.21019593764361938;0.027445303206223338;-2.173239455049631;0.0007532446680815329;0.0387478331803812;0.06474966860405809;0.824264509089743;0.6794119809449551;1.4189309359498181;-2.75838797338055;0.3394289428991102;-0.5326319961715142;1
0.6489314887682225;2.8441839359583176;0.4211120771149417;0.4834080253849895;0.18899243540767552;-0.17707288440648009;0.035718140641324406;0.18487440515738274;0.031195370572122516;-2.496932920797544;0.0009731511451320474;0.0514938309370855;0.07035790761700819;0.5906186549448385;0.34883039556885015;0.37401608572409284;2.9796963734505417;0.218941459208849;-1.6527331513536523;1
0.6487450111694641;2.8348262984964;0.42087008951726823;0.4834080253849895;0.29921703000239014;1.6682260323151645;0.08953083104345125;0.27054703589589013;0.02852370904598629;-0.9833437107656356;0.00081360197774008;0.0336494340776995;0.07035790761700819;0.6119637457186811;0.37449962607403847;0.37401608572409284;3.5113141015329723;0.22212701875220822;-1.8783201611563736;1
0.8847105255880373;1.1826247182012857;0.7827127140862612;0.5152081289162389;0.34601019769819147;-2.657424856538545;0.11972305691114155;0.5652125476803664;0.03428005232681982;-0.45414246177583095;0.001175121987529505;0.0336494340776995;0.0897318242071989;0.8976489589851494;0.8057736535671225;0.4177143228603257;1.4444159035625102;0.3020858828941467;-0.11511546923395712;1
0.8737443053513777;1.5589330707119704;0.7634291111339616;0.37128593642011554;0.29573106130954513;-2.4452019291993907;0.08745686062326993;0.4334726682112915;0.036556623713994006;-0.2946909517200946;0.001336386737366549;0.043846232283062996;0.0897318242071989;0.90355996707041;0.8164206140922803;0.5109453250564275;1.2479400516413293;0.3021789398588619;-0.20702901368020885;1
0.5956696955068799;3.1280950064960087;0.35482238614525896;0.37128593642011554;0.2231811046900646;3.7310327053032233;0.04980980549067758;0.0923997041286726;0.0359962863661372;-0.6587625804689748;0.001295732632152955;0.043846232283062996;0.0897318242071989;0.5777710551755925;0.3338193921987175;0.3765414877778821;2.924676036397299;0.1790975901859326;1.661720728060304;1
0.6913421041846692;1.73635493273641;0.477953905018486;0.498444418974922;0.11026900646463456;0.1903831195567586;0.012159253786697619;0.1291069195422534;0.03683147876386289;-0.6921860920499157;0.001356557827932883;0.043846232283062996;0.0927908636688079;0.5918626429552724;0.35030138812600015;0.3765414877778821;2.675787700874068;0.18420804405507102;1.5521589553782813;1
0.8760112000527144;0.459672592243102;0.7673956226177967;0.8314022291493415;0.1017326692627781;-1.1334863979874932;0.010349535995329796;0.12751196703731482;0.03972173178501576;0.9106248083181127;0.0015778159760007312;0.0438462322830631;0.0938105434893443;0.7249717049702853;0.5255839730075224;0.5759479155918954;1.286418248039516;0.23673279123547203;1.0626166486743533;1
1.513558661557262;3.1858780913272824;2.2908598219750105;0.8314022291493415;0.12495896444156636;0.02957009493544997;0.015614742794308646;0.12806266662182786;0.03651393564869899;1.9799312688309765;0.0013332674965573308;0.013255837666972602;0.1009483022330988;1.3798741698166084;1.904052724527074;0.5759479155918954;3.8039415076790846;0.40885507201262467;1.8906185099683568;1
1.6677370021859006;-2.0071279927913976;2.7813467084600143;2.3808851678210123;0.17541071843662195;2.1544906930408607;0.030768920142451864;0.11920720224919146;0.04030380427145635;0.5853567076466497;0.0016243966387518632;0.0387478331803814;0.1009483022330988;1.5337160443036029;2.352284904554291;2.2293000941003625;-2.2211365669604746;0.4138867481900873;0.6952435823643194;1
1.6882780344741963;-2.607317715998706;2.8502827216880555;2.481011116523118;0.2730322403846008;-0.34747202760856766;0.07454660428943442;0.33003952614014254;0.03385429142669661;2.262218929815733;0.0011461130480037037;0.0030590394616090977;0.0948302233098807;1.5582150585639847;2.428034168735562;2.4347020297305955;-2.7998488321734576;0.3752292976557396;-0.4505858741328607;1
1.675206519585004;2.6353324798334348;2.8063168832601026;1.0091788945842506;0.3777998308096712;-1.5643117286745714;0.1427327121598162;0.5336587692055212;0.03433006193439892;2.1815037060573936;0.0011785531524196658;0.011216478025899895;0.0948302233098807;1.5815044822785471;2.5011564274671354;0.8549768738398749;2.573694245081551;0.3222000035201629;-1.4195246813433025;1
1.2040505599323779;0.8963046439702941;1.4497377508734726;1.0091788945842506;0.5043975242131212;-0.15344229642702226;0.2544168624323262;0.5367400593462432;0.03431188505599736;2.0171289787424045;0.001177305456095975;0.012236157846436196;0.0948302233098807;0.8807158349462768;0.7756603819251174;0.8549768738398749;-0.24007436572966392;0.16692715270615002;0.13764893387231836;1
1.8993324213666838;-0.1595399491038497;3.6074636468546304;1.7761731410768324;0.6183606021212001;-1.016443210346677;0.38236983425569315;0.7745335609718809;0.017229270162859276;3.4089025613341946;0.00029684775034479285;0.011216478025899895;0.0418068726419904;1.0691912903962764;1.1431700154592546;0.980974400376879;0.4782712911292973;0.22014729636747632;0.7050929141370242;1
1.8563181144968608;0.019707034943873936;3.44591694220918;1.7761731410768324;0.6122581890183482;-2.418322201200418;0.37486009002002735;1.0067815987887831;0.01613866808539287;3.435213405523193;0.0002604566075704784;0.006118078923218098;0.0418068726419904;1.0766526319297725;1.1591808898413063;1.0004124669882595;-0.04607269888314155;0.2196498661338346;0.4886233516752651;1
2.2470424603141987;-1.614267316605087;5.049199818454887;3.1318787365097696;0.5433045624932837;-0.5262329415698103;0.29517984762601845;0.6304614226556597;0.01988506373930876;2.0334341689777773;0.0003954157599163721;0.012236157846436196;0.0530233506678903;1.6003182337120794;2.5610184491513492;2.325046747846221;-1.7264308101416397;0.2974230096275285;0.39816357165569044;1
2.006625147242634;1.831198415062622;4.026544481546523;1.1502160872979048;0.31291518731844953;2.616060554107051;0.09791591445454037;0.13256183171440172;0.022258468392926816;0.819214520005796;0.0004954394151989221;0.0234526358723361;0.055062710308963;1.5175400438835667;2.3029277847901377;1.0004124669882595;2.669670679211322;0.305578644460741;1.6084495084524408;1
2.0557949762300916;1.7194850183817774;4.226292984292882;1.3718573775294005;0.23986039832876602;1.5276205066136879;0.0575330106864343;0.13256183171440172;0.02841963089490361;-3.0159906999164137;0.0008076754202025598;0.0530233506678903;0.0591414295911084;1.551299520650099;2.406530202769227;1.225059383623988;2.461708968766491;0.3152285332807867;1.5831083978426266;1
1.833365151475281;2.6907261202259463;3.3612277786439795;1.3718573775294005;0.3167634883075677;-2.3667182036001804;0.10033910752477856;0.44776392822795463;0.028162367853091362;-2.959723016986187;0.0007931189630928338;0.0530233506678903;0.0591414295911084;1.5413070370733526;2.375627382531837;1.225059383623988;2.5266334297651247;0.3125616462666946;1.607417011470214;1
1.8593989552833414;4.777071885971424;3.4573644749087813;0.29041068268104064;0.37035798788138247;-1.8717239750873713;0.13716503918754624;0.5126942223661444;0.02445531512417077;-0.7386914825295676;0.0005980624378224955;0.031610074436626896;0.0591414295911084;1.5974849141925398;2.551958051072746;0.4782827366737594;4.505803788697278;0.3409068843121624;2.1084258902221262;1
0.2762098945353069;-2.2319681222184387;0.07629190583920538;0.4376759396053487;0.299428167721072;1.6147138313341785;0.08965722762479841;0.22356280756045877;0.02457195649460473;-0.5669312545332268;0.0006037810459727477;0.0316100744366269;0.0591414295911084;0.35457527646133;0.12572362667762862;0.1914066555493159;1.201440875841546;0.0917065438840396;0.40271486459207534;1
1.2871714135328154;4.282656526133313;1.6568102478160662;0.5064453320548936;0.19860175712923125;-1.6057221046111547;0.03944265793481815;0.27582968517016093;0.015581428357231173;-3.0988357963946824;0.00024278090965152772;0.026511675333945203;0.032629754257163204;0.893328230664179;0.7980353277015926;0.1914066555493159;4.083066730659868;0.21653812965671157;1.937977132379452;1
1.7459365692510251;1.9049581337129677;3.04829450384804;0.6449795535873519;0.20396720772043436;-1.2970307321261387;0.041602621825270816;0.26470316108698455;0.03857571535809343;2.9135335504749613;0.0014880858153886454;0.026511675333945203;0.092790863668808;1.127174178481367;1.2705216286351444;0.4965068817533824;2.303081061226154;0.29144783880801556;1.14229277219293;1
1.9081197853581697;0.7929929339923566;3.6409211152753076;1.8999378853701545;0.18197811818536924;-1.2035721894773193;0.03311603549828821;0.23609053426101134;0.03688930455256887;2.1776374082007393;0.0013608207903721785;0.026511675333945203;0.092790863668808;1.2651712109617494;1.6006581930464197;1.288950919347851;1.5020786680199525;0.3470687258030395;1.2854315453035907;1
2.6306126148408073;-2.6181816372809266;6.920122729359589;4.365726412408801;0.14695435720432154;-0.9246026504399865;0.021595583101335334;0.1899918046921769;0.03544029203014768;-1.5887097879485215;0.001256014299182149;0.0418068726419904;0.0876924645661263;1.8117604403590193;3.2824758932499076;3.0626780260892925;-2.55824744958993;0.43517153922159735;0.5846695181426679;1
2.613627792579448;-2.578059835571397;6.8310502381437175;4.365726412408801;0.10031994487757037;0.06590051249534194;0.010064091340238758;0.12640697238048393;0.07281827673255434;1.1551025206819727;0.005302501426298864;0.0683185479759356;0.1855817273376159;1.828421707112169;3.343125939038978;3.0626780260892925;-2.600338839405938;0.44234903914637563;0.629633484463142;1
3.3132793020294864;-2.453550994133714;10.977819733257;5.380597269531698;0.05187486028978287;1.0340808485703181;0.0026910011300844924;0.053221000471476376;0.1015992108004867;-2.6022774315527584;0.010322399635281733;0.1662078107474252;0.22636892015907;2.4804031470705348;6.152399771997413;3.8790518453994256;-2.1685085179142143;0.5403943952289634;0.7526980926517347;1
3.0754643799548824;-2.4119734836348243;9.45848115237127;4.76045751313756;0.06922692825202342;2.6190903137772685;0.0047923675952107996;0.053221000471476376;0.08538441057191266;-1.898832576833854;0.007290497568712952;0.1244009381054348;0.2069950035688793;2.4460344887668075;5.983084720236697;4.106302338815796;-2.848547042786718;0.4415345905899803;-0.45018595050072135;1
2.242896477401171;3.554606086825563;5.030584608338582;1.3593501037944424;0.15109884205117993;0.9254995916435954;0.02283086006920742;0.1690496189552695;0.0781290363070621;0.7775563354005138;0.006104146314270228;0.0632201488732537;0.2069950035688793;1.9539733052578987;3.8180116776604773;1.3932735548077693;3.1765001165459688;0.29620077344447837;-1.7817248458533077;1
2.332349245019943;-0.10612031631372669;5.439853000745097;2.818514027447944;0.2538026045865504;-0.10376776845521245;0.06441576209491687;0.3027933842948669;0.06523401153796188;-0.27123643893263366;0.0042554762613349435;0.0632201488732537;0.171306209850107;2.0159478824088635;4.064045864588781;2.3857908719880587;0.2691225189032688;0.3150763769781107;-1.1941268929190645;1
2.0235338222816446;-1.3425546659713608;4.094689129917763;2.818514027447944;0.37189107467702437;-0.5272589550579264;0.13830297142443213;0.45380873032085933;0.07524380385210828;0.11315174454197911;0.005661630018134545;0.0774956663607627;0.1906801264402977;1.542852290346863;2.3803931898285615;2.3857908719880587;-2.0279428405087656;0.23183152149355452;-0.7267621441853864;1
3.5272942042167252;0.5259274870382763;12.4418044031009;3.9309429083333214;0.5043758519389073;-0.7390526870712719;0.2543950000190986;0.6223101790897063;0.04254277250259133;-2.603422211591942;0.0018098874922072412;0.0672988681553992;0.09686958295095341;1.6716180327128762;2.7943068472908665;2.822426746645422;-2.673700911450221;0.2837138703910819;0.30473631396467304;1
3.5272942042167252;0.5259274870382763;12.4418044031009;3.9309429083333214;0.5043758519389073;-0.7390526870712719;0.2543950000190986;0.6223101790897063;0.04254277250259133;-2.603422211591942;0.0018098874922072412;0.0672988681553992;0.09686958295095341;1.6716180327128762;2.7943068472908665;2.822426746645422;-2.673700911450221;0.2837138703910819;0.30473631396467304;1
3.5272942042167252;0.5259274870382763;12.4418044031009;3.9309429083333214;0.5043758519389073;-0.7390526870712719;0.2543950000190986;0.6223101790897063;0.04254277250259133;-2.603422211591942;0.0018098874922072412;0.0672988681553992;0.09686958295095341;1.6716180327128762;2.7943068472908665;2.822426746645422;-2.673700911450221;0.2837138703910819;0.30473631396467304;1
