acc_X_std;acc_X_kurt;acc_X_var;acc_X_iqr;acc_Y_std;acc_Y_kurt;acc_Y_var;acc_Y_iqr;acc_Z_std;acc_Z_kurt;acc_Z_var;acc_Z_iqr;acc_Z_range;acc_std;acc_var;acc_iqr;acc_kurt;acc_cv;acc_skew;hole
3.4780536019509536;-0.3044125817850348;12.096856858044001;4.1731774073413375;1.7746056563900778;-0.9501790840499199;3.149225235691659;2.213261557015966;0.08477581479317436;-2.6449051439253743;0.007186938773846602;0.1294993372081166;0.18966044661976128;1.6084247761806139;2.587030260631658;1.587793451929182;0.2422217766740585;0.3967010412170821;0.7262560385111094;0
3.4780536019509536;-0.3044125817850348;12.096856858044001;4.1731774073413375;1.7746056563900778;-0.9501790840499199;3.149225235691659;2.213261557015966;0.08477581479317436;-2.6449051439253743;0.007186938773846602;0.1294993372081166;0.18966044661976128;1.6084247761806139;2.587030260631658;1.587793451929182;0.2422217766740585;0.3967010412170821;0.7262560385111094;1
3.4780536019509536;-0.3044125817850348;12.096856858044001;4.1731774073413375;1.7746056563900778;-0.9501790840499199;3.149225235691659;2.213261557015966;0.08477581479317436;-2.6449051439253743;0.007186938773846602;0.1294993372081166;0.18966044661976128;1.6084247761806139;2.587030260631658;1.587793451929182;0.2422217766740585;0.3967010412170821;0.7262560385111094;0
1.8829768499817132;4.528059059258308;3.545601817567055;0.4227069826206078;1.4337427141335357;-0.8828065921068718;2.0556181703309977;1.7815394986621262;0.07301363223642868;3.3560732137778877;0.005330990492356457;0.028551034975017903;0.18966044661976128;0.8971325194044348;0.8048467573729486;0.6398234279579338;0.7920518341652981;0.26169888685126;0.2642566266373195;0
1.9323793662877218;4.376378116226292;3.734090015254537;0.8008139020207565;1.1237496074710371;-0.7810835907817371;1.2628131802913103;1.3886195192838755;0.06356213236514825;4.143444325253692;0.004040144670804627;0.014275517487508903;0.16110941164474352;0.6232766240149283;0.3884737500434463;0.6398234279579338;1.223392485451858;0.19209617010098096;-1.1719124431076389;0
1.0126170123737899;2.8015524247309878;1.0253932137488202;0.8008139020207565;0.8447705873825395;-0.6151109980422204;0.7136373453066409;1.0345016188812144;0.01664609739707811;1.4556635420586268;0.0002770925585530106;0.014275517487508903;0.0428265524625268;0.879140633334949;0.7728882531805751;0.6398234279579338;2.9703310235460543;0.28173742288326964;-1.6735281324298816;0
1.146745866278012;3.5310627359876627;1.3150260818257078;0.441736765296425;0.5971295923910815;-0.31249307571831036;0.35656375010913915;0.7191857974541405;0.034574514498246826;0.7123956059376653;0.0011953970527894802;0.037728153359845;0.0846334251045172;1.0431487562048982;1.0881593275718262;0.47182297099855885;2.783584271399993;0.30927280548907715;-1.512596931019934;0
1.5021442811159094;-2.77790819651133;2.2564374412892323;2.4308585242231304;0.3817217369093051;0.3365710027429986;0.14571148442905676;0.4426720550026557;0.03429673029837617;-0.447309381380542;0.001176265709159554;0.037728153359845;0.0846334251045172;1.2943780897978177;1.6754146393486475;2.151384346039589;-2.6913734709664934;0.4430241670250338;-0.23617398672121695;1
2.27009572004456;-1.1185529410401465;5.153334578164628;2.840353457854054;0.20210305043406027;1.9683806214738577;0.04084564299475231;0.16310865878685465;0.034574514498246826;0.7123956059376262;0.0011953970527894802;0.037728153359845;0.0846334251045172;1.3557677186728854;1.8381061069954798;2.151384346039589;-2.6761747167400265;0.5177629158971174;0.6882833126868003;1
2.07728033394824;1.4852426226535336;4.315093585808113;1.3970152953376607;0.08589135889416974;-1.8795439558715816;0.00737732553268707;0.1122049657583668;0.0391973729723262;0.008604013242765754;0.0015364340479316486;0.0428265524625268;0.0999286224125625;1.315481427589154;1.7304913863319986;0.298854991900642;4.229928296619114;0.6340465093708564;1.9923133717052335;0
2.1453372910124107;2.5770563580796817;4.602472092208469;1.227727235306453;0.12792043139165932;1.1943979380930305;0.01636363676742822;0.1122049657583668;0.038400118557307995;0.27299686344774443;0.0014745691052153098;0.037728153359845;0.0999286224125625;1.4026686304596565;1.9674792868755682;0.7311489156581783;3.873098335652481;0.7226737387658898;1.9286705809515972;0
1.0936257876525999;-0.9306036122380673;1.1960173634187694;1.2486950128160104;0.19844394959125022;-1.238697925003103;0.03938000112937466;0.2753621250474154;0.02275051702587049;-0.6152252716290173;0.0005175860249444232;0.026511675333945106;0.058121749770572106;0.4658673890188237;0.21703242415121599;0.7311489156581783;-2.177614491679227;0.31552974590104077;0.09805139921119728;0
0.7386768597467804;-1.647659685422635;0.5456435031253647;1.008488139216294;0.16947693338613432;-0.27388507366899734;0.028722430949968212;0.16315715928904861;0.04925380748764084;2.8416848526633722;0.002425937552029585;0.026511675333945106;0.1284796573875803;0.4665187646606355;0.21763975778048544;0.7311489156581783;-2.2206257483297627;0.31452430147529503;0.025534569722240257;0
0.935474190459551;-2.5369525420283154;0.8751119610159523;1.5639700469462878;0.16806179811957697;-2.9222458906869235;0.02824476798718545;0.31869013859673334;0.05245952907992468;-1.4647958330821933;0.0027520021912874637;0.0713775874375446;0.1284796573875803;0.6066250234853297;0.36799391911857676;0.9885774136849028;-2.305698599468935;0.3803138777180057;0.26225837122335643;1
0.9504385594281481;-2.478165953777554;0.9033334552478536;1.5639700469462878;0.1956412179693069;-0.32346682869243065;0.03827548616851385;0.18899126523199028;0.04905073303071558;-1.4882809085876794;0.0024059744108505324;0.0713775874375446;0.11522381972060769;0.7479762227352676;0.5594684297773187;1.090089172715758;-1.8701120299431058;0.5016294144973223;-0.16023593947206544;1
1.7015745336200656;0.5819041483133299;2.8953558934643437;1.8577134023549096;0.23842312029111343;0.8066492635521113;0.05684558428935074;0.19513206875739053;0.044641717630655955;-0.5761553456512244;0.001992882953015219;0.0448659121035995;0.11522381972060769;0.7103344165709217;0.5045749833651517;0.5223294330662775;1.7895312439769089;0.41730027188486096;-1.3859817000754793;1
1.91684207381268;-2.203471394029625;3.6742835359384953;3.0740705752982893;0.2807511641168126;0.8555631498818576;0.07882121615294546;0.28087848412504135;0.052892788561351343;-1.691572119032254;0.0027976470817958196;0.0785153461812991;0.1254206179259712;0.728660864018636;0.5309466547523851;0.6526126762288844;1.5714939241647687;0.42161267536285757;-1.3888110529243496;0
1.9573078569678304;0.3041352253958938;3.8310540469480006;2.2164503374851297;0.15391380539896096;-0.0023446684642713933;0.023689459492389226;0.19469044634257804;0.0651662367516758;1.0532523372833549;0.0042466384123754615;0.046905271744672204;0.1753849291322524;0.754008569231442;0.5685289224744463;0.2544597049119788;4.447881940788657;0.40176685075588553;-2.0877324798256236;0
0.9536160982691402;4.106816544728997;0.9093836628780585;0.4346982643187145;0.08973916724597422;1.234652143265663;0.008053118138000932;0.08407889662632151;0.05877992063355694;1.5667340648879342;0.0034550790696872536;0.046905271744672204;0.1519322932599163;0.7046827705204904;0.49657780706843413;0.4295409007201261;3.4296579287110682;0.40117351027606074;-1.8281599732714782;0
0.20862166040729166;0.8187389835605904;0.04352299719109533;0.18378045479398164;0.04371160350989252;-2.383981122326702;0.0019107042814060483;0.06323220492780735;0.06457480227200448;1.5301860107555487;0.004169905088468474;0.06525950851432649;0.1529519730804527;0.2061898060172111;0.04251423610541514;0.17098657624154345;1.2448503613851816;0.09886637096206594;-1.2927907930498412;0
0.22604175524037276;-2.0703798840321603;0.05109487511214858;0.3045485004674098;0.07534130629549472;1.801742726437104;0.005676312434311552;0.06323220492780735;0.06517580922933869;1.4916780125155142;0.004247886108699151;0.06525950851432649;0.1529519730804527;0.21808893922019235;0.047562785410188754;0.26812625488669584;-1.3409113325694157;0.1055552145120934;-0.8060567441994471;0
0.4042133889814819;0.377973480553455;0.16338846383189481;0.4289554748531321;0.1318343650236163;-0.32619066600422997;0.01738029980118011;0.16751065969896706;0.0665945388741862;4.848684580854602;0.004434832607865497;0.013255837666972595;0.1529519730804527;0.3565932624868984;0.12715875485105002;0.4357595407871113;-0.44095497991583105;0.1870213550835263;-0.6419960395815212;1
0.451019735628466;-1.915750494656154;0.20341880192637135;0.6259632062922287;0.12234034983957008;-0.7385395943926353;0.014967161198868394;0.13306784533354143;0.00744436106798971;-3.148414757467556;5.5418511710600905e-05;0.013255837666972595;0.015295197308045294;0.4029130743223626;0.1623389454598977;0.5351639600918805;-1.5474010878973015;0.23839514491057573;-0.07762710347721083;1
0.4618690436533549;-1.7902896677399707;0.21332301348526464;0.6259632062922287;0.19322804323889517;1.7841752067005412;0.03733707669393234;0.13306784533354143;0.02202838839366379;3.261444930002154;0.00048524989522210146;0.012236157846436196;0.0550627103089631;0.4325910406621359;0.18713500846114972;0.611122547160539;-1.9637351890344104;0.27013165285975366;0.7011720801608656;1
1.4935507255557867;4.177028622131182;2.230693769808217;0.6259632062922287;0.26068211362097515;-2.7816935961930493;0.06795516436189901;0.4029084588608165;0.02145450928705393;-1.5874634005797315;0.0004602959687482833;0.026511675333945106;0.052003670847354;1.4497491099887074;2.1017724819130494;0.611122547160539;4.220145853953926;0.6936432955229214;2.0416958097226527;1
2.0180080930290685;-3.145414693901012;4.072356663530817;3.4071876016708584;0.2622952313136714;-2.668893338813556;0.06879878836989238;0.4029084588608165;0.024257880753699383;-2.3326557329439943;0.000588444778660699;0.039767513000917805;0.0545528703986949;1.9636555360201395;3.855943064142542;3.322457432064566;-3.1384063681840506;0.7204722266749246;0.6347674699388496;1
1.8513320431757496;-2.8056637927653476;3.427430334089296;3.329363479814838;0.18569818659905574;3.9620007489849485;0.034483816506177725;0.04292684902558275;0.020143516126377478;-2.975179760014422;0.0004057612419336295;0.037728153359845105;0.0423167125522587;1.8158934846718362;3.2974691476736244;3.322457432064566;-2.8286126997242214;0.5916336753781682;0.012273275123368881;1
1.7358000425502393;-2.782950819029367;3.0130017877174127;3.111805405811192;0.07631725530614875;-1.1483960941381934;0.005824323457463889;0.10539328174416696;0.01934168937088934;-2.9828425734337554;0.0003741009477199736;0.03670847353930871;0.040277352911186004;1.7343427952048807;3.007944931279079;3.1107809996743194;-2.783002398978408;0.5531012117502715;0.05625179927102534;1
1.5633723993796633;-2.53316900198791;2.4441332591421254;2.5856500676245133;0.0811646676592707;-2.7702099787479892;0.006587703276239863;0.13619606780480265;0.024737482883744315;-0.4550513461877633;0.0006119430594235429;0.023452635872336106;0.0647496686040584;1.5631948268611362;2.4435780667254177;2.5837573140811685;-2.5293675692513866;0.4760888484018295;0.12464695825771571;1
1.4846344132123788;1.5372682512093938;2.2041393408944643;1.4477728787318873;0.11430612530197824;-1.917030146583258;0.01306589028155155;0.16861691114105293;0.026446885716892344;-1.5354826633006127;0.0006994377641223644;0.0326297542571633;0.0647496686040584;1.485125066193065;2.205596462234956;1.4509858778061266;1.5231042376978117;0.5525660114699011;1.423389769694332;0
0.6353980962488877;3.156715718726884;0.4037307407167107;0.39510126885973085;0.3227363629160858;3.4518734600683154;0.10415875994830347;0.12002813478518615;0.03251483791964394;-0.6383549058740693;0.0010572146849407156;0.0326297542571633;0.0836137452839808;0.6276463666195788;0.3939399615307587;0.3948518146735043;3.031292208518586;0.30692245750048763;1.674532576220936;0
0.2116584636434076;-1.5141541504430276;0.044799305231887694;0.283915788601637;0.304394490683224;-1.7112937615114596;0.09265600595829936;0.4438612228442844;0.03191614127052235;-0.3465598146404574;0.0010186400735999399;0.0316100744366269;0.0836137452839808;0.2240321966646371;0.050190425142382644;0.33245353655997767;-1.9716715335394224;0.12300940195853541;-0.5092787902347203;0
0.2719727475056331;0.1447301451876252;0.07396917538576285;0.283915788601637;0.2897417843425243;-2.1518213439936047;0.08395030159398985;0.40177984666145417;0.03147327288854617;0.27154426411887655;0.0009905669063168955;0.025491995513408805;0.0836137452839808;0.2552303490900078;0.06514253109660724;0.33245353655997767;-0.9224211051682202;0.14153393171892997;-0.7868720014043787;0
0.46100490646909226;1.0798997185693793;0.21252552378857648;0.4212520190532767;0.20764816016637574;2.5106389569671563;0.04311775842048084;0.05648592940882713;0.029296946871741836;-0.386087612412003;0.0008583110960056638;0.0275313551544815;0.0764759865402263;0.4412318471803825;0.19468554296621243;0.45287700702699607;0.8388100412468885;0.28122374486051976;-1.08658907792045;0
0.5622878551861329;-2.770566216296199;0.3161676320898215;1.0035936438594846;0.1547849554116143;1.6747926092889653;0.023958382421775424;0.05648592940882713;0.03276172709817133;-1.5269202323791096;0.0010733307624550535;0.0489446313857448;0.0764759865402263;0.5672772790987393;0.3218035113816689;1.0078516213448085;-2.7827890216021207;0.4092090911694139;-0.12112719796049878;0
1.2607029973363981;2.475581459535801;1.5893720474929784;0.6396111099677154;0.15903444444971207;-1.9799048482707515;0.02529195452142856;0.21935646035099143;0.042444899772716496;-2.662101487248601;0.001801569516715949;0.0734169470786172;0.0938105434893443;0.4977337544533171;0.24773889032219493;0.5549746143178124;-0.7335158518908974;0.38572340775572156;0.3745774404293225;0
2.076985865844707;0.17204788493207937;4.3138702869186885;2.1644352483481324;0.21874332923678314;-1.6127522417605498;0.0478486440855917;0.3077140425613325;0.039205329944963965;-0.05340251420665609;0.0015370578960934881;0.0489446313857448;0.0938105434893443;1.1792934352413864;1.3907330064034302;0.5549746143178124;3.6971034373149507;0.7257894684997681;1.8596934373055178;0
3.4763949841189947;0.10595810858621728;12.085322085607705;4.3681935183970095;0.174165272043699;0.6031942497273803;0.030333541986055684;0.12943929007769928;0.04093350935386768;-1.6127088028576975;0.0016755521880231728;0.061180789232180996;0.0938105434893443;2.869378008922258;8.23333015808666;2.7815856418101466;1.5905586731831025;1.009162453077928;1.4718786649186042;0
3.064628592929565;1.1516838055543523;9.391948412601446;2.261027755210385;0.2111427698996492;1.265225778284692;0.0445812692808962;0.12943929007769928;0.040933509353867685;-2.423665653965415;0.0016755521880231733;0.0693382277964719;0.0907515040277352;2.687659789208346;7.22351514252745;2.2531689448195302;1.9101944556828176;0.8569020887360276;1.4029600423395518;0
2.426865114653273;-0.4373211220080364;5.8896742847210435;2.868460189838993;0.2510376737486548;-2.0413626794366784;0.06301991364113606;0.3974160724275717;0.030476317662969037;1.7532785144589411;0.0009288059382941984;0.027531355154481504;0.0713775874375446;2.4183473064103076;5.8484036944219895;2.831828999353546;-0.4293990591829484;0.6010814814298544;0.6438720745432073;1
1.9723278558234092;0.00597967121403542;3.890077170856967;1.7608301864836315;0.2643808716570415;0.3121779400662774;0.06989724529813705;0.28188310461130683;0.028294966708497165;1.990934917354983;0.0008006051410349628;0.0260018354236769;0.0693382277964719;1.9572176601189384;3.8307009690814526;1.7925884926207583;-0.07662850760285049;0.4050132239332671;0.15744403311151722;1
2.579349545155938;-1.5055095129790221;6.653044076096144;3.1401146588577804;0.13562176218485683;-0.4826707399741122;0.01839326237812586;0.15269702084282955;0.011343221913575409;-1.010896847272048;0.00012866868338061734;0.014785357397776991;0.027531355154481504;2.5534792834385356;6.520256450949777;3.1083843924190417;-1.5012951244134847;0.5889495067508658;-0.12346984992004832;1
2.117044356733283;-3.0853100835623226;4.4818768083762395;3.982244121896755;0.09749893555805925;-2.738448337844222;0.009506042434954589;0.15269702084282955;0.010733310791834932;-1.261459772403781;0.0001152039605541202;0.013255837666972595;0.026511675333945092;2.0990285269888425;4.40592075711295;3.9491738502715172;-3.080514193583733;0.6824198701080963;0.4125468316103573;1
2.0876567960242203;-3.0062152616193356;4.3583108979861125;3.982244121896755;0.0921444543528536;-1.8417238388086463;0.008490600467985119;0.13879069858139514;0.04097793677456937;3.814255983475313;0.001679191302300605;0.014785357397776991;0.1040073416947078;2.0701282632462203;4.285431026290813;3.9491738502715172;-3.0023794715337417;0.6170320999446078;-0.2170590353942249;1
1.8587503745954683;-0.7466119870152651;3.454952955058794;2.543435114300356;0.11684851574948511;-2.6455423096811024;0.01365357563285767;0.20216989489743087;0.03988499483146308;3.8690355472254225;0.0015908128127058365;0.004588559192413494;0.1040073416947078;1.839303849275455;3.3830386499595058;2.512923907979442;-0.6983608170028658;0.6724235058547041;0.9105012098156682;1
1.0859307548656558;2.919500773792938;1.179245604363093;0.8128530079454386;0.12139635320751774;-2.916606763129478;0.014737074572084403;0.22240405287929343;0.04020565335913769;1.1840005080235858;0.00161649456203514;0.031100234526358697;0.1040073416947078;1.0655757741950447;1.1354517305513687;0.850968020207385;2.7025028473343418;0.5477523389276089;1.6796104988241625;1
1.012830378107318;0.8187104119846064;1.0258253748170127;1.0470946394792793;0.15831483592959375;-0.4729772913603085;0.02506358727541419;0.15778355235816965;0.04394039227823045;-2.156135302112722;0.001930758073564774;0.0678087080656673;0.1040073416947078;0.9919827577975372;0.9840297917676074;1.041864107286276;0.5179979575481468;0.4470195148241378;0.9443979114074116;1
1.041073315602518;-2.369424013150207;1.08383364845962;1.7114447661669634;0.23062476594366976;1.1904412069329962;0.05318778266657246;0.1754194687491224;0.03207942534259069;-0.5831140113162073;0.0010290895303108497;0.0367084735393086;0.0820842255531762;1.027885232839105;1.0565480518887014;1.661955887772057;-2.3769066751076893;0.3747906950646267;0.050089210525832546;1
1.466322354182667;0.9119529926078549;2.1501012463757987;1.0470946394792793;0.21188869949943645;-2.6438098079149355;0.04489682097556248;0.36868141956353373;0.046439671569678855;0.9373792449808344;0.0021566430954996383;0.0367084735393086;0.1238910981951666;1.0796985078509727;1.1657488678556167;1.041864107286276;0.5812483857180967;0.4900847308110076;0.8476689804500509;1
1.536550804136664;0.3400302398318142;2.360988373693029;1.4643394196117319;0.2085333074461633;-1.1104722136370977;0.04348614031443607;0.2920527611049699;0.04732786520757094;0.8921315854994205;0.002239926825106004;0.0367084735393086;0.1269501376567757;1.1362698426795652;1.291109155383044;1.5376065562774734;-1.5775567694831;0.4743185108585077;0.037744454854038226;1
1.651756006656873;2.812943337520643;2.72829790552706;1.2694965646875902;0.13850347529575452;2.6262612773964684;0.019183212669001682;0.0899186827754257;0.051421089512329675;-0.16512895148701054;0.0026441284466350206;0.062200469052717394;0.1269501376567757;1.1703494152489509;1.3697177537735614;1.2995518602836507;0.8236667190443848;0.40715270993376756;-1.0882407758248296;1
2.330604959821906;-2.7652068805651595;5.431719478746469;3.9957844988605227;0.04963107623482577;0.7016572322579258;0.002463243728227088;0.0373020134404336;0.0501543593644102;1.911711752130562;0.0025154597632544014;0.037728153359844994;0.1269501376567757;1.3084941648972608;1.71215697957018;2.259789648234541;-2.586341340277844;0.48780264744757856;-0.4302804429133744;0
2.0874214471122654;-2.2446077721639717;4.357328297864265;3.143532714305385;0.10917729511322687;1.4783785241053984;0.011919681768240632;0.0899186827754257;0.052090570931279716;2.782806239870079;0.002713427579946683;0.03670847353930869;0.1269501376567757;1.140898859662252;1.3016502079786272;1.455980236942088;-1.1628714276648324;0.4868808921937802;0.4086221992527252;1
2.5651007902098826;-2.547147761809319;6.579742063935363;4.02746438602138;0.17330272414742476;-1.639046173958943;0.0300338341969184;0.2381814341208981;0.021607831029385655;-2.925192033099238;0.0004668983617944815;0.03670847353930869;0.046395431834404;0.8996110303742697;0.8093000059710551;0.8919109205742259;-0.23147608395242614;0.3481983821053184;0.7151094487785897;0
2.533980194087972;-1.717912602533416;6.421055624030116;3.43304032186955;0.24094522785715358;-1.3478790384833914;0.05805460282713566;0.3230192513185657;0.019171607705682814;-3.096419118574566;0.0003675505420205967;0.0326297542571632;0.037728153359844994;0.9545358152654612;0.9111386226244985;0.6597552385377625;2.9515624774596936;0.41749007692362416;1.651053297358355;0
3.530444187124913;1.0087103634759274;12.464036158404086;3.43304032186955;0.315561850279168;0.026955792990289495;0.09957928135161205;0.3119463780913292;0.014610271936031037;4.951391628895375;0.0002134600460447761;0.0010196798205363011;0.033649434077699596;2.028259027113191;4.113834681066149;0.6597552385377625;4.522147694678137;0.729719653883604;2.1021310222884466;0
3.38844107886039;-0.07203900106485861;11.481532944908565;3.501624426922556;0.2881818003011568;-2.600850580253598;0.08304875002481582;0.5055170435471399;0.03465861560468582;1.4848436646272976;0.0012012196356333714;0.0326297542571632;0.07953502600183551;1.968952087758154;3.876772323887193;0.1883971143258849;4.660924376273357;0.685144574491742;2.1306203199859546;0
3.3765306811266282;0.20752854322714023;11.400959440589451;3.501624426922556;0.3570039097231591;-0.07987365799562696;0.12745179155762154;0.3206367759930622;0.03422389404881904;2.9049629344627803;0.001171274923864791;0.0244723156928724;0.07953502600183551;2.026250376496724;4.1056905882531165;0.5917047452922515;4.610849504757262;0.7302928696945188;2.1279423345678365;1
2.7851908514197774;2.014238284203435;7.757288078832424;0.6096441843299778;0.3930529012288031;-1.1723829378227808;0.15449058316437925;0.4295148877985091;0.032282167745719736;2.3708890682826436;0.0010421383543627876;0.0244723156928724;0.07953502600183551;2.0230614563539118;4.092777656184811;0.642398589521159;4.560661864992118;0.7264888159066227;2.1149112552004024;1
3.3597091377191144;1.967082495628824;11.287645490073317;0.6096441843299778;0.3864842792411255;-2.5637433370924896;0.14937009810053228;0.6740888830826144;0.029609367044570685;0.9236637266001395;0.0008767146167801084;0.020393596410727008;0.07953502600183551;1.9029803862810122;3.6213343505702302;1.114710860086686;3.2929933735926418;0.61228898388388;1.797457340934632;1
2.3859483489553504;-1.4910371740233768;5.692749523882762;3.3348284537073507;0.34497306452369636;0.8764624761838723;0.11900641524687036;0.36021469327427;0.02272536695664942;2.441366491765917;0.0005164423033143733;0.019373916590190707;0.05506271030896301;0.681347922217046;0.4642349911094857;0.642398589521159;0.8420194330096263;0.3217017894273477;0.9531591176768341;1
2.4358194296064957;-2.811544648332711;5.933216293648513;4.198645492495081;0.19299728938146807;-2.816958424531205;0.03724795370859413;0.34063206552828706;0.012077934226439043;0.42225472449389184;0.0001458764951781877;0.009177118384827099;0.032629754257163204;0.7079514959548242;0.5011953206246734;0.9168861705438576;-1.2351285699849441;0.31880164253534576;0.226657754928869;1
2.1365995239310887;3.145271142220807;4.565057525662555;1.2671562892023245;0.18341212506002103;-2.7794062983576038;0.03364000761903279;0.32326172431316635;0.012108027008298007;0.4947940244348719;0.000146604318033674;0.009177118384827099;0.032629754257163204;0.6353581299592225;0.4036799533052803;0.33268509725866924;1.3209365503721955;0.27181041432791797;-0.32191966336276573;1
1.4958351237429572;2.0126773294733518;2.2375227174231083;0.8841352877009294;0.2023975570284234;-3.0254615514894057;0.04096477109107391;0.34063206552828706;0.011834437558849045;2.7010282686995573;0.00014005391233429696;0.0010196798205362942;0.032629754257163204;1.4659954589804187;2.1491426857512086;0.9338174177678642;1.985331887150031;0.49881956146036815;1.226449075042343;1
1.4915807248618385;2.497466557261037;2.2248130587793677;0.6985364445704789;0.1640617087699282;4.130931265360971;0.026916244284508735;0.023046404499992956;0.011015374141577487;-3.210856391388091;0.00012133846747893398;0.019373916590190596;0.021413276231263295;1.460373321993034;2.1326902395889697;0.6883124066999518;2.6730185039116328;0.5053495006156817;1.4071828488913245;1
1.6591484209321818;1.885322920964838;2.7527734826817527;0.6985364445704789;0.09495705681427091;1.9260427455030669;0.009016842638828675;0.07900480532770215;0.011015374141577487;-3.210856391388091;0.00012133846747893398;0.019373916590190596;0.021413276231263295;1.6589789034967408;2.7522110022472486;0.6883124066999518;1.8894651424278983;0.6035089471913377;0.7327662083897266;1
1.8274708363102046;0.8904240502101844;3.3396496575643186;1.8625242023660902;0.1788428748269093;0.34729406810503366;0.031984773876353546;0.20680541345623116;0.008302723762953835;4.5316434962103385;6.89352218839183e-05;0.0030590394616089936;0.019373916590190596;1.8252668447441902;3.331599054522412;1.848713399983758;0.8973756926501922;0.7449243421086645;1.057468989757466;1
2.0832585221342774;0.4397970385518022;4.339966070045093;2.215462120222001;0.28040839173353227;-0.292602495553228;0.0786288661545861;0.3369668640251118;0.009137378124694452;3.615287627790631;8.34916789936447e-05;0.0030590394616089936;0.023452635872335995;2.0232599916920586;4.093580993981749;2.2169041263238825;0.6202260923025532;0.9591132537037045;1.274701381483985;0
1.0224425438712752;1.7777210674528459;1.0453887555179644;0.7566691595149045;0.3982210661757702;-0.5970242464825463;0.15858001754616713;0.48685949824946695;0.008906890099692968;2.906321016722908;7.933269124800861e-05;0.004078719282145399;0.023452635872335995;0.9674174286713444;0.9358964812970757;0.9808637635656751;1.0845545366065796;0.6975387694015992;1.2462508739471474;0
0.7941618616792664;0.3089491174437183;0.6306930625458782;0.7566691595149045;0.5319107769686657;-0.7661940421707847;0.2829290746554096;0.6564833161292958;0.025393917578051796;4.700297445945398;0.0006448510499608881;0.004078719282145399;0.061180789232180996;0.8704820478057529;0.757738995552097;0.9808637635656751;0.3279899653463592;0.6508739672829018;1.0539056075683448;0
0.976262301225121;-0.9964113630150196;0.953088080793369;1.2197117714724293;0.6813419351678709;-0.8707671547525706;0.4642268326182991;0.8458383176645974;0.02929162289673863;-3.10090927589005;0.0008579991719247429;0.047924951565208505;0.061180789232180996;0.8170061877054052;0.6674991107489199;0.8254350055329414;-0.340589535734465;0.5183621604664203;0.089348090039007;0
1.3981238135003933;-1.9033218012337632;1.9547501978768822;2.089163926562676;0.8464537997448494;-0.9404187624481111;0.7164840351024936;1.0549245028553724;0.04043901558623978;-1.5101835475722207;0.0016353139815841438;0.0530233506678902;0.0978892627714896;1.3334875784733065;1.778189121942603;0.9885584569732249;0.733987077726057;0.6093201066359201;0.5016338453559483;0
1.520569926386265;-0.2097464237105792;2.3121329010303318;1.7568773887207683;1.027215349528678;-0.9894125829149244;1.055171374307324;1.2837418717016211;0.03288368613561147;0.7422383505916995;0.001081336813865406;0.023452635872336;0.0897318242071988;1.459823169017453;2.131083684800159;2.236336900060839;-1.9204520404260055;0.4718380374624395;0.5645653635369161;0
1.5080960675398656;0.17679385090282076;2.2743537489292067;1.63328588679685;1.223609206799212;-1.0253336837636553;1.4972194909637966;1.532290424203343;0.02299824485805997;-0.36232267412751423;0.0005289192665512819;0.023452635872336;0.0601611094116446;1.348679866796571;1.8189373831024165;1.9999222165981823;-2.029318269285143;0.365337142729196;-0.5355857152374521;0
1.5080960675398656;0.17679385090282076;2.2743537489292067;1.63328588679685;1.223609206799212;-1.0253336837636553;1.4972194909637966;1.532290424203343;0.02299824485805997;-0.36232267412751423;0.0005289192665512819;0.023452635872336;0.0601611094116446;1.348679866796571;1.8189373831024165;1.9999222165981823;-2.029318269285143;0.365337142729196;-0.5355857152374521;0
1.5080960675398656;0.17679385090282076;2.2743537489292067;1.63328588679685;1.223609206799212;-1.0253336837636553;1.4972194909637966;1.532290424203343;0.02299824485805997;-0.36232267412751423;0.0005289192665512819;0.023452635872336;0.0601611094116446;1.348679866796571;1.8189373831024165;1.9999222165981823;-2.029318269285143;0.365337142729196;-0.5355857152374521;0
3.872747795234385;1.1698143207759972;14.99817548549279;3.4175688784964544;0.32411329431004643;-1.2006740020692217;0.10504942754851077;0.4113108699868788;0.06088222927054681;0.7957444252814992;0.0037066458409514267;0.049454471296013006;0.1611094116447435;1.3546023941319039;1.8349476461878858;1.668745613505613;-0.2785073565826366;0.30165680587471905;-0.6899235959537394;1
3.872747795234385;1.1698143207759972;14.99817548549279;3.4175688784964544;0.32411329431004643;-1.2006740020692217;0.10504942754851077;0.4113108699868788;0.06088222927054681;0.7957444252814992;0.0037066458409514267;0.049454471296013006;0.1611094116447435;1.3546023941319039;1.8349476461878858;1.668745613505613;-0.2785073565826366;0.30165680587471905;-0.6899235959537394;1
3.872747795234385;1.1698143207759972;14.99817548549279;3.4175688784964544;0.32411329431004643;-1.2006740020692217;0.10504942754851077;0.4113108699868788;0.06088222927054681;0.7957444252814992;0.0037066458409514267;0.049454471296013006;0.1611094116447435;1.3546023941319039;1.8349476461878858;1.668745613505613;-0.2785073565826366;0.30165680587471905;-0.6899235959537394;1
3.7233889590860585;-2.537015702540117;13.863625340643962;6.350095875633095;0.3410039335822017;-1.2063848809711015;0.11628368271853462;0.4327560369929331;0.047090554027600824;2.3661852384130477;0.0022175202786263925;0.013255837666972501;0.1300091771183848;1.1836290774013014;1.4009777928698561;0.47528352556385123;1.6342314239538769;0.28120857546899913;-0.23262349005777558;1
3.0862288510517444;-0.939992253555174;9.52480852106417;3.4072621926617215;0.35480546084552245;-1.2102600768686937;0.12588691504580357;0.45027343440279255;0.047090554027600824;2.366185238413047;0.0022175202786263925;0.013255837666972501;0.1300091771183848;1.4883580172171325;2.215209587414514;1.765996817434678;-0.8419853906186745;0.39869106515800873;0.3568301069696079;1
2.161633608019627;-2.527203725198183;4.6726598553199485;3.195505416142196;0.3655148538729333;-1.212858336070602;0.1336011084017518;0.4638630622164568;0.04645925798630838;2.1910167981142727;0.0021584626526383586;0.008157438564290798;0.1300091771183848;1.4963088051011812;2.2389400402233246;1.765996817434678;-1.0589483365919061;0.3977234203474889;0.26041043653327;0
1.6668770948326432;-2.921703383350381;2.7784792492777126;3.067893062210569;0.37313013723139044;-1.2145165110830771;0.13922609931031626;0.4735249204339258;0.02437546690447072;0.028518961819014994;0.0005941633868109474;0.0285510349750177;0.0576119098603038;0.9776117489990609;0.9557247317810028;1.6499303501599019;-2.738295207190912;0.30726607114948906;0.24282114840746105;0
1.2834980080349727;1.0286765047589437;1.6473671366297427;1.1818304301155154;0.37765007208782175;-1.2154330423709183;0.14261957694793695;0.4792590090551996;0.012666213020785435;3.946478756107654;0.0001604329522879145;0.0050983991026817;0.0316100744366268;0.9376980577342932;0.8792776474786658;1.3859352020524889;-2.2631947483109585;0.2899100648598284;0.11787231375726048;0
1.257674886202905;1.2530855544987958;1.5817461193854898;1.0509989188062185;0.3790739810954547;-1.2157119063396304;0.14369708314355717;0.48106532808027813;0.012138045184013806;3.286421709566691;0.00014733214088916074;0.0050983991026817;0.0316100744366268;0.7984650384942323;0.6375464176975959;0.8827771378991445;-0.9071831459269207;0.25669166873024735;0.13993917921596832;0
1.7175220848913806;2.8331567915734723;2.949882112089635;1.0509989188062185;0.37740165921551383;-1.215383916195987;0.14243201237862282;0.47894387750916234;0.012138045184013806;3.286421709566698;0.00014733214088916074;0.0050983991026817;0.0316100744366268;1.1928758434606255;1.4229527779118984;0.8827771378991445;1.4586403581635234;0.41224721721735735;-1.049397915769832;0
2.0326881193317754;-2.759214656369697;4.13182099047255;3.036087036098939;0.3726333476583688;-1.2144127904957287;0.13885561178708275;0.4728946573418513;0.017041165433709194;1.7762643527646986;0.00029040131933904503;0.0050983991026817;0.0479249515652084;1.1389896497186307;1.2972974221661693;1.6756439296022134;-2.4034934570912747;0.49305955992433126;-0.2191086063498296;0
1.9655391645506644;-2.174165293900972;3.8633442073825233;3.0094974926160862;0.3647697645850046;-1.2126879957212964;0.13305698115539966;0.4629176675783442;0.010621324898541671;3.7277920533462443;0.00011281254260038123;0.0050983991026817;0.026511675333945103;1.3226067420658065;1.749288594157927;1.749018266252708;-1.673674838235372;0.7243335640251324;0.6583793494351724;0
1.7729840821553662;2.8222230783626046;3.1434725555763063;1.0118339935894367;0.2892652823772267;-1.2759910615574388;0.0836744035887767;0.41693147247297224;0.010498246294470262;3.2139829565687683;0.00011021317525935856;0.005608239012949899;0.026511675333945103;1.2931851528712848;1.6723278396067283;0.6272759548556717;3.937555008013715;0.9275817737561136;1.940607235132807;0
0.6662032084372125;-2.6602443280484125;0.4438267149320359;1.0608251905091357;0.2791689517417571;0.35916485414417804;0.07793530361659151;0.22053929306991904;0.017071645095756146;-0.5149003558567529;0.0002914410662754549;0.0193739165901907;0.040787192821453995;0.3028406533443606;0.09171246131803919;0.410065918259626;-1.4058760834920971;0.3694894983140657;0.414186942155094;0
0.6532485946802945;-2.3424844822497435;0.42673372645177976;1.0608251905091357;0.26651184543231293;-1.6918399840264644;0.07102856375573707;0.33564884081206436;0.03575864626067162;1.7598094840199512;0.0012786807823958446;0.035178953808504096;0.0866727847455899;0.3697815172278213;0.1367383704833095;0.2867086611500669;1.0319095511139598;0.5559088614897412;0.8017070975578496;0
0.5172552714338602;0.09326873856423508;0.26755301582611635;0.62054495351836;0.4273448251433577;1.1704131661432224;0.182623599576807;0.4354410253393186;0.0464256762129442;-2.8766070856937276;0.002155343411829133;0.0861629448353217;0.0978892627714898;0.22287396763253386;0.04967280544826776;0.2867086611500669;-0.10191158789766774;0.3884083808342362;-0.8473422981493082;0
0.6125999392751327;-0.5411955555611195;0.3752786855998963;0.6417615255816668;0.46808139350297306;-2.107742627516091;0.21910019094368513;0.7192136682284085;0.04481025868696977;-2.8354505081204366;0.00200795928359315;0.0795350260018354;0.0973794228612216;0.2868971455346743;0.0823099721159441;0.17042485813125652;1.3019417022668816;0.42189465662037584;-0.8223786604353197;0
1.3022932013414994;1.6639576575489248;1.695967582260291;0.9791750486704747;0.3705567352388331;-2.9097860734693395;0.13731229403086265;0.6047491707381494;0.03740988340541275;-1.3294042774916452;0.0013994993764065763;0.05098399102681761;0.0907515040277353;0.9547572865207842;0.9115614761645309;0.24432794363159538;3.5323416637685363;0.8622455789508151;1.727413914318942;1
1.0660358653625877;2.4026815737200473;1.1364324662393612;0.5270849668092357;0.28209867741992456;4.669961036055928;0.07957966380207065;0.03510528926115519;0.03531832951329851;1.275854305745489;0.0012473843996099324;0.0316100744366269;0.0907515040277353;0.9360764901798048;0.8762391954673421;0.4273371474147042;2.6774363021930916;0.7846411959400368;1.3932226189314263;0
1.0681388910268974;-3.0783396495215443;1.1409206905241704;1.8315762227273666;0.0585713014882254;-1.6906027791631761;0.0034305973580245944;0.08159802498049107;0.03864707588099771;-1.8413744200024702;0.001493596474151595;0.0571020699500357;0.0907515040277353;0.9611072525911426;0.9237271509832944;1.7033847354970812;-3.15616021943166;0.5691036653923336;0.4953223496691889;0
0.8974046040627995;-2.9721419924280537;0.8053350233931099;1.6631213510702456;0.07877669263057414;-0.9504891810552216;0.006205767301811954;0.10354842928824493;0.03105757931498642;-2.6309789688402176;0.0009645732329066723;0.0479249515652085;0.06831854797593559;0.8234128353588889;0.6780086974337646;1.5191735874965078;-2.94334016173119;0.41671696963547383;-0.3651576323380378;0
0.6978623000601764;0.41941066091053497;0.4870117898452796;0.7941395109984393;0.06568273309513512;0.2624689172460286;0.004314221426846758;0.05733617922447243;0.03179864612932126;-2.812149007738617;0.001011153895657798;0.0530233506678903;0.06831854797593559;0.6330973924638977;0.40081230834458653;0.7388846551110049;0.4068191260440308;0.2919043409499053;-0.9303076651487513;0
0.5983904190579988;1.7220402650519009;0.35807109362040745;0.22675902244671486;0.07557601732963787;0.9676386503193039;0.005711734395409724;0.05733617922447243;0.027878501304154826;-2.4350644847373992;0.0007772108349657624;0.04384623228306311;0.06423982869379019;0.549017557968942;0.3014202789581806;0.2786763310481071;1.4020175345794972;0.273541170450189;-0.3990952221540939;0
0.40095128905203425;1.8962129100877487;0.16076193619248794;0.22675902244671486;0.1253890682471457;-0.9394940620759419;0.015722418435887366;0.14819693926534905;0.02702632462669232;-2.1685794252858415;0.0007304222228273557;0.03874783318038141;0.06423982869379019;0.405170276161484;0.1641629526847732;0.2786763310481071;1.2340645052539994;0.1935267869459156;0.8874889609657114;1
1.650281323603442;4.76945171584957;2.723428447034328;0.27833147413129966;0.19039174905195325;-1.1504197468546107;0.036249018107061944;0.2534988129329485;0.02471961315489377;3.307691111724852;0.0006110592745275971;0.010196798205363497;0.06423982869379019;0.2054421323311865;0.04220646973678475;0.07105744328684915;1.7306459612024696;0.10635715185974706;-0.27058525662527777;1
1.6290537326025643;4.863143349581061;2.653816063706347;0.27833147413129966;0.22897973756942275;-0.8136072211610662;0.05243172021736171;0.2663224665378663;0.00779905095379745;1.0357221126724798;6.082519577992892e-05;0.0050983991026817;0.021413276231263392;0.1363296424572982;0.018585771412534764;0.0321088700726293;4.0514265634161335;0.07292430047764162;-1.9250303614071842;1
2.8186336595889463;2.0346056124162266;7.944695706967776;0.34657321792995033;0.24621699688833762;-1.4764512847860434;0.06062280955671166;0.334983705582685;0.024273948769473124;4.250999279493381;0.0005892245888630057;0.010196798205363497;0.058121749770572;1.8974967944250936;3.6004940848535054;0.0321088700726293;4.92086124870809;0.7057264026721185;2.2126642108378993;1
2.9895794766941544;0.14286338936727105;8.937585447470894;2.599700755438633;0.2166349601921826;-1.5616540054648869;0.04693070597746853;0.3287279717044358;0.02422249360028038;3.9480010472489275;0.000586729196215624;0.01223615784643621;0.058121749770572;1.9332640627857454;3.737509936458846;2.2408842378201816;-0.31380982779029526;0.6175636059235822;1.125561047965647;1
3.1322399748295293;0.7569004544616268;9.81092725992009;2.998239701606734;0.1386720262816708;0.2994187277905797;0.019229930873064394;0.15476485899201764;0.033598411403804485;-2.6387705956529834;0.0011288532488592995;0.0560823901294993;0.0723972672580809;1.8485624386102422;3.4171830894406456;2.976663022343934;-2.2055292487386;0.48889415358029037;0.015148362840551365;1
1.5560392202821784;0.5221559455808951;2.4212580550563696;1.2903185885324713;0.16975531030208377;1.6487672750995348;0.02881686537575675;0.15476485899201764;0.029932422807111246;-1.9300638391694562;0.0008959499351036735;0.04384623228306309;0.0723972672580809;1.5493318752559722;2.4004292596841874;1.2636964708200176;0.5704490765852981;0.3757137364116992;-0.36752049022513883;1
2.1085485043837684;1.9956051511496777;4.445976795339026;1.2903185885324713;0.23172750676286422;-2.8080880723523163;0.053697637390533286;0.407957268811697;0.030551281884961864;-1.8245137472045723;0.000933380824814399;0.04384623228306309;0.0744366268991536;2.0052595851885884;4.02106600399071;1.2636964708200176;1.8174890384502251;0.5162718095758794;-1.0733760391067295;1
1.6924482782886248;2.914205052479531;2.8643811746821304;0.8189764022889183;0.23681992826289816;-2.2875612522300615;0.05608367842244423;0.36095195503415045;0.028777742004017687;1.3958502535221224;0.000828158434849804;0.021413276231263406;0.0744366268991536;1.587399972900266;2.519838673963765;0.7663693835110106;2.8143239371854114;0.4748097594034385;-1.488734907735561;1
1.7232968013365682;-0.721397938766342;2.969751865496847;1.833620704539539;0.17039380103763138;3.291562140233116;0.02903404743205191;0.10536244474046974;0.03112112259005169;0.7235105534249477;0.0009685242712650255;0.0356887937187723;0.0744366268991536;1.630346536322948;2.6580298285002333;1.772618634404352;-0.8614324522510847;0.5650226002951332;-0.2930652656397867;0
1.2932462103608713;-0.2363859964047137;1.6724857606127548;1.5598507266850405;0.0670561502467705;-2.432279938919392;0.00449652728591746;0.10536244474046974;0.02568905176410412;-0.8079857892418248;0.000659927380538821;0.0356887937187723;0.0601611094116447;1.205263873380781;1.452661004476843;1.5225305939157268;-0.5566359342204912;0.4860054472192016;-0.867625353028155;0
1.176901413035459;-1.7604193981050322;1.38509693600486;1.650814224533768;0.12679895866134253;0.9191452444878708;0.01607797591760085;0.12772860820742382;0.024514765535171415;3.2786754229474275;0.0006009737292444282;0.014275517487508896;0.0601611094116447;1.1134172115875156;1.2396978870593183;1.6494633508468293;-2.02712949033862;0.5574692736011246;0.1667549438415414;0
1.0638608512964378;-2.2511068377506547;1.1317999109211816;1.650814224533768;0.13739710260792473;-2.5476642192625634;0.018877963805052595;0.23123173085570947;0.025118089915696397;3.000740020049667;0.000630918441013009;0.014275517487508896;0.0632201488732538;1.0574903035238599;1.1182857420469852;1.6494633508468293;-2.2232927861052283;0.5191071243964551;0.30930428276666966;0
0.8729617841659614;0.7799633675214656;0.7620622766142185;0.9290086307279303;0.11260669128757493;-1.1710006285540047;0.012680266922735203;0.13780252471012577;0.0251180899156964;2.109065832235616;0.0006309184410130092;0.020393596410727105;0.0632201488732538;0.84623662253242;0.7161164213150776;0.9506090429086528;0.6579651059313179;0.5539017602075507;1.208355254548998;0
0.8747882768591858;4.131964363503975;0.7652545293302636;0.34372113037517893;0.19106967387708254;2.173078494436472;0.03650762027549468;0.13780252471012577;0.031149507878246184;0.741806419348246;0.0009702918410569211;0.024472315692872504;0.0836137452839808;0.8318403752474082;0.6919584098917488;0.3474413808469249;4.044799970305296;0.5911566651731394;1.9634137172842006;0
0.8149502843895438;4.004174887272247;0.6641439660265982;0.34372113037517893;0.19953922653872136;-0.9620061869259912;0.03981590292767116;0.2623166919948252;0.01803421308814858;-1.230336012977708;0.0003252328417087495;0.022432956051799693;0.0448659121035995;0.7865654997391478;0.6186852853798953;0.3474413808469249;3.935977988052715;0.5673679689530589;1.931720782926354;0
0.8198783924255825;4.394351706959275;0.6722005783663575;0.22838754440397258;0.298292640070411;0.3085185470368271;0.08897849912017577;0.300517029436119;0.016161201391788692;1.4592884092640641;0.0002611844304259527;0.008157438564290798;0.0448659121035995;0.7815748920673541;0.6108593119100961;0.6339247771781643;2.482321656480135;0.5385905717776021;1.5608164103992999;0
0.9452386925284119;-3.04961359177441;0.8934761858528215;1.5484964820207194;0.3631458105280929;-1.609425264951123;0.13187487970410555;0.5082467369284207;0.02239120302119655;-1.3708245819952047;0.0005013659727364416;0.028551034975017903;0.056082390129499296;0.915442050910169;0.8380341485746163;1.5079131487337576;-2.7215200869821086;0.49662890228687684;0.27395673763722617;0
0.8112401194144145;-2.975030521119915;0.6581105313475135;1.4617842555259544;0.4552590745985005;-1.009616434428505;0.20726082500428306;0.5773536949613156;0.02127444103657854;-0.2212737621007316;0.00045260184141885697;0.021413276231263392;0.056082390129499296;0.7214594692183229;0.5205037657247842;1.2214297524025182;-2.5648250200949376;0.3380400934341287;-0.3290330323583164;0
2.0302274856233202;2.841526570615841;4.121823643380389;1.4617842555259544;0.5165858176967204;-0.6108266546961781;0.26686090704538923;0.6328863016363426;0.018599027010660765;-2.5168857800075486;0.00034592380574328865;0.0316100744366269;0.0418068726419904;0.5987002405195465;0.35844197799816285;0.5798233704553173;1.02124192999725;0.2407984371889289;-1.2911618018081197;0
2.184675134506064;-2.7667196195032244;4.772805443329089;3.4943381388387005;0.3320588438449151;-1.4856194741645556;0.1102630757756217;0.43564040250755376;0.025416427199567968;0.6953527995342009;0.0006459947715909385;0.020393596410727008;0.0672988681553992;0.5929762026570701;0.3516207769175986;0.5798233704553173;1.0503633098623173;0.23956782347075314;-1.25437643523175;0
2.716938321420767;-2.2811198146499385;7.381753842404695;3.809857052301735;0.20493328634379257;3.468465210325133;0.04199765185166687;0.053550476531265545;0.02300050523890552;1.211106692031689;0.0005290232412449203;0.020393596410727008;0.05812174977057201;0.740895877742788;0.5489267016562562;0.30804675999320796;2.8737705688359703;0.24540232647062957;1.4676904765976853;0
1.9612667214040964;2.807151661806683;3.8465671524871734;0.3937969654901998;0.06355408288996084;2.7731598654785707;0.004039121451984012;0.047863921055525616;0.033777423130275104;0.6281075038588568;0.0011409143133216438;0.024472315692872407;0.0917711838482716;0.7602334568398309;0.5779549088986391;0.37742124144949285;2.9538866533790156;0.2557110229554544;1.6096333826413773;0
1.108011841627887;-2.797218872520578;1.2276902411876218;1.8602257768916006;0.11687602832805805;1.8502238890021812;0.013660005997741028;0.053550476531265545;0.03935356479127744;-1.2069805861575145;0.0015487030617812715;0.058121749770571995;0.0917711838482716;0.9135654777983464;0.8346018822249209;1.5537558215030112;-2.821049363802937;0.2662156706938107;0.5734384166818474;0
1.114030110143223;-3.068524106066899;1.2410630863057215;1.8602257768916006;0.22419945542550826;1.9662986799072317;0.05026539581309447;0.19903623484134592;0.04052505750838717;2.1090900236198578;0.001642280286058087;0.03364943407769959;0.09483022330988071;0.9042502061429916;0.8176684353096427;1.5537558215030112;-2.9421450535382347;0.24931017930912558;-0.37194273784467796;1
0.9184545194308806;1.2405409957396276;0.8435587042630098;0.7591904771171398;0.35526214945981893;-0.8229501212192515;0.12621119483881074;0.4821349702355864;0.01822633112238146;3.221979765917761;0.000332199146182691;0.0030590394616091116;0.0489446313857449;0.7872664603600461;0.619788479607836;0.9914352863292768;-1.0735962141936533;0.21052872605480694;-0.6419088210421892;1
1.3152826070849695;0.2067155040336258;1.729968336500234;1.171359877981728;0.4354170030576485;-1.9269512473464292;0.1895879665517043;0.6382334366803835;0.010532853275102907;1.7345534300082772;0.00011094099811484603;0.0030590394616091116;0.029570714795554204;1.125471193399487;1.2666854071720652;1.3122087513347207;-0.7493425301382951;0.28184915528667936;0.24125185490679724;1
1.1201236213778665;-2.143931730178019;1.2546769271686662;1.6935205818976078;0.3676848286583808;-1.0352430122093021;0.13519213322554285;0.5256122505169847;0.03274585493644422;3.0740674448191974;0.0010722910155186484;0.017334556949118007;0.0836137452839808;1.0603392854373548;1.1243194002418;1.5375153375323891;-1.7683762718571228;0.22898369210049002;-0.16501322047767497;1
1.1479855867560005;-2.1047612686540162;1.317870907399519;1.6935205818976078;0.22616881470911776;1.999497809941765;0.05115233274692724;0.20438005078490784;0.06804634473585194;2.0876059073587583;0.004630305031910405;0.029570714795554204;0.18660140715815232;1.089572944826731;1.1871692020983946;1.5375153375323891;-1.7709209796181564;0.22899178217328015;-0.6777027682039674;1
1.2673027887044181;-3.1058665085638366;1.606056358257995;2.221983567953232;0.14791613465199313;1.699920751173546;0.021879182890386567;0.051986070479222324;0.07876325346304948;0.8945935317267413;0.006203650096084575;0.0836137452839808;0.1947588457224432;1.2451365046395986;1.5503649151861172;2.2283531700432455;-3.1375637422434988;0.2695121870261771;-0.4759112549077874;1
1.0077204893021208;0.49234175486136306;1.0155005845593057;1.057106177877504;0.14038353746642412;-2.5629372068582392;0.01970753759158691;0.20996257252284778;0.08379230946116827;2.905448928363827;0.007021151124836188;0.0622004690527175;0.19730804527378412;1.0134258778686518;1.0270320099338475;1.0809223877399603;0.3775787812795528;0.2087058409747362;-1.0690591515404029;1
1.836888472457843;0.4971886163936314;3.3741592602485078;1.8974679222216242;0.21186336135603998;-0.9958565118343673;0.044886083885079975;0.27209445751049577;0.0925760340084778;4.331466940409174;0.00857032207273884;0.010706638115631804;0.23350667890282442;1.845663428190129;3.4064734901585396;1.9181425000929027;0.49157424767291386;0.46373559866888736;-0.9967715925193923;0
1.9047772774637972;-2.6799433203871996;3.6281764767423956;3.3016900443188737;0.30145130763747763;0.11969869894364867;0.09087289087634517;0.26876837777618956;0.10284900313033783;3.70777611137292;0.010577917444904241;0.0387478331803812;0.2610380340573059;1.9212727701778813;3.69128905742699;3.2979331510820193;-2.6481405057083216;0.6396702841970691;-0.09321118980151093;0
1.5693188355618204;-1.5842978321310355;2.462761607649108;2.136812654243146;0.414954789699342;0.16550226369321544;0.17218747749442515;0.4898404123890989;0.03228619350584511;-0.9748785179110785;0.0010423982910968746;0.0387478331803812;0.0774956663607626;1.5638842675844513;2.4457340023981557;2.150502368778734;-1.610502301225966;0.70547489403268;0.8759907786923001;0
1.4642894151582746;4.670917453628872;2.144143491344562;0.33924279510411015;0.5448595391719636;-1.4747229024770583;0.2968719174266845;0.7447656852859192;0.03792674385147084;-1.3732851401329889;0.0014384378991750808;0.0499643112062811;0.0927908636688079;1.4479746204990573;2.096630501609389;0.558426080519665;4.240976344958561;0.7627474445334665;2.0357046824264597;0
1.440624071176739;4.6600564007589655;2.075397714453842;0.33924279510411015;0.6052041403084523;-1.6677759879289376;0.3662720514464927;0.8431041570445168;0.038180848500161554;-1.8769718271622295;0.0014577771921922887;0.0499643112062811;0.0927908636688079;1.4903946922240228;2.2212763386095395;0.558426080519665;4.283179155831289;0.7771811098755588;2.0466304166772376;1
1.7601422289278865;2.638956867687058;3.0981006660552284;0.5214308722411791;0.5951598410847307;-1.0501532336937878;0.3542152364400019;0.7437155852834503;0.047909219879578246;-1.3504190781939833;0.0022952933494697755;0.0606709493219128;0.119302539002753;1.4437768803969908;2.084491680368867;0.4235499847573283;4.190874222214447;0.7181897533059078;1.9905470747558878;1
1.8313755812258081;2.2439141071444184;3.3539365195101665;1.149030572748939;0.4422270709272284;-1.0409416454174192;0.19556478226087592;0.6230518688799129;0.03165198509694022;1.7168059646245257;0.0010018481605769257;0.015295197308045294;0.08718262465585791;1.354113666646532;1.8336238221989154;0.16625587626791516;4.743270047227348;0.6356518214731706;2.159373637443766;1
1.924598192570273;2.449999941370457;3.7040782028447623;1.3793327774732336;0.28790767320631566;1.098351276524949;0.08289082829107466;0.2991758122937447;0.03445929466379051;1.6150262332548249;0.001187442988725941;0.030590394616090602;0.08718262465585791;1.3158505943817047;1.7314627867346857;0.1488747749340047;4.950951952252261;0.602161857159599;2.222674456783208;1
1.9190739642611363;3.8230270537781883;3.682844880304953;0.8084225165117689;0.13443861774147495;-1.1297174577555573;0.018073741940238426;0.1864772128059955;0.0366138186861953;1.6252265926730456;0.0013405717187855843;0.033139594167431494;0.08718262465585791;1.3238404077662806;1.752553425234792;0.0673986716389825;4.985669863234176;0.6103697255886512;2.2320592040584977;1
0.5091462172925252;-0.1884745625668612;0.2592298705832872;0.5394210372219621;0.18942725274391053;1.5485351698607903;0.03588268408210536;0.1864772128059955;0.04316872055233888;2.5251103729145625;0.0018635384341259247;0.033139594167431494;0.10298766187417141;0.14599624267850742;0.02131490287624163;0.07086545730652483;3.86181373908204;0.09644666501466838;-1.9141026509553856;1
1.2307060125086704;3.8095531798848206;1.5146372892249915;0.5781203117874743;0.19464428188239585;-2.416086133476805;0.03788639646951358;0.318949865527008;0.045891256462386294;-2.8191198939027253;0.002106007419696512;0.0825940654634444;0.09839910268175789;0.8428019602461189;0.7103151441947005;0.08477977297289296;4.521648437567784;0.45240802138911684;2.0831463836066657;0
1.3959919729057535;-2.892715510858718;1.9487935884172982;2.274418978408365;0.34305809598371895;1.2872126038653906;0.11768885721997452;0.25391401076102893;0.049842686011445377;-3.097170502657267;0.0024842933488355328;0.0841235851942489;0.09839910268175789;0.9388821937553881;0.8814997737509301;1.406478978056262;-2.613016462456848;0.43715777006066653;0.610662628838911;1
2.4182851051408205;1.1645448273650747;5.84810284974595;2.274418978408365;0.3841472949727266;-2.218839541697142;0.147569144234863;0.5515208306362354;0.04688448562089343;-3.01167767884314;0.0021981549919357626;0.0841235851942489;0.09839910268175789;0.9216003167755421;0.8493471438807796;1.3390803064172796;-2.5774307813942072;0.38042708848406265;-0.5373354667377083;0
2.489908134187068;1.8835157623259065;6.199642516690926;2.274418978408365;0.36097666967512276;-2.9623080429488815;0.1303041560497427;0.6490943216630625;0.03750287563481637;2.971409615815972;0.0014064656808805036;0.0173345569491179;0.0973794228612215;0.8173055420223732;0.6679883490204851;0.6551887862329866;1.205530263582003;0.31934485820572855;-1.2217126916741894;1
2.534128912465716;4.67612834225433;6.421809344994672;0.6248946857784659;0.32769689363838816;3.4156632302966443;0.10738525410024907;0.2101180228052355;0.03399986241000933;-0.7233076103986574;0.0011559906438995656;0.0367084735393086;0.0841235851942489;0.38761547613671554;0.15024575734069268;0.29163033614888967;0.45136472335911054;0.13646262369005516;-0.18612989365601515;1
2.679510773422943;4.03559659618134;7.1797779848896175;0.6248946857784659;0.09423884499506292;4.390029121677091;0.008880959906003495;0.036878226416853455;0.03715610289257906;-2.6605827579733856;0.001380575982163922;0.066789028245131;0.0805547058223717;0.6221855198471287;0.3871148211074418;0.29163033614888967;2.3229862154651584;0.20983006451747208;1.2275100864777597;1
2.993268624556844;-2.555513090501633;8.95965705875642;4.4391132575073255;0.016699972186908423;-0.22665175645345906;0.0002788890710435149;0.019818479631318997;0.03413567622932945;1.1946953382564314;0.0011652443916336077;0.0367084735393086;0.0805547058223717;0.7960135742516253;0.6336376103928478;0.6229338052387328;1.1689536383780432;0.2899859493748852;0.8883787753826479;0
2.7623862514738353;-2.845871201810212;7.630777802331666;4.4391132575073255;0.02344832362837347;2.0503544920321772;0.0005498238809809376;0.019818479631318997;0.03248124407060559;-1.2119743583261122;0.0010550312163742507;0.0428265524625268;0.0805547058223717;0.8252885562476981;0.6811012010734101;0.5029901832425323;2.7213583722200076;0.3183327455426911;1.5836117976606239;0
3.0433737032681965;-2.6667913546442024;9.262123497744376;4.744760535837294;0.044059101514933814;0.010425239884141272;0.0019412044263032433;0.0539393067270213;0.03262497415787383;-1.348332017747687;0.0010643889388019354;0.0438462322830631;0.0805547058223718;0.8092143162519673;0.6548278096271388;0.5029901832425323;2.023847491483753;0.30382765911840365;1.2600010266193526;0
2.723004624574714;0.9795185059947377;7.414754185455281;2.6918295359910447;0.0649542072938097;-0.7070451635290679;0.004219049045167201;0.08149204360332885;0.037245541512467555;-2.799079151991418;0.001387230362556944;0.0672988681553992;0.0805547058223718;1.155600551930194;1.3354126356213691;0.8000367279547966;0.9522321741377802;0.5037947098076409;0.403269310315693;0
1.7182724340385713;-2.7134680722524167;2.9524601575768363;2.6918295359910447;0.08465208391936291;-0.9613623194807772;0.007165975311890859;0.10694086437472183;0.034067073992636525;-1.4673121596904224;0.001160565530419772;0.04690527174467221;0.0805547058223718;0.7096614247849539;0.5036193378278107;0.792787395460286;-0.6498511278119944;0.40026015093546136;-0.2167020807287687;0
1.846412241815182;-2.9003913531544065;3.4092381667249665;3.1665163879964;0.10286496020003282;-1.073320875471224;0.010581200036954334;0.1302857690412016;0.03146666502097623;-0.9303730174409365;0.000990151007542329;0.037728153359845;0.0785153461812991;0.8221008626181925;0.6758498283175761;1.2865432527094214;-1.8089224982969998;0.42401951324894627;-0.5949042235990212;0
1.9381997201750483;-2.9880525744710726;3.7566181552866356;3.185366770706352;0.11950121031604445;-1.1304162473022359;0.01428053926699949;0.15152675760276946;0.04248897040041117;-0.8124820637380287;0.0018053126056870165;0.04690527174467221;0.1091057407973895;0.9093696897751761;0.8269532326817999;1.315643813691059;-2.132218526322299;0.4402823705623663;-0.7984563143959394;0
1.899651741882339;-2.95763137797346;3.6086767404366054;3.1665163879964;0.13452289130415812;-1.162584066760676;0.018096408284830338;0.17066383005942232;0.028454365910729997;0.7029257816248476;0.0008096509393817133;0.021413276231263403;0.0774956663607626;0.8926415966074863;0.7968090199939624;1.315643813691059;-2.063359109041875;0.43684254114303167;-0.7766439633184181;0
1.8692709473906286;3.8448448815356593;3.4941738747586584;0.29769417282349053;0.1479115330507146;-1.1820190585408987;0.021877821609412644;0.1876969864111615;0.030649818222063932;0.9205601165485054;0.0009394113570455622;0.0305903946160905;0.0774956663607626;0.8652031740650151;0.7485765324121769;0.24937077093026172;1.8460212891198549;0.327740189884962;-0.30868166225486393;0
0.5857964333233626;-2.892286744056825;0.34315746129437286;0.9392786842235816;0.15965711069624758;-1.194359418999343;0.025490392995873856;0.20262622665798902;0.026360251850127567;0.38420541228679284;0.0006948628776021538;0.023452635872336102;0.07035790761700811;0.5963456003410742;0.35562807504615623;1.0156360471225763;-3.091488051076871;0.19198795033152008;0.5241346093391424;0
0.5857964333233626;-2.892286744056825;0.34315746129437286;0.9392786842235816;0.15965711069624758;-1.194359418999343;0.025490392995873856;0.20262622665798902;0.026360251850127567;0.38420541228679284;0.0006948628776021538;0.023452635872336102;0.07035790761700811;0.5963456003410742;0.35562807504615623;1.0156360471225763;-3.091488051076871;0.19198795033152008;0.5241346093391424;0
0.5857964333233626;-2.892286744056825;0.34315746129437286;0.9392786842235816;0.15965711069624758;-1.194359418999343;0.025490392995873856;0.20262622665798902;0.026360251850127567;0.38420541228679284;0.0006948628776021538;0.023452635872336102;0.07035790761700811;0.5963456003410742;0.35562807504615623;1.0156360471225763;-3.091488051076871;0.19198795033152008;0.5241346093391424;0
6.574625700449229;-1.2666296354400757;43.225703101007504;9.728478899215158;2.767279750954927;-1.0160394705413591;7.657837220045162;3.4648847006866825;0.09963581584674401;4.396047560693295;0.009927295799446286;0.019883756500458802;0.24778219639033341;3.492922470560836;12.200507385348814;0.4528248397974721;2.0034608480153877;0.5358382364119731;0.3050727906105663;1
6.574625700449229;-1.2666296354400757;43.225703101007504;9.728478899215158;2.767279750954927;-1.0160394705413591;7.657837220045162;3.4648847006866825;0.09963581584674401;4.396047560693295;0.009927295799446286;0.019883756500458802;0.24778219639033341;3.492922470560836;12.200507385348814;0.4528248397974721;2.0034608480153877;0.5358382364119731;0.3050727906105663;1
6.574625700449229;-1.2666296354400757;43.225703101007504;9.728478899215158;2.767279750954927;-1.0160394705413591;7.657837220045162;3.4648847006866825;0.09963581584674401;4.396047560693295;0.009927295799446286;0.019883756500458802;0.24778219639033341;3.492922470560836;12.200507385348814;0.4528248397974721;2.0034608480153877;0.5358382364119731;0.3050727906105663;1
4.094801469776645;-0.47853056504300423;16.767399076884967;5.217557686845368;2.3070607284635454;-0.9730962937601326;5.3225292048187445;2.8820909365168372;0.018850292186536322;2.0565824489789377;0.0003553335155177923;0.0137656775772407;0.046905271744672204;2.723615623734359;7.418082065849902;4.4820287772285035;-3.0612614799162703;0.6190484424443639;-0.6329811492259809;1
2.5742960901473113;-3.1281744394937374;6.627000359747734;4.427420596293091;1.8809570479616406;-0.9114204614295242;3.5379994162765698;2.342211154351779;0.031883547163499955;-0.07229462644462832;0.0010165605797271262;0.0407871928214541;0.0744366268991537;2.62793202913192;6.90602674973741;4.385714555178355;-3.0587195564605008;0.7340571216681276;0.5157536772724121;1
3.8291066978286796;1.9132225968423526;14.662058103356454;1.1291070103259415;1.4890823977223235;-0.817414171685531;2.2173663872064644;1.8452453541915066;0.030210757368524587;-1.6470783873404014;0.0009126898607798627;0.041297032731722305;0.0744366268991537;2.2628314659875057;5.120406243463165;3.4055864244370126;-2.505357147359381;0.6870765628276202;0.5659281230214389;1
2.7488432028401464;-0.25548106104165313;7.556138953800474;3.381634055244362;1.1316601465720229;-0.6619104851466228;1.2806546873394122;1.3911935360360168;0.027868942654159908;0.3655638273821715;0.0007766779646608535;0.024727235648006503;0.0744366268991537;1.6082003388100161;2.5863083297486504;1.4419195924675545;0.894168134737542;0.5946033648241339;1.0680916640903644;0
2.42059607836901;-0.13720721213691198;5.859285374615432;2.591496964692084;0.8091939961156057;-0.3726053386600607;0.6547949233495429;0.980055699885316;0.028251066267033005;-0.26837551715134583;0.0007981227452242902;0.025491995513408805;0.0744366268991537;1.5312678183493844;2.3447811315124834;1.0582441245804604;0.8152805984828445;0.5147793881402929;0.43911958899399095;1
2.212242280683594;1.552980833080272;4.894015908444149;0.9917249168841513;0.5230905646770369;0.2667884062701636;0.27362373885414126;0.6118318457394007;0.03297623887407579;-0.44305508226443874;0.0010874323302801072;0.044101152238197196;0.0785153461812991;1.1121545382117761;1.2368877168650492;0.1975153523499742;2.978019596368133;0.3298260007848728;1.3754857754129965;0
1.4799885161268604;3.6850881931998316;2.1903660078673863;0.5384459337729437;0.27907671779214593;1.9313039143671702;0.07788381441363706;0.22335029054568079;0.032182773557715115;0.9119375350036675;0.0010357309138671672;0.03492403385337;0.0785153461812991;0.9029514284057365;0.8153212820599599;0.24062300573160433;4.604899068531168;0.24989786837090053;2.1271959243536633;0
1.126036142487508;2.5394551651616317;1.2679573941881475;0.929491718986788;0.2503034562269173;1.25885929739072;0.06265182019914031;0.22335029054568079;0.03216055443908896;0.5565292217496101;0.0010343012618296047;0.03492403385337;0.0785153461812991;0.36934533127877345;0.13641597373742692;0.1975153523499742;2.930556396461185;0.12076467519357423;-1.5879439692970578;0
1.0887295269551471;-1.3175500821129102;1.1853319828639783;1.4225204208699;0.3318526250421425;-3.1213875876121784;0.11012616474736084;0.5453866553196116;0.028008731915612078;1.8957612838543163;0.0007844890635206266;0.008157438564290798;0.0785153461812991;0.49977857500190326;0.24977862403093304;0.7186243725242858;-2.255383947990662;0.17518463163488177;-0.42153385899877827;0
1.0304998568757837;-0.5002884334104761;1.0619299550210108;0.9692414377586924;0.40503467341531474;-2.5047948873829973;0.16405308666865065;0.6193079210242418;0.025157383810567167;2.2998208254014023;0.0006328939601921871;0.008157438564290798;0.0693382277964719;0.5391933564424826;0.29072947563171003;0.8300902592902202;-1.9363847069618199;0.20279653358922214;0.6992367034129546;1
1.5904929732668576;-0.48441119002875394;2.5296678980112492;1.754858180512822;0.43591127844796623;0.8659793203603504;0.19001864267814036;0.31583849210617965;0.013204755250885863;2.8712039025353513;0.00017436556123579777;0.008157438564290798;0.0336494340776996;0.5046023953030123;0.25462357734553753;0.5847774931652094;0.5206558329991774;0.19335445669062196;1.1554450313443363;0
1.2481113210991919;-0.8908639139529354;1.5577818698559698;1.4919528836697011;0.38205348653518223;-1.6244411928010625;0.14596486657368868;0.5612126180231676;0.028142054677346724;0.9000818684473136;0.0007919752414627725;0.029570714795554204;0.0683185479759356;0.2921902340680821;0.08537513288476059;0.2517650308077237;1.1085517603885162;0.12472036340809231;1.2123783584309307;0
1.3934702973022544;-1.7262681040497323;1.9417594694636329;2.0779965331613397;0.46186488328272274;-1.2176770963121808;0.21331917040976311;0.5902386071316914;0.027416875235462587;0.3030330649972915;0.0007516850476769217;0.029570714795554204;0.0683185479759356;0.28794339782522077;0.08291140035113337;0.1757656853759757;2.519726483032953;0.12371024979757554;1.5161110152242137;0
1.4366225809082338;-2.361319762636382;2.063884439975435;2.3086746359017036;0.4624460240287841;-1.3226658544212597;0.21385632514003075;0.6024677414602801;0.02455608347783554;1.8809091870706578;0.0006030012357704277;0.009177118384827099;0.0683185479759356;0.7319314963393162;0.5357237153335104;0.29957529469903;2.736706730478938;0.3566835357767974;-1.3856270490526512;0
0.9832031457483456;3.244142945685487;0.9666884258094425;0.5860436494916383;0.40895024390261686;-1.5869365860899538;0.16724030198800982;0.5692436791116466;0.025369338849035878;0.33753386304967137;0.0006436033536372011;0.020393596410726994;0.0683185479759356;0.7339392675184747;0.5386668484055551;0.5504999277538396;1.2424638092790232;0.3712200140156447;-0.8787046971788386;0
1.5617255469868623;-0.787040571683363;2.438986684111414;1.8834697290595745;0.3931375444440926;-0.23554589662896083;0.1545571288515309;0.3968673392748432;0.02254737821914566;0.2367539412091304;0.0005083842645572041;0.020393596410726994;0.05914142959110841;0.5720406058651143;0.3272304547585271;0.4201720500225683;1.5041907106686512;0.32793778512502936;-1.0323250313739039;0
2.5359325371403285;0.19006602124403096;6.430953832926983;2.3086746359017036;0.3892335663303691;-0.9973991194003204;0.15150276915825783;0.46779585435842197;0.01331648752504066;0.49001664901875824;0.00017732884000456355;0.011216478025899798;0.0356887937187723;1.623146636605111;2.634605003922484;0.7197473447215983;3.072945075354061;0.691054179235684;1.613437439858461;0
2.9155774187670715;-2.3977486012727844;8.50059168482446;4.77170726780649;0.3364462816403418;-2.4125591976427594;0.1131961004296122;0.5701210047099097;0.04055327026662813;3.1080205221821657;0.0016445677293181853;0.020393596410726994;0.1050270215152441;1.9051651225902948;3.629654144334493;2.9338331078409037;-2.7954561235572366;0.6824598146377214;0.4752167624343002;0
3.0779435712087224;0.06455647959135764;9.473736627545104;3.397027083449842;0.24918101063347944;0.9688168604264291;0.0620911760603222;0.2614733364648911;0.03904854520009502;1.5731095965365434;0.001524788882243864;0.025491995513408798;0.1050270215152441;1.94653315234571;3.7889913131809267;3.2731288310494495;-2.883547798127974;0.5126093141677646;-0.35607186607439634;1
3.025282645475301;4.501831300857321;9.152335085014036;0.5087895447029265;0.15654932915534822;-2.78115983850871;0.02450769245898956;0.2614733364648911;0.03954859436743772;0.09845856180175143;0.0015640913164401266;0.0367084735393087;0.1050270215152441;1.6130537706503512;2.6019424670093154;0.5085431401763048;3.4490451946960476;0.36752972114899346;-1.6936531116234843;0
0.5037769060317075;0.43373337829007025;0.2537911710508799;0.5074208176956425;0.2096124153769718;-2.0833244637324952;0.043937364680168164;0.31656436777838914;0.029698776509408484;1.6806643082782837;0.0008820173261557933;0.021413276231263403;0.07851534618129899;0.5033098187909345;0.25332077369136335;0.517178548106985;0.28438463903771566;0.09834503920131088;0.760377410990051;0
1.3965492236579073;2.835380820230796;1.9503497340995037;0.6845166944784129;0.20976247697356795;-2.9214510636151587;0.044000296746086624;0.3776528604553304;0.030243435320066358;1.5743062913665635;0.0009146653799590373;0.021413276231263403;0.0805547058223717;1.3758023978574896;1.8928322379504183;0.7106103295229786;2.763735116464178;0.3021483645158285;-1.4917524006792868;0
1.507812744305029;-1.495573894960761;2.2734992718886633;2.0109755327080876;0.2619070740339529;1.3407590162449132;0.0685953154290265;0.1274033506330241;0.020889753210865815;-1.4318423776267721;0.0004363817892108786;0.027531355154481497;0.05200367084735401;1.4741809597057052;2.173209501958834;1.923318270988053;-1.3046359608833846;0.3419692273435407;-0.5998585884449121;0
1.213481637058977;-1.031139149788217;1.4725376834793347;1.503554715012445;0.1941068573370592;-2.1047082639461117;0.03767747206526946;0.25960133262969753;0.020067236692460313;-0.6976759999862475;0.00040269398847122553;0.0214132762312634;0.05200367084735401;1.1888221975965154;1.4132982174982083;1.406139722881068;-0.7728185711008339;0.30468385903280487;-0.310363517769344;0
1.3634634954646214;-0.1475556795437948;1.859032703464604;1.545028801858133;0.16928755574492252;-3.1196391137766235;0.02865827653009025;0.30769986340393585;0.019579445739193336;-2.1134688478397146;0.00038335469545401613;0.030590394616090602;0.045885591924135806;1.3202656600185718;1.7431014130242748;1.564222464472313;-0.257823821142073;0.3942598880467566;0.6654051663753149;0
0.7857588929372132;-1.727793894565058;0.6174170378299149;1.0470339345688684;0.15653746412386485;3.0925035775842553;0.024503977674330275;0.08959468979778329;0.017229270162859002;0.22893439782058067;0.0002968477503447834;0.014275517487509007;0.045885591924135806;0.7659792050330811;0.586724142543111;1.1007268438546474;-2.148066323092531;0.2620490184684579;-0.21090906626754122;0
0.7443798680694002;2.721613601477666;0.5541013879870176;0.44331123778073644;0.12354917318064433;2.283393888978093;0.015264398193620845;0.07594895552869829;0.0188626986838887;0.04847275220206271;0.00035580140163917655;0.022432956051799804;0.045885591924135806;0.7147175299663008;0.5108211476411301;0.47931048761832784;2.668584381078188;0.22348697609334725;-1.556968384803798;0
1.2039375919922168;-1.3342220905269027;1.4494657254120173;1.6476921542570857;0.3097448737794689;1.96909880373986;0.09594188683265913;0.2633619183059914;0.01904373207697158;0.035707287369921424;0.00036266373141947625;0.022432956051799804;0.045885591924135806;0.9380864313147266;0.8800061526167993;1.6335965307890308;-2.859720472333073;0.32551710905250036;-0.35762308368856377;0
1.2775927511746283;-2.553497951699093;1.6322432378539558;2.138040310302117;0.4192091997177109;-1.9111154701837318;0.17573635312796362;0.6299291085199652;0.01205208060943604;1.5252901580068337;0.00014525264701634416;0.009177118384827099;0.0316100744366269;0.8442351584807742;0.712733002815058;1.2604414761323277;-2.2503108951836466;0.33823125770928275;0.7489432304898909;0
1.3578476726642614;-2.899291893328257;1.8437503021597512;2.138040310302117;0.4435856522123606;-2.3706389460791613;0.19676823084866535;0.7073882799999338;0.011567861976866977;1.1359606464553214;0.00013381543071584476;0.0071377587437544965;0.0316100744366269;0.8240699243491414;0.6790912402167996;1.2604414761323277;-2.142886015896605;0.3260580232437463;0.6756130038372455;0
1.3089101017097517;3.91686539688947;1.7132456543578327;0.3805729897131622;0.39280215834687227;0.3828415163508545;0.1542935356019613;0.3974063538669994;0.029008053978780486;4.101894892363127;0.0008414671956358423;0.0071377587437544965;0.0734169470786173;0.7536550130363212;0.5679958786747774;0.2628685957667447;4.195216645637444;0.32512124401048426;2.002096672597388;0
0.3262161935414834;1.2425114655475546;0.10641700492869456;0.3230796141130323;0.21847003653556837;0.7889880985687228;0.04772915686385258;0.20661240152813098;0.02800316302562451;2.7632550214161475;0.0007841771394397038;0.013255837666972602;0.0734169470786173;0.17022267124902302;0.028975757807152964;0.24984655548750623;-1.8339182416041275;0.08426478451216012;-0.8130493595912558;0
1.2182886183077581;3.7933873264798854;1.4842271574982264;0.6043005252445258;0.1128813782063227;-0.3440857139189018;0.012742205545758866;0.11620645721729517;0.029213426457787278;2.404828266247062;0.0008534242854045457;0.0224329560517997;0.0734169470786173;0.33802751117086355;0.11426259830836827;0.04891858927490267;3.478389554627718;0.1520592394123209;1.6466784610694163;0
2.9141132601979236;1.6507071873310792;8.492056093261372;2.7832945471414994;0.1966794343740824;2.3868971405196397;0.038682799905708984;0.11620645721729517;0.028199263411756707;-1.9152271056179349;0.0007951984569656405;0.040787192821454106;0.0672988681553992;1.77412781217543;3.1475294939343783;0.6492484332781143;4.454532268416036;0.5746355140702706;2.1010029784095616;0
3.311819050513554;-2.9597723362652846;10.968145423344499;6.1426489643837305;0.3329370779073054;-0.9353782106529955;0.11084709784545516;0.42837099297332726;0.030296676310478474;-2.245692691356249;0.0009178885954619076;0.0509839910268176;0.0672988681553992;2.1843349976382456;4.771319381907274;4.072142993214573;-3.23169023223793;0.55521241236621;0.5442322929909668;0
2.9265805364618886;-1.2580805549959908;8.564873636397556;3.963654942486757;0.32141258767975794;-2.6265113653073833;0.10330605151899808;0.5544044100082521;0.024772134382580357;0.5578871482836547;0.0006136586418686199;0.0224329560517997;0.0622004690527175;2.021443355770201;4.08623324058749;3.4228945599364593;-3.095693176538495;0.49014118851541777;0.4868720375241992;1
1.9602129531664518;-2.9984676804737944;3.8424348217615423;3.265369342723197;0.24789318565036655;1.0949635372535695;0.0614510314918871;0.24223987425222004;0.029124312021445265;2.8020933823475906;0.0008482255507225012;0.011216478025899895;0.0774956663607628;1.7810079264087832;3.171989233930914;3.158173290633339;-3.215386941942709;0.40748634662714084;0.5534173320609781;0
1.683556698546518;-3.080747813732011;2.8343631572208516;2.9297909673289473;0.17619168371987234;1.5082678987808862;0.03104350941204353;0.07888523309688766;0.029167120930422376;1.8696689545306597;0.0008507209433698831;0.019373916590190693;0.0774956663607628;1.6017299271087109;2.565538759395676;2.8395840690218392;-3.0676439608778256;0.3237640021814308;-0.5134181696231506;0
1.5757970090074607;-2.7876442813389453;2.483136213596859;2.4884703090303244;0.16051122987118727;-2.4441562874316864;0.025763854914761117;0.24978050568596988;0.024006909981326936;0.8591863217946584;0.0005763317268515349;0.019373916590190693;0.0642398286937902;1.476449792783087;2.179903990609221;2.2991712039850247;-2.68338064619973;0.3086038938475155;-0.3553557043409927;0
1.680619071215103;-2.4478032545664377;2.8244804625319153;2.5598531500569965;0.26018900997262845;-0.6235518603370155;0.06769832091053654;0.326248257631776;0.023993913367554062;0.6865195601237796;0.0005757078786896895;0.019373916590190693;0.0642398286937902;1.6203987684591485;2.6256921688239254;2.3435395581053373;-2.0966643152699596;0.4175908232313474;0.06198201605261573;0
2.1004603231061028;-2.604761524632542;4.4119335689429935;3.588469255274531;0.26369173191597567;-0.581726177110428;0.06953332948084677;0.33804796851825714;0.03940373205851993;0.19972498064739477;0.001552654100139631;0.034669113898236;0.1040073416947079;2.0333361251175663;4.134455797708119;3.52999144824004;-2.6618317009480457;0.5811505341400783;0.0061046950992204784;1
2.2078051075962732;-3.0494273073712943;4.874403393128191;3.588469255274531;0.21467775295471606;-1.8427003649837346;0.0460865376136861;0.27605175306741137;0.03709869296517945;-2.937948917843096;0.0013763130197246556;0.0693382277964719;0.078515346181299;2.157442825011906;4.6545595431953535;3.52999144824004;-3.1194893776830352;0.6732394878845557;0.5256733844465789;0
1.70278071566191;3.28183641072102;2.899462165630086;0.6533871660045043;0.4413219064339525;2.8562282175154983;0.19476502509849833;0.18355580562718865;0.03243319249727099;-0.049206140484082304;0.001051911975565035;0.0397675130009177;0.078515346181299;1.6580820224433863;2.74923599314995;0.5019804584163907;3.7594671088947798;0.6517302212965733;1.843965119255857;0
1.01999989714551;0.30936415535300554;1.040399790176851;0.9511726466508983;0.4833203201615026;-3.1640053147058556;0.23359853188101737;0.8900637028091747;0.03149804004571579;3.3703549193164455;0.0009921265267215157;0.0163148771285816;0.078515346181299;0.8033145527454413;0.6453142706526084;0.7550758468727812;0.06991318250124816;0.5259087629292744;-0.8784141107435846;1
1.3141077638863274;-0.661523890692866;1.7268792151063237;1.5036985934409266;0.47861745116238746;-2.826507689545869;0.22907466455718034;0.7869040884584018;0.03852986732140196;3.888210671723241;0.001484550675804839;0.0163148771285816;0.0948302233098806;1.0878956352582732;1.1835169132140018;1.2232240769563;-0.6850951076010787;0.6111931158535509;-0.20289518288372957;0
1.492130678033586;1.4135859829565238;2.226453960328969;1.3074630504868878;0.38950922308436187;3.6403533978099794;0.1517174348677832;0.08712124692842504;0.0506330329044566;-2.688897069916287;0.002563704021103785;0.0744366268991537;0.11318446007953491;1.275277444443505;1.6263325603063574;1.2285431702151592;0.6622989266839419;0.5611322328839351;-0.8819510512051127;1
1.8667373405978123;-3.0295106373379874;3.4847082987821922;3.3700541764398517;0.2154743142845533;-0.04525292634665945;0.046429180116398454;0.23333926830179053;0.05616297963057268;-2.1608522137911983;0.003154280280984122;0.0744366268991537;0.13357805649026191;1.452092861005766;2.1085736769839105;2.3919589688420864;-2.6082409739360415;0.7118091885371115;-0.2656870337154369;1
1.874568047633251;-3.058692545560955;3.514005365207538;3.3700541764398517;0.19390329525212613;-1.6776547025638837;0.037598487909633195;0.2814523826032369;0.06005472669425826;-2.7348784352746462;0.0036065701983220557;0.0999286224125624;0.13357805649026191;1.4609383098245465;2.1343407451130028;2.3919589688420864;-2.663317711608922;0.7069872454215345;-0.3426514598261841;1
2.0066530664733953;-2.9785005514139837;4.02665652918708;3.4546240383492197;0.16295272157364657;0.23150681072133614;0.026553589468258382;0.14491396888812447;0.05898475395059257;-2.598382990446543;0.0034792011986119462;0.0999286224125624;0.13357805649026191;1.3255506903756147;1.7570846327552685;2.328728164133459;-2.819083612052925;0.6126021279418634;-0.2329808031321615;0
1.8518605983396537;-1.9591979441295078;3.4293876756829005;2.7831324891450975;0.17610990004218136;0.4671339403642101;0.031014696892867108;0.14491396888812447;0.05370722438355918;1.0460803021898002;0.002884465950985974;0.0509839910268175;0.13357805649026191;1.3550958137811817;1.8362846645272832;1.763689659210924;-1.23437349664927;0.8231142549638518;0.9491429374484838;0
1.3031810889547533;-1.4097220112926212;1.6982809506092964;1.8077808325841054;0.20302791425485223;-1.4991458434377332;0.041220333966675626;0.30340318320989224;0.031349143597454644;-2.642099583632517;0.0009827688042938314;0.0509839910268175;0.07035790761700811;0.8033620565679426;0.6453905939330741;0.7507647399228248;1.1110472952438215;0.6573854969754276;1.3433261502011258;1
2.7091047337612095;1.6961339024663005;7.339248458487393;2.199332024886486;0.19484580158728232;-0.16012476414993415;0.03796488639619059;0.17548845933205226;0.02711658225935709;-3.1566652505067823;0.0007353090334284797;0.0489446313857448;0.0550627103089629;1.6130152217392952;2.601818105562668;1.7004588545022967;0.9088096694251853;0.8155066188851272;1.1967346737031543;0
2.37882417272779;-0.586919151437268;5.658804444754056;2.8362622674955973;0.14248233923889886;-0.2422322784452445;0.020301216994988654;0.13957676817813613;0.024297495971664623;-2.7816519541568887;0.0005903683104930585;0.040787192821454;0.0530233506678902;1.5997462394384272;2.5591880305973898;1.51377729697241;1.5523705821558877;0.82435907709134;1.332379488282994;1
2.87796543208445;-1.2996581304837587;8.282685028273036;3.8020909060394428;0.10640878740162318;-2.9370822705748822;0.011322830036283841;0.19558436901278564;0.05357153622845112;1.9890312211156562;0.002869909493876251;0.0448659121035994;0.1345977363107984;1.4727065709752247;2.1688646441936044;0.9500092007660303;1.3038438825866006;0.6493121538498775;0.7789157578978835;0
3.1059633986847137;-1.7001925932260598;9.647008633969099;4.484305867823535;0.09041365339308301;0.7449790279121279;0.008174628719884551;0.09147323464353208;0.051736066127971214;2.39083909939745;0.0026766205383978105;0.0336494340776996;0.1345977363107984;1.141601957040587;1.3032550283188986;0.28152259023547144;3.3800451731960117;0.4405924264999979;1.6303779967908723;1
3.2799162669256248;-1.8890381622273391;10.757850718043326;4.76428384701038;0.06915240858987576;-1.3125738704550187;0.004782055613781122;0.09147323464353208;0.05237919664430292;3.6017171429590342;0.002743580241102554;0.020393596410727105;0.1345977363107984;0.9731898537378958;0.9470984914183871;0.23950217853454392;4.554197554631867;0.34704595392037246;2.107701097212142;0
2.6061041695296523;-3.3110788400787414;6.791778942439839;4.76428384701038;0.17331216949175424;2.7341618062066737;0.03003710809393855;0.10533701994060807;0.04855003918473509;4.444021925990147;0.002357106304839313;0.018354236769654402;0.1152238197206078;0.14900937513971463;0.022203793879528207;0.12376583900781801;0.4546364045366443;0.06251652237795957;-0.5887802192772154;0
2.10249962731446;1.80255278518399;4.420504682857443;1.9399753350909221;0.3504154705171059;0.6100165020026118;0.12279100197772473;0.37865431153756934;0.05040251670034174;-0.26879479666406186;0.0025404136897282277;0.062200469052717505;0.1152238197206078;0.7000154435900894;0.4900216212646296;0.28152259023547144;4.120284348610032;0.3345385177863421;-2.0097160500314004;0
2.1830582250877706;-2.4637719714263184;4.765743214123367;3.636991670194782;0.41026020167358235;-2.9402865038720623;0.16831343307724844;0.7838522545322439;0.029618144611847592;3.7864670972069283;0.0008772344902483166;0.010196798205363502;0.07545630671969;0.692053705147212;0.47893833080798426;0.7921139220976052;0.1790983467257341;0.35874678494403534;-1.0525001018314752;0
1.9632346816943695;0.05436735695217957;3.854290415407592;1.976994314290705;0.3707075715609019;0.7208434357800506;0.1374241036125812;0.4051979429946746;0.029618144611847582;0.13705483400109722;0.000877234490248316;0.0305903946160906;0.07545630671969;0.7127340800057993;0.5079898688017132;1.0332047317165816;-1.8984406814363162;0.4018166859580772;-0.049491557984961035;0
2.2272581855141174;1.850840532712952;4.960679024939639;1.1763357479193788;0.1712960994790208;2.8132098421575265;0.02934235369672659;0.13370309155079818;0.029540812509613136;0.14417968347468127;0.0008726596037281159;0.0305903946160906;0.07545630671969;1.8717951325326068;3.5036170181727586;1.0332047317165816;3.2648146252694494;0.7879850407614232;1.766675004150554;0
2.2216323766006347;2.1312969463535603;4.935650416760184;1.0152352050275772;0.10973621112784238;0.12726608291410102;0.012042036032694398;0.13370309155079818;0.029618144611847554;-0.9477552137506121;0.0008772344902483142;0.0356887937187723;0.07545630671969;1.8719359832193885;3.5041443252715387;0.898340640951568;3.5730554685272344;0.7970953292326062;1.83827710243163;0
2.3641338014935527;1.8353096424512902;5.589128631364357;1.0152352050275772;0.16433943120975028;-0.6693203754673481;0.02700744865034424;0.20593715443556393;0.023397152861392448;-0.4157812571866775;0.0005474267620193648;0.0265116753339451;0.058121749770572;1.8408344851520395;3.3886716017249747;0.898340640951568;3.764577682223667;0.7731116949514656;1.9084985014328417;0
2.463957343787077;1.3793694341258735;6.071085792002269;1.8779131927099053;0.21598900078937702;-0.9456926352139673;0.04665124846199351;0.27273578815188193;0.016368957984936396;0.9752204849665441;0.00026794278551261303;0.014275517487508903;0.042826552462526805;2.040834459324742;4.165005290367312;1.2561157257090667;2.864314375631134;0.95704607176192;1.6452153124393594;0
2.4609127812095597;0.5901645472511573;6.0560917167205695;1.9169402893450886;0.26384064946424773;-1.0654583424496202;0.06961188830971604;0.33409899269974996;0.026070722512630838;-1.4405105881210585;0.0006796825723305964;0.0356887937187723;0.062200469052717505;1.9980530364215188;3.992215936353251;1.2561157257090667;2.133408907706477;0.8643466391351418;1.32492971148182;0
1.6793497260257124;-1.0602605701735612;2.8202155023026356;1.9169402893450886;0.30763389056474744;-1.1259081112704348;0.094638610624003;0.39002676807917047;0.025906691171433717;3.7213611962938864;0.0006711566474520416;0.015295197308045308;0.062200469052717505;1.1063541538579402;1.2240195137587186;1.2561157257090667;-1.3893866809353845;0.6049921907060953;-0.302291447481721;0
1.7786730948085312;-1.4445262998501025;3.1636779781957585;2.509409431914537;0.3472627930311066;-1.1597314707478492;0.12059144742376518;0.4405191142901428;0.025354990254025257;3.2733466565562686;0.0006428755307817157;0.015295197308045308;0.062200469052717505;1.2067563438004185;1.4562608733025537;1.903864252462067;-2.209859148601469;0.6162397543310975;-0.47453424861641613;0
1.232638275343058;2.6018721351843914;1.5193971178407084;0.8551958010228686;0.3826763911143897;-1.1800722409019961;0.1464412203163334;0.48557603133266425;0.04064930296255098;-1.7183521966072408;0.0016523658313412563;0.06118078923218111;0.09075150402773521;1.254619881201479;1.5740710463060132;0.8713542666968017;2.3905959452467287;0.508293064784039;-1.5252493644014615;0
0.9646988551609674;1.87314194962563;0.9306438811488812;0.6015108489665204;0.41384724295017;-1.1929502009997297;0.17126954049745705;0.525197519206738;0.036208685414759086;-1.470409894914751;0.0013110688994649874;0.0469052717446722;0.0897318242071988;1.013724305517946;1.0276369675978416;0.646347513602612;1.7494102704587913;0.29895616637765915;1.0813449039822902;0
0.9646988551609674;1.87314194962563;0.9306438811488812;0.6015108489665204;0.41384724295017;-1.1929502009997297;0.17126954049745705;0.525197519206738;0.036208685414759086;-1.470409894914751;0.0013110688994649874;0.0469052717446722;0.0897318242071988;1.013724305517946;1.0276369675978416;0.646347513602612;1.7494102704587913;0.29895616637765915;1.0813449039822902;0
0.9646988551609674;1.87314194962563;0.9306438811488812;0.6015108489665204;0.41384724295017;-1.1929502009997297;0.17126954049745705;0.525197519206738;0.036208685414759086;-1.470409894914751;0.0013110688994649874;0.0469052717446722;0.0897318242071988;1.013724305517946;1.0276369675978416;0.646347513602612;1.7494102704587913;0.29895616637765915;1.0813449039822902;0
3.5098258164181892;-2.8570314952602422;12.318877261595608;6.404920696602524;1.7023575784039182;-0.9722279589541453;2.8980213247492523;2.1268546589894086;0.06314856629575692;3.5648294431217713;0.0039877414252096075;0.029570714795554204;0.1600897318242071;1.4738580699924237;2.1722576104817923;1.5220687360545342;0.09154363997117443;0.41540998562988;-1.0419232589861414;1
3.5098258164181892;-2.8570314952602422;12.318877261595608;6.404920696602524;1.7023575784039182;-0.9722279589541453;2.8980213247492523;2.1268546589894086;0.06314856629575692;3.5648294431217713;0.0039877414252096075;0.029570714795554204;0.1600897318242071;1.4738580699924237;2.1722576104817923;1.5220687360545342;0.09154363997117443;0.41540998562988;-1.0419232589861414;1
3.5098258164181892;-2.8570314952602422;12.318877261595608;6.404920696602524;1.7023575784039182;-0.9722279589541453;2.8980213247492523;2.1268546589894086;0.06314856629575692;3.5648294431217713;0.0039877414252096075;0.029570714795554204;0.1600897318242071;1.4738580699924237;2.1722576104817923;1.5220687360545342;0.09154363997117443;0.41540998562988;-1.0419232589861414;1
3.173544384789774;-0.3129341455443064;10.071383962230705;3.8978693185871567;1.3864297000573254;-0.9085627447005203;1.9221873132010452;1.7264837519406333;0.02047754720306533;-1.1307918450368295;0.00041932993945376876;0.029570714795554204;0.047924951565208596;1.7158507320333087;2.9441437346192414;2.0910736186945074;-0.6638357720183569;0.45084747939253944;-0.813481044424675;0
1.8556467980586193;-2.109620552104763;3.443425039145206;2.8214748202995716;1.095205130912431;-0.8102390827940281;1.1994742787769155;1.3570338790300425;0.012666213020785471;1.175642071379297;0.00016043295228791542;0.013255837666972498;0.030590394616090602;1.7090094841924413;2.920713417059714;2.0400705248786575;-0.5092072965404301;0.4478495583038808;-0.8424681920421669;0
1.3884540356518762;-2.4691505651675634;1.9278046091179815;2.2337857192620802;0.8288806162406945;-0.6445682966929441;0.6870430759795536;1.0185050402576348;0.034216298022968314;2.748941783344731;0.0011707550503965852;0.0249821556031406;0.0846334251045172;1.0485635591354068;1.0994855375467116;1.4104974546971207;-1.5213415575245304;0.2457929339425202;-0.18928264077753434;0
2.714466743573915;1.5024918568545214;7.368329701968775;2.147651920408986;0.5879115351243798;-0.3279964582793274;0.3456399731323049;0.7108972356234107;0.03432324673305643;2.274299560620945;0.001178085266298269;0.0280411950647496;0.0846334251045172;1.0882202237672614;1.1842232554160685;1.3778294305039105;-0.1906719155734334;0.28070950575727016;0.9687760533091807;1
3.873163280817437;-1.1618222377186196;15.001393799872496;4.500353467575511;0.3736263539676627;0.3986280727599703;0.13959665237916918;0.4342104651273715;0.03405181028203005;2.249330749472121;0.0011595257834833672;0.0280411950647496;0.0846334251045172;1.2110338300509769;1.4666029375279384;2.0874295663655116;-2.7840964258336354;0.3013573325498595;0.509839301616495;1
2.956844542297665;-1.37340902286052;8.742929647315487;3.91266436653802;0.19191198421360264;2.2596410013177226;0.036830209684802065;0.15179866920694884;0.030556386384769416;3.002791792327301;0.0009336927488953218;0.016314877128581595;0.0790251860915672;0.9838759339640014;0.9680118534335361;0.6295730701815367;2.779873832021399;0.28591611459309757;1.6618517528904728;1
2.722436840780911;1.3895403109123687;7.411662352041148;2.102134308798202;0.09403804992936814;-2.753519965771908;0.008843154834518334;0.15179866920694884;0.0307885901256314;-2.839529753293274;0.0009479372819241273;0.050983991026817596;0.06729886815539919;0.950650631158456;0.9037366225219708;0.887910030496676;0.7815107892672776;0.26135701017574553;0.9079187974040406;1
1.8658539296422676;-0.7508521933823123;3.481410886761492;2.102134308798202;0.34570728577874466;3.8875605571593987;0.11951352744050661;0.17367758196915606;0.02319183240290426;0.18094106303490776;0.0005378610902044;0.02549199551340879;0.05812174977057209;1.299623728725624;1.6890218362666947;1.2672253465087158;-0.10014349273287355;0.3982967129779046;0.4117326263121209;1
1.8646053616326181;-0.7359530433828271;3.4767531546291064;2.102134308798202;0.41366925414807393;-3.1532668844731173;0.1711222518274238;0.7665614326683725;0.032640905099864344;-2.0992182084644377;0.00106542868573835;0.050983991026817596;0.0764759865402264;1.3506215121707597;1.8241784691384297;1.4532059685452214;-0.5716846399305666;0.4287830947329529;0.6969601126849981;1
1.8763018865989516;-0.8857634808267285;3.5205087696547848;2.1816953130267702;0.3966735719115078;-2.8550025210512247;0.15734992265303416;0.6268577133453856;0.038116117250375336;-1.4306313488237;0.0014528383942443604;0.050983991026817596;0.09483022330988071;0.8176789157612215;0.6685988092804469;0.3611236545555765;2.2867931483399544;0.31639992907192044;1.1327899177752936;1
2.068535214360351;-1.8145410576503334;4.278837933048824;3.045738788209084;0.33736699013284316;3.2324860546556287;0.11381648603129388;0.06335591415749775;0.040373398076065665;-2.2750467168616915;0.001630011272208463;0.06322014887325389;0.09483022330988071;0.8835672511931376;0.7806910873809972;0.6240556680862857;2.6543607159142213;0.36476171984118316;1.5592740924380109;1
1.3378648076685553;2.3323876127848138;1.7898822435980204;0.8640434751823135;0.21889650178257883;-0.335726179208456;0.047915678492650535;0.2779118396849105;0.04198927101140029;-0.10451709599387016;0.0017630988800688208;0.050983991026817596;0.0999286224125625;0.48408685967644793;0.234340087711405;0.5952767079804977;-1.0420558893124046;0.2562753384592004;-0.24125215532555783;0
1.347570427290238;3.076457741125909;1.8159460565071948;0.7326756423399586;0.31582959851999937;-1.1892285004974437;0.09974833530130398;0.44084928909916243;0.040457009618793144;3.5109706622515495;0.0016367696272951212;0.023452635872336106;0.0999286224125625;0.5895054796588408;0.34751671054780003;1.0385553195509805;-2.741187426684528;0.33067892829577544;-0.04112508954930887;1
0.5084580731178309;-2.3346354235371742;0.25852961211869746;0.842900683008047;0.4525229747681412;-0.0848025736724054;0.20477704269300773;0.4823493236234073;0.01251758216736934;-2.4776347846309457;0.0001566898633168429;0.020393596410727008;0.028551034975017903;0.4585846044760055;0.2102998394624144;0.5896426839837656;-0.8218402883235024;0.2828207451405298;0.49008788949764953;0
0.4935592904342307;-2.3142808533830768;0.2436007731739413;0.8320080308793085;0.46712930069260045;-2.2842887591744847;0.21820978356555792;0.7276145358521222;0.011114042290966618;1.5324541713484894;0.00012352193604539451;0.00917711838482721;0.028551034975017903;0.28729054630171863;0.08253585799433995;0.4074722948854401;-2.2602437902512817;0.19320278696688614;-0.2560192783346197;0
0.4996875316307896;-2.68331159892962;0.24968762926727134;0.8320080308793085;0.4531695730570626;-1.7279108084346326;0.20536266194472041;0.6144064813633863;0.015674571798727294;-2.4059788289957056;0.00024569220107345703;0.025491995513408805;0.0356887937187723;0.3174089977774778;0.10074847187010288;0.45398879073398724;-1.7578396270155874;0.24412089098106549;-0.11606415826204687;0
0.7237811816109981;0.24015931986686567;0.5238591988542127;0.8320080308793085;0.4190880847159871;0.3531955664161674;0.17563482275091435;0.3772123471976183;0.014645811448369312;-0.8530207809311617;0.0002144997929811856;0.019373916590190707;0.0356887937187723;0.5511939065877919;0.3038147226595115;0.7104107105285431;-0.40233380170177807;0.4943259808182081;-0.7075328458753588;0
0.7195494107061178;0.6776376999632738;0.5177513544475214;0.7490682093390902;0.3435289523858009;-1.9027259044183242;0.11801214112728586;0.5012523598418057;0.013125778733582928;-1.3518224652890136;0.00017228606736297784;0.017334556949117896;0.032629754257163204;0.5564095898863216;0.30959163171746457;0.7104107105285431;-1.1338841992000621;0.5185427674618956;-0.32377522047360974;0
1.04675558789529;0.618264944745461;1.0956972607900144;0.7490682093390902;0.2774788771563007;-1.0410345600090676;0.07699452726792141;0.3434541541467673;0.016807713783329858;0.4364035708587994;0.00028249924262233647;0.017334556949117896;0.0428265524625267;0.907112180008994;0.8228525071206695;0.7104107105285431;0.8781946258876386;0.7077285985199753;0.9770518828086938;0
1.7212391141119685;-0.7127264601036885;2.962664087948954;1.8345290340103135;0.16747656652077383;2.2710238015407533;0.028048400333587183;0.06899234674364552;0.0165741105522821;1.3674205935561925;0.00027470114059926885;0.014275517487508903;0.0428265524625267;1.5940487669785288;2.5409914715057678;1.7952049761663458;-0.6259728758332533;0.8884719718911714;0.953659387291273;0
2.0638984754506846;-2.3015548601676805;4.259676916967661;3.324093729432161;0.2543658162483182;3.6069292949612852;0.06470196847567318;0.06899234674364552;0.02634052259667137;1.5888720341780065;0.0006938231306657551;0.014275517487508903;0.0723972672580809;1.9022230167049863;3.6184524052822185;3.226183991068245;-2.6000609171979234;0.7496903332100179;-0.1290308227579872;0
1.858621334219362;-0.15362869612711214;3.4544732640153617;1.935185125243064;0.3218929915350958;-3.025720682458104;0.10361509799941326;0.5513189401661256;0.027584176769737727;1.2229280965943008;0.0007608868080641384;0.022432956051799693;0.0723972672580809;1.820359986455013;3.3137104802864954;1.9207881405585816;-0.25615389248244586;0.5063036853712831;-0.7180188596999373;0
1.1275400967579972;-0.5786370868289469;1.2713466697970337;1.2407728656873593;0.2950636748674545;-3.1467465084039667;0.0870625722262869;0.5043080662547585;0.02731333789329838;2.1658032755041936;0.0007460184268734891;0.016824717038849794;0.0723972672580809;1.1223395332572024;1.259646027911995;1.2356012080554084;-0.576086730907838;0.2749348737136308;0.14995049312494949;0
1.4625597864134343;0.6364371242308641;2.1390811288337104;1.2407728656873593;0.23387856974269577;4.676402620065055;0.054699185384889014;0.03618524868258932;0.02315425477284712;-0.09788826446291903;0.0005361195140859136;0.026001835423677004;0.058121749770571995;1.4535580081275172;2.112830882991635;1.2356012080554084;0.6190265839804235;0.3735959514873866;-0.6717235631851418;0
1.6529077035838817;-1.99602564780792;2.7321038765669416;2.543034416368477;0.04539324953330208;-1.7341922147009423;0.002060547103192629;0.062073624446993936;0.02619257570984759;-0.8131659439390724;0.0006860510223160979;0.034159273987967795;0.06423982869379011;1.6416631015709708;2.6950577390596195;2.519422530035955;-1.9808600427511098;0.47234887529493136;0.2749363423697888;0
1.566314511361402;1.9681475851101204;2.4533411485013077;1.3022615506811177;0.04526604662534651;-2.51016010917602;0.0020490149770880438;0.07396921882397622;0.021115621705401166;-0.5933383883921562;0.00044586948000560877;0.022942795962067906;0.0545528703986948;1.5559057358757094;2.4208426589309324;1.2838213219805468;2.000855271353457;0.5124266907397255;1.4876455022352943;0
0.6211857095868558;1.2200528699599893;0.38587168579492553;0.45809520398909287;0.05399965627474258;0.6081879075531186;0.002915962877790346;0.041669795679672994;0.021760669762534646;-0.9510314481702515;0.00047352674851408973;0.023962475782604305;0.0545528703986948;0.6144495079594909;0.3775481978316605;0.4636238708551197;1.1294840043072665;0.25320764497645537;0.810229718896314;0
0.3266874619687039;0.2669125989756225;0.10672469780755338;0.32494771974968195;0.1085714208823524;3.1395343157565656;0.011787753432412907;0.041669795679672994;0.0212976430857606;3.731399578000385;0.0004535896010084464;0.0071377587437544965;0.0545528703986948;0.32530060364639035;0.10582048273270594;0.32350792519196814;0.30868013261624583;0.1462946780623521;-1.0146629648393164;0
0.39492061865950673;1.562941608611773;0.15596229504240755;0.32494771974968195;0.1111759235903115;0.6161323248802688;0.012360085986158781;0.09966217009063616;0.0062275645904363635;0.4655391757704095;3.878256072805684e-05;0.0071377587437544965;0.014275517487508896;0.3958274210125187;0.15667934722542173;0.32350792519196814;1.6141259342685654;0.18091816490794668;-1.362147718621594;0
0.7255314208521909;-0.49767253988844473;0.526395842643799;0.8559053280593638;0.11020384858269315;0.6578821727021401;0.012144888242437158;0.09966217009063616;0.008389926554797238;0.10640827875247776;7.039086759489185e-05;0.0071377587437544965;0.0224329560517997;0.710010258583739;0.5041145672941479;0.8608569469084357;-0.6917979783319979;0.3643094990028569;-1.0209758367692574;0
1.0904267571262802;0.02548153000389893;1.1890305126569358;0.9890528122987747;0.23430162583043346;1.8168282400890992;0.054897251866784444;0.15801291777186854;0.005462667578659656;1.6993043498461908;2.9840737074939348e-05;0.0020393596410726994;0.015295197308045301;1.0960762250213443;1.2013830910570404;1.0009728925715873;0.11088351613190876;0.49264698639794974;0.36641324686442933;0
1.0807174100511612;0.42331368266122266;1.1679501203876894;0.8301899943988846;0.3245281018445313;-2.533157019626439;0.10531848888681448;0.49410076196339103;0.025882599388939845;4.1555920036996055;0.0006699089511283492;0.008157438564290805;0.0642398286937902;1.0934160293433026;1.1955586132248741;0.9631320067016937;0.21818498210037637;0.4931287626179655;0.40035323613211216;0
1.6561916463023612;0.09804073579052879;2.742970769281725;1.5306700724239621;0.263456480622783;-2.299300592045924;0.06940931718214283;0.4201204020244127;0.023644701895078838;2.8486580839478415;0.0005590719277071448;0.018354236769654406;0.05710206995003571;1.2335109753922875;1.5215493264132323;1.614429097986267;-0.20975047368878208;0.6404941186643596;0.9744678147207297;0
3.486983353126883;1.2029822195187545;12.159052904983998;3.0677072845191367;0.21242309616427277;-1.0943699012400891;0.045123571784015874;0.2402120958164362;0.022674983132392273;3.2429546037760986;0.0005141548600542741;0.013255837666972595;0.05608239012949941;1.9193008491085572;3.683715749388829;2.8919087855032046;-1.3670047105022245;0.7148204295013865;0.5059213154521711;0
3.914330420021719;-2.4545631066287696;15.321982637107407;6.404806344606115;0.1892726410080895;-1.601322115248698;0.035824132634177115;0.2402120958164362;0.02320079716257534;-1.1134533664357313;0.000538276988978964;0.031610074436626896;0.05608239012949941;1.6887827148307841;2.8519870579112334;1.5614921060249816;0.008907614344929963;0.5084509942892529;-0.521673244332449;0
3.0895072222336486;-0.25117157872659374;9.545054876233875;3.3370990600869788;0.17500734091029582;1.648188328995257;0.0306275693724925;0.12097557093705236;0.021575326264748125;-0.8642804368431397;0.00046549470343033026;0.029570714795554204;0.050983991026817596;1.6837428281728826;2.8349899114236172;1.5614921060249816;0.04492068390250736;0.5093315381805834;-0.4836770764911837;0
1.7405311336923959;0.2031690693559168;3.029448627352537;1.5785496574041415;0.12176314489346486;-0.33362241890787675;0.014826263454346919;0.12097557093705236;0.016495507669006343;0.6155294830879138;0.00027210177325824705;0.013255837666972595;0.04384623228306311;1.6759065001591202;2.8086625972755916;1.4929644971941456;0.22633243250267418;0.504867912659585;-0.5208243186720816;0
1.0277378327542748;1.4159441344353307;1.0562450528744536;0.5240518296282639;0.16478439762104224;-1.4220363474539053;0.027153897699329757;0.21808562671478882;0.01618049067821484;3.08432502818453;0.0002618082785877974;0.0020393596410726925;0.04384623228306311;0.9955416172476821;0.9911031116721303;0.4501164858960789;1.5602737364067352;0.25760161775753393;0.46087363359177763;0
0.7978875191253756;1.1692499557352651;0.6366244931760465;0.5240518296282639;0.1838604769219473;0.6442337273525496;0.03380467497396591;0.18854181521802627;0.04435665821234551;2.9663733819607288;0.0019675131277668385;0.014275517487508903;0.11828285918221682;0.7822720996255688;0.6119496378525958;0.4501164858960789;1.2930522923122207;0.20907886350985846;-0.506665704329458;1
0.7761494715663835;1.759301378901333;0.6024080022127762;0.284360254793091;0.1800310529859357;1.0252945473262696;0.03241118003922479;0.1464652936559827;0.03818969792628595;4.504439439019265;0.0014584530277009697;0.014275517487508903;0.08871214438666261;0.7728086602315166;0.5972332253288317;0.34837324681308734;1.5725395804250144;0.20767904310602484;-0.41551963983094864;1
1.0274291357296645;-1.4901289461963856;1.0556106289462053;1.3388580825689687;0.1473620831873597;-0.5387474656231875;0.02171558356131832;0.1625161701390807;0.03754443929118857;4.585864608468967;0.0014095849216897442;0.01121647802589991;0.08871214438666261;0.994024326433639;0.9880843615418499;1.391221258111154;-1.7159262967562086;0.28858054177804315;0.0893566582783354;1
0.9513524458618329;0.024888126912535096;0.9050714762472916;0.8800772804318102;0.127885109768452;-2.484286709586686;0.016354601300489015;0.21565900328847398;0.05248021210911042;2.2401410716518946;0.00275417266301722;0.005098399102681804;0.1470888141123688;0.9003733178500779;0.8106721114963574;0.8423298186324244;0.043409104726730874;0.253318860151022;-0.1406265466964858;1
2.19710228034811;1.7975205171856803;4.827258430310866;1.703806416235715;0.10716504647481126;-0.2929104658793437;0.011484347185948459;0.1264982820908278;0.05357432613781035;2.0444085771186473;0.002870208421120469;0.021413276231263406;0.1470888141123688;1.2650122183801253;1.600255912651006;1.6436468149442316;-1.3302939231482849;0.4028959857419174;0.0007092776853757419;1
1.8437332236890631;2.877957654740667;3.3993522001348646;0.8237291358039047;0.17575163752911097;2.8271082861536385;0.030888638094164006;0.1264982820908278;0.03921378245930191;1.137522803010879;0.0015377207347654542;0.021413276231263406;0.10834098093198741;0.9141915796217427;0.8357462442512972;0.8013169963118072;0.014325774282081483;0.3416535405575401;0.4173208923288097;1
1.5482094041504115;3.4974432458301052;2.3969523590997723;0.6170625749623389;0.30164554131985566;-0.48478729759101097;0.09099003259814875;0.38443093455675115;0.04325969856959857;-0.6278997736066358;0.0018714015203325283;0.053023350667890295;0.10834098093198741;0.6236703973089373;0.3889647644794877;0.6727967013279137;-0.34020468712338686;0.2798441113457135;0.5109476097239285;1
1.5765059102558157;-0.17813287841692946;2.485370885071518;1.7609095648129325;0.4548584992157115;-1.5014295708102086;0.2068962543087694;0.6770647468796414;0.048281462639323376;-0.9776510292679745;0.0023310996345923788;0.0662791883348628;0.1093606607525238;0.9653215390939843;0.9318456738387787;0.8579666203724188;0.0796072539149435;0.515152024194393;-0.10390847683477906;1
1.2992294389171755;-0.42615811675977494;1.6879971349490388;1.3488912527491221;0.5885960838524279;-0.5584498407800602;0.3464453499264143;0.6464885171838848;0.05394482111956285;-0.021792629475584135;0.0029100437256216337;0.0662791883348628;0.1244009381054348;0.8101555759871057;0.6563520573029991;1.1817820111846484;-1.7808586198629222;0.5988635802763232;0.11567608242523121;1
0.8259908841445133;-2.0384777637640568;0.6822609406898347;1.1438469898505936;0.5846662190803718;-1.6959879942998424;0.3418345877337372;0.8165808755487602;0.05518813913172843;-0.9935830925217163;0.0030457307008230146;0.07545630671969;0.1244009381054348;0.8247640700033914;0.680235771168559;1.1817820111846484;-2.178724997066272;0.5939785666781486;-0.07362912862108971;1
2.2541021652182245;3.649446362725719;5.080976571241488;1.1438469898505936;0.6290145811105387;-1.1699761171934864;0.39565934324966645;0.7891217995773383;0.05043551209142948;-1.3003616447776452;0.0025437408799247286;0.06220046905271749;0.1244009381054348;2.2583741351098805;5.1002537341333;1.1817820111846484;3.6618426953334455;1.071312525825516;1.8552951037301586;1
2.3118660549273757;4.161972376250691;5.344724655925467;1.0283467268570987;0.5934316503806664;-1.2429029672031777;0.3521611236735215;0.7755481770285835;0.044522775455533355;2.2786277348827277;0.0019822775342638434;0.006118078923218098;0.1244009381054348;2.261516710269724;5.114457830829194;1.1752131985590815;3.7376226755335202;1.080039266858721;1.8775155020151857;1
2.295627379334986;4.211861342154404;5.269905064752417;0.9088656509663025;0.41572608439794945;-1.1568064897254022;0.17282817724885097;0.5011865797273583;0.028799411993537152;-3.2186561373350404;0.0008294061311734915;0.0489446313857448;0.0581217497705719;2.146380238514508;4.6069481282855955;0.3326431150923306;4.132152977749011;0.9487036714112851;1.942600479678647;1
2.3454372105459784;-2.038869094783889;5.501075708613701;3.5719223060595326;0.2567444509869496;3.092879249951899;0.06591771311259015;0.05233995549962556;0.030442181991791894;2.649056062827752;0.0009267264444213787;0.006118078923218098;0.0836137452839807;2.0947734558296514;4.3880758312485;2.941262250585427;-1.8943229308231757;0.6803608121018427;0.8388465649704178;1
2.4098676669743666;-2.1496643122534635;5.807462172328477;3.5719223060595326;0.14764968677166157;1.592414186963745;0.021800430003769772;0.05233995549962556;0.03661914286116952;-2.3397434353957665;0.0013409616238867423;0.0550627103089629;0.0836137452839807;2.1356495824421753;4.560999138985437;3.1162106902840656;-1.9547029030070082;0.7045752862304542;0.8370190061247816;1
2.2480678030430004;2.0612479911853483;5.053808847078582;0.43914010176873775;0.18474189557014475;-1.3074820069792057;0.03412956797885027;0.22351873016720547;0.037566587771422556;-1.2618914530940952;0.0014112485167879947;0.0499643112062812;0.0836137452839807;1.3434173957678401;1.804770299251646;0.6227538511739676;4.131973382300278;0.596413774795747;2.0157234730233866;1
2.540945584686993;0.5095170797157849;6.456404464340324;2.6741243418061895;0.14737758662487205;-3.0484869568867605;0.021720153039371665;0.2603407215074265;0.03695266771947591;-0.6523170346633608;0.0013654996515859968;0.0458855919241358;0.0836137452839807;1.3272001610999906;1.7614602676238411;0.6227538511739676;4.085871078257658;0.5806722517524074;1.9885666104271185;1
2.5696906151391;-0.35322064310651297;6.603309857533967;2.9659867914376314;0.13777244200232988;2.6847101829421525;0.01898124577528535;0.08354711188393726;0.03349923683408745;-0.8135682583660907;0.001122198868466281;0.0438462322830631;0.0805547058223717;1.290055615323268;1.6642434906270955;0.47112842612464934;4.349857065769636;0.5525617397926385;2.0600776025933065;1
1.7367700703883144;-3.11684395322376;3.0163702773966308;2.9659867914376314;0.07248246680813618;-1.4118578120821776;0.005253707994592563;0.09626004798670573;0.02806806465927304;-2.243287684823914;0.0007878162537171321;0.0438462322830631;0.0642398286937901;0.24401498681554967;0.059543313790592876;0.29349884510861135;-1.0269984125270142;0.135528936609571;-0.060869811009848146;1
2.274535802953052;-2.158136418483737;5.173513118915284;3.2627344144404855;0.0732170953797197;-1.4243632740173808;0.00536074305584297;0.09723373077123876;0.024820355755354472;1.448464455482566;0.0006160500598223579;0.0234526358723361;0.062200469052717394;0.8121503760213427;0.6595882332716082;0.28213171452329644;4.152139906933172;0.3636112942630779;1.992432620379072;1
2.997450901140592;-2.374617693667352;8.984711904748547;4.955447420932844;0.06513976734651078;-1.2529346927998428;0.0042431892899575515;0.08646816023751613;0.011109363678976062;-1.4124015503524692;0.00012341796135175253;0.014275517487508896;0.027531355154481497;1.5179421513585387;2.304148374870989;1.8248948815097588;-0.4501211313370111;0.5347719208153595;1.0931019359041483;1
3.159873218649178;-2.967408731436753;9.984798757936316;5.010686965195404;0.04873367209103391;-0.5166852617129862;0.002374970795476417;0.0639633363855352;0.030019138391794646;2.8491431534125673;0.0009011486697857193;0.015295197308045294;0.0785153461812991;1.4354924090907522;2.0606384565571716;1.7692740301245076;-1.357788546564625;0.44674292672829813;0.18593306460585673;0
2.9405215750249742;-2.355342782713842;8.646667133187355;4.067438728793023;0.027327631212820513;1.5537826535295345;0.000746799427703922;0.024888055564990186;0.02558766589309731;3.7416419851917957;0.0006547286458567753;0.007137758743754399;0.06627918833486289;1.6595511850988651;2.7541101359630473;1.7692740301245076;-1.02093981459146;0.5414710237125415;-0.20718052742491078;0
2.0851597048475417;1.1599619228639473;4.3478909947198865;1.4601410887742432;0.029430847740217116;1.9727280818090438;0.000866174798707843;0.024888055564990186;0.025660704098442975;3.786022146968122;0.0006584717348278481;0.007137758743754399;0.06627918833486289;1.601960220491228;2.5662765480363037;1.3850086949473486;-0.07213314589298392;0.5098947454210383;-0.3659399541483225;0
2.1315362763548737;0.9424799112983872;4.543446897416802;1.8222542835328253;0.06897379413457781;1.3774002676013914;0.004757384277319121;0.0691554514296504;0.02601682639374542;3.7201823497347397;0.0006768752556022884;0.010196798205363497;0.06627918833486289;1.6481136466735673;2.716278592351644;1.7728733830805372;-0.5423259087868253;0.5103947401833161;-0.5343287273666739;0
1.956719383551847;1.4876240885835255;3.8287507459675205;1.8222542835328253;0.12231722278212634;0.12445177279754205;0.014961502989132326;0.14344849220496458;0.0428908411503962;2.001730986797218;0.0018396242545885202;0.010196798205363497;0.12032221882328939;1.4689917560287045;2.1579367792802966;1.7728733830805372;-0.46196802708993445;0.47504104287145427;-0.9581555184899484;0
1.956719383551847;1.4876240885835255;3.8287507459675205;1.8222542835328253;0.12231722278212634;0.12445177279754205;0.014961502989132326;0.14344849220496458;0.0428908411503962;2.001730986797218;0.0018396242545885202;0.010196798205363497;0.12032221882328939;1.4689917560287045;2.1579367792802966;1.7728733830805372;-0.46196802708993445;0.47504104287145427;-0.9581555184899484;0
1.956719383551847;1.4876240885835255;3.8287507459675205;1.8222542835328253;0.12231722278212634;0.12445177279754205;0.014961502989132326;0.14344849220496458;0.0428908411503962;2.001730986797218;0.0018396242545885202;0.010196798205363497;0.12032221882328939;1.4689917560287045;2.1579367792802966;1.7728733830805372;-0.46196802708993445;0.47504104287145427;-0.9581555184899484;0
4.097215602738969;-2.450850551234032;16.787175695327658;6.701962569629979;0.9947445315295527;-0.9956121140864399;0.9895166830079493;1.2441057979096497;0.04006316694589487;1.870404354083849;0.0016050573457346432;0.015295197308045197;0.11114510043846229;1.633519290459867;2.668385272304507;0.6622399868040021;2.314497010575529;0.455322236077823;-1.1130120405359343;0
4.097215602738969;-2.450850551234032;16.787175695327658;6.701962569629979;0.9947445315295527;-0.9956121140864399;0.9895166830079493;1.2441057979096497;0.04006316694589487;1.870404354083849;0.0016050573457346432;0.015295197308045197;0.11114510043846229;1.633519290459867;2.668385272304507;0.6622399868040021;2.314497010575529;0.455322236077823;-1.1130120405359343;1
4.097215602738969;-2.450850551234032;16.787175695327658;6.701962569629979;0.9947445315295527;-0.9956121140864399;0.9895166830079493;1.2441057979096497;0.04006316694589487;1.870404354083849;0.0016050573457346432;0.015295197308045197;0.11114510043846229;1.633519290459867;2.668385272304507;0.6622399868040021;2.314497010575529;0.455322236077823;-1.1130120405359343;1
3.679564841793755;1.4447966604114733;13.539197424964701;2.93692021666413;0.8205569788607179;-0.9446233473074995;0.6733137555570287;1.0234860407810809;0.02619009457693974;1.8626288645400908;0.0006859210539490483;0.015295197308045197;0.0703579076170083;1.6354922174776205;2.674834793429864;0.8152735924201946;2.0263324892439165;0.45979477651748624;-1.0159239829871016;0
1.7598963340032034;-0.599172990617717;3.097235106437915;1.8910495848569768;0.6599538739625623;-0.8695889375697542;0.43553911575819354;0.8199367499798065;0.03900591867969986;-0.9995243005349153;0.0015214616920473582;0.0428265524625268;0.0989089425920261;1.6805935973519004;2.824394839460201;1.5776648552325812;-0.11544568987714617;0.5337190351027937;0.05527692772309634;0
1.6734603565494537;-1.8625762301325406;2.800469564942625;2.477823094961317;0.5129938680742824;-0.7513772631634007;0.2631627086818142;0.6334579255058266;0.038482613756440784;-0.6934315080713512;0.0014809115615274056;0.0397675130009178;0.0989089425920261;1.2339940482764475;1.5227413111816956;2.071852004191363;-2.5967179230658517;0.5289224772248213;0.140892618553807;0
2.168461931368282;0.041045987613774315;4.702227147793459;2.118143508623569;0.3797989369069226;-0.5464414646798138;0.1442472324756286;0.46404956735914116;0.03929804224956196;-1.2399113140052727;0.0015443361246483566;0.0448659121035995;0.0989089425920261;1.0120553799003318;1.0242560919852048;1.475529924441545;-1.8773813283485765;0.4721837437675399;0.07450064250942902;1
2.5961110105119216;-2.215960294437057;6.739792378901232;4.2943708883080145;0.260668637094573;-0.13789600451804893;0.0679481383647422;0.3117116755397502;0.038170635074491435;-0.5568430867854156;0.0014569973819899959;0.0418068726419904;0.0989089425920261;0.8044130520869122;0.6470803583677812;0.7865025251113691;0.14890494062182213;0.31608336647314605;-0.8394105518218943;1
1.8188505987804848;0.13208237324917368;3.308217500684128;2.1762273796844456;0.1565682938900068;0.8524037041532537;0.024513630651627535;0.17644425004765463;0.03245081966907895;-0.48344051589905607;0.0010530556971950814;0.0418068726419904;0.0774956663607627;0.6834078463631866;0.46704628447076896;1.009528240335597;-1.8221983650489537;0.3073195575293212;-0.1798290614107297;1
0.9788913599940738;-1.3531915285374403;0.9582282946710475;1.4059759842175792;0.07269571318946325;2.6532363578821516;0.0052846667161247;0.056539076941715116;0.018514982174824286;2.3172663929461605;0.0003428045649340611;0.01427551748750891;0.0458855919241358;0.6839711180939171;0.46781649038664314;1.009528240335597;-1.7234079208210993;0.3041447276729225;-0.3617759632351084;0
1.0694104810868632;-0.6189993726595304;1.1436387770584364;1.4059759842175792;0.05191297540539656;0.7521540959366296;0.0026949570154413075;0.056539076941715116;0.01936586481318977;2.532915658790614;0.0003750367199627416;0.01427551748750891;0.0479249515652085;0.6745729180199249;0.45504862172591637;1.009528240335597;-1.8277703870938662;0.2992087307188551;-0.3264972957603017;0
1.7831858738791317;0.3493333657177959;3.1797518608020825;1.808071817273837;0.14758138762210785;2.534590868502358;0.021780265972466843;0.12522701452373397;0.024571956494604443;-2.7010159083966716;0.0006037810459727334;0.0407871928214541;0.055062710308962995;0.604586782649262;0.36552517775418597;0.5173544776109271;-0.0840177885053978;0.28040912870085205;0.03786863350018533;1
1.5936686059457645;-2.0356851525709154;2.5397796255771166;2.379781714186466;0.16147323627465246;-2.8607328915940418;0.026073606033009743;0.2818603642194173;0.02782250157977415;-3.021539194297444;0.000774091594156535;0.0479249515652085;0.05812174977057209;0.4028154786308149;0.1622603098245725;0.5172308623101878;-1.2063415288999917;0.20975533830912796;-0.29993435042250327;0
1.5121260394462883;-1.0198825408447452;2.286525159171518;1.8220542983511439;0.20570694787215094;-0.7057709597914913;0.04231534840287582;0.22564540074322537;0.025942786896121554;-2.7435315870414776;0.0006730281919375762;0.0407871928214541;0.05812174977057209;0.5710075151783653;0.3260495823901711;0.9431628557935934;-2.137661131311358;0.32336237762078396;-0.2720022359538627;0
1.0156928229075772;-1.5832651918217948;1.031631910505963;1.3566677907584404;0.22914152042967662;-0.7990770186677972;0.05250583638482391;0.24175085050296596;0.02450840274606867;-2.154162335290857;0.0006006618051635063;0.035688793718772295;0.05812174977057209;0.5955101121886024;0.35463229371888183;0.761184271473188;-0.8409953128575296;0.4041250595873356;0.6243321311723541;0
1.0832034543473765;-2.014530110834857;1.1733297235100888;1.7144001896403356;0.1738818907504478;-2.620093441846381;0.030234911930950667;0.28517743332396606;0.02570928095990299;1.2812005330468945;0.0006609671274752305;0.022432956051799804;0.06627918833486289;0.6461496807463791;0.4175094099286476;0.8700709520810386;-1.2215382756212787;0.4666179597008256;0.9268925928326253;0
0.962754548261922;0.3997507605436776;0.9268963201990174;0.804408822967724;0.2183934228525617;0.9143324584792959;0.04769568714525782;0.1499422922301954;0.01750466858183109;-1.320239742751492;0.0003064134221597445;0.022432956051799804;0.0438462322830631;0.38484713540294185;0.14810731762785026;0.3950379063040077;0.9123165798789176;0.32505408245556555;1.2517713016758554;0
1.3191900914732557;2.115265487380198;1.7402624974412166;0.804408822967724;0.16592378931488294;-2.7074603609095664;0.02753070386060966;0.2874072943023669;0.020401242575993753;0.21859510937622417;0.0004162106986445402;0.020393596410727;0.053023350667890295;0.6135210201444861;0.3764080421591308;0.3950379063040077;3.278131080489191;0.4741424399281639;1.807943513485554;0
1.4576265160934194;1.1552578711254202;2.1246750604186393;1.5341601448612063;0.1302136587602939;-2.0007843782155716;0.016955596927742265;0.20702443398605874;0.021623464044947728;1.8887975572774967;0.00046757419730314713;0.019373916590190596;0.053023350667890295;0.5972303574884469;0.35668409990577804;0.5242589171383478;1.765633985550488;0.43370785808448914;1.3008600442858136;0
1.5473023446464;-1.5139793890534676;2.394144545748247;2.3065350072071666;0.14582527436008008;2.1177648741591093;0.02126501064219263;0.08013812369601325;0.021685883411514752;1.6163618783084839;0.00047027753933781075;0.020393596410726994;0.053023350667890295;0.536017126222201;0.287314359603507;0.23482564093334135;2.8968594993266543;0.36973703896559945;1.5004704614026008;0
1.536794027903407;-1.5090094363504971;2.3617358841995775;2.3065350072071666;0.06977422330973618;-0.9234194618811671;0.0048684422384769315;0.08133488118425802;0.019635125770426656;0.966365908749682;0.000385538164020473;0.020393596410726994;0.0479249515652085;0.6521773429670417;0.42533528667955023;0.23482564093334135;1.805463764607482;0.47627971923921464;0.47200592777543054;0
