acc_X;acc_X_std;acc_X_max;acc_Z;acc_Z_std;acc_Z_max;acc;acc_std;acc_var;acc_max;acc_range;fb_tilt_max;fb_tilt_var;fb_tilt_range;tilt_max;tilt_var;tilt_range;class;lat;lon
1.3209388292659003;2.4620437485593496;6.50992615085881;-0.0127459977567043;0.05131482343146787;0.0978892627714897;1.728518611034742;2.3634269590117993;5.585786990583761;6.528876416138149;6.0641345644487785;-0.9319873559702252;0.00042213725618207523;0.053023350667890434;-0.0061180789232181;0.0017464629290862748;0.1050270215152442;60.0;53.71147893999999;86.84410998
6.50992615085881;2.4620437485593496;6.50992615085881;-0.020393596410727;0.05131482343146787;0.0978892627714897;6.528876416138149;2.3634269590117993;5.585786990583761;6.528876416138149;6.0641345644487785;-0.9319873559702252;0.00042213725618207523;0.053023350667890434;-0.0061180789232181;0.0017464629290862748;0.1050270215152442;60.0;53.71147893999999;86.84410998
3.818704961222493;2.4620437485593496;6.50992615085881;-0.0254919955134087;0.05131482343146787;0.0978892627714897;3.818920777414041;2.3634269590117993;5.585786990583761;6.528876416138149;6.0641345644487785;-0.9319873559702252;0.00042213725618207523;0.053023350667890434;-0.0061180789232181;0.0017464629290862748;0.1050270215152442;60.0;53.71147893999999;86.84410998
0.3595054980926258;2.918197193952653;6.50992615085881;0.0214132762312633;0.05646577707335952;0.0978892627714897;0.46474185168937093;2.561649923696563;6.562050331574606;6.528876416138149;6.0641345644487785;-0.9319873559702252;0.0013267170908579443;0.10196798205363522;0.0091771183848271;0.0024668515939772796;0.1203222188232894;60.0;53.7113892;86.84404072
4.355663315708866;2.1273332808831285;4.355663315708866;0.0978892627714897;0.060077229799290144;0.0978892627714897;4.384531703359051;1.7945068642287123;3.220254885763966;4.384531703359051;3.91978985166968;-0.9319873559702252;0.002531991739543317;0.1274599775670442;0.0091771183848271;0.0012716105032282606;0.0805547058223717;60.0;53.711303480000005;86.84395500000001
-0.508093428679707;1.8938009618699152;4.355663315708866;-0.0428265524625267;0.05817807320711441;0.0978892627714897;0.7711794385703574;1.5809613666917772;2.4994388429719323;4.384531703359051;3.91978985166968;-0.9319873559702252;0.0026411651678662656;0.1274599775670442;0.0091771183848271;0.0009832886777620324;0.0805547058223717;60.0;53.711219979999996;86.84384078
1.4322484111669924;1.7726595527886584;4.355663315708866;-0.0438462322830631;0.05844909331169473;0.0978892627714897;1.540173567701165;1.403331407021291;1.9693390379323565;4.384531703359051;3.6133522647886935;-0.9319873559702252;0.0025616245272309717;0.1274599775670442;0.0091771183848271;0.0008560236527455653;0.0805547058223717;60.0;53.71113932000001;86.84369867999999
2.462137930207112;1.3667163771607818;3.09221315620615;0.0050983991026817;0.0325627690123236;0.0254919955134087;2.5055612181446962;0.920553508961577;0.8474187628614722;3.0927850849763763;2.321605646406019;-0.9722647088814114;0.0012902739607368041;0.08718262465585802;0.0091771183848271;0.0005661422068747226;0.0632201488732537;60.0;53.7110589;86.8435517
1.4227286717047982;0.9929839062944187;3.6530860693841594;0.0254919955134087;0.029468570397778587;0.0254919955134087;1.4524225680015506;0.9621723550184849;0.9257756407618172;3.6599165783050087;2.207494010303458;-0.9722647088814114;0.0012994757211240223;0.08718262465585802;-0.0244723156928724;0.00027501306468019214;0.037728153359845;60.0;53.710971140000005;86.84339226
3.09221315620615;0.878572000896908;3.6530860693841594;0.0132558376669725;0.022403969147261935;0.0254919955134087;3.0927850849763763;0.8605300545554597;0.7405119747932224;3.6599165783050087;2.207494010303458;-0.9722647088814114;0.0004202397180231165;0.048944631385744675;-0.0244723156928724;0.00022167404684240798;0.037728153359845;60.0;53.710873019999994;86.84322757999999
3.6530860693841594;1.7116189529463284;3.6530860693841594;-0.0295707147955541;0.022490817783331014;0.0254919955134087;3.6599165783050087;1.071091552125071;1.1472371130336936;3.6599165783050087;2.5182577283704184;-0.9737942286122158;0.0004580605128350012;0.047924951565208596;0.0132558376669725;0.0008785861612656409;0.0754563067196899;60.0;53.710769719999995;86.84308844
2.001262811128847;1.7331057107116763;3.6530860693841594;-0.0168247170388498;0.017721612853867207;0.0132558376669725;2.071385206318603;1.031979741044811;1.064982185926915;3.6599165783050087;2.5182577283704184;-0.9554399918425616;0.0008605985392657592;0.06627918833486279;0.0132558376669725;0.0009045798346758674;0.0754563067196899;60.0;53.7106627;86.84296606000001
-0.7432797014938143;2.662050065619069;3.6530860693841594;-0.0101967982053635;0.022443382172555062;0.0081574385642908;1.1416588499345903;1.1663627795566178;1.3604021335350396;3.6830611110021776;2.5414022610675873;-0.9554399918425616;0.0012017395091015693;0.07953502600183526;0.0591414295911083;0.00219719322601959;0.12134189864382569;60.0;53.71055106;86.84284418
1.1616125756707445;3.1781073065304772;2.001262811128847;0.0081574385642908;0.034148618954938204;0.0081574385642908;1.673955439493501;2.0025253251714377;4.0101076779529725;6.085995189875742;4.944336339941152;-0.9554399918425616;0.0010649088122701418;0.07953502600183526;0.1029876618741715;0.003258358949318664;0.13867645559294378;60.0;53.71044054;86.84273877999999
-3.266376166119457;3.2009767185807627;1.1616125756707445;-0.0520036708473539;0.06141232826099763;0.0825940654634444;3.6830611110021776;2.5348120526977107;6.425272142501582;6.783609003637014;5.641950153702423;-0.9554399918425616;0.0010670922808366018;0.07953502600183526;0.1142041399000713;0.0032736432292838754;0.13357805649026191;60.0;53.71033484000001;86.8426638
-5.6894511519366295;3.004348841550453;1.1616125756707445;-0.0764759865402263;0.0717227158429165;0.0825940654634444;6.085995189875742;2.10723636413465;4.4404450943314195;6.783609003637014;5.109653564143512;-0.9554399918425616;0.0012660998444652852;0.07953502600183526;0.1142041399000713;0.0028889888501593495;0.13357805649026191;60.0;53.710227440000004;86.84259735999998
-6.357277602437878;2.4374539062885945;-0.467953937159476;0.0825940654634444;0.06974043460672028;0.0825940654634444;6.783609003637014;2.0150569426192915;4.060454481998207;6.783609003637014;4.805332396868333;-0.977363107984093;0.0005989462227184335;0.057611909860303845;0.1142041399000713;0.001961170671454742;0.10604670133578051;60.0;53.7101136;86.8425552
-2.230565842279027;3.548646055680097;2.095978297917562;-0.0922810237585397;0.06934235137901255;0.0825940654634444;3.238298354752025;2.107379473461694;4.441048245167687;6.783609003637014;4.805332396868333;-0.977363107984093;0.00044423187858076083;0.05353319057815842;0.1142041399000713;0.004057612419336296;0.1509126134393799;60.0;53.7099748;86.84252392
-0.467953937159476;3.210566945027478;2.095978297917562;-0.0550627103089629;0.06620522027342372;0.0825940654634444;1.978276606768681;1.9969077596753897;3.987640600651784;6.783609003637014;4.872937975456848;-0.9635974304068522;0.0005094240114935915;0.05812174977057216;0.1142041399000713;0.0032806095337578126;0.1509126134393799;60.0;53.70983512;86.84249176
2.095978297917562;2.7928194445782064;5.114306266756581;-0.0367084735393086;0.020948775338545386;-0.0367084735393086;2.907226451592195;1.3928006366699113;1.9398936135081104;5.34354530554312;3.4328742773629544;-0.9554399918425616;0.0004181862178236764;0.04690527174467207;0.038237993270113;0.0022310889761465212;0.1238910981951665;60.0;53.70969384;86.84243752
0.3027831131155098;2.543522959371344;5.114306266756581;-0.0474151116549403;0.015065747781577094;-0.0193739165901906;1.910671028180166;1.6180499264340267;2.618085564433159;5.34354530554312;3.4328742773629544;-0.9554399918425616;0.0005155065310715572;0.04690527174467207;0.0081574385642908;0.0018192452146349027;0.0938105434893443;60.0;53.7095559;86.84236102
5.114306266756581;2.1192598923475696;5.114306266756581;-0.0550627103089629;0.0345647395083604;0.0316100744366268;5.34354530554312;1.4724336514815355;2.168060858015248;5.34354530554312;3.4328742773629544;-0.9554399918425616;0.0007134743477638461;0.05608239012949934;-0.0050983991026817;0.0012952127586847452;0.0805547058223718;60.0;53.70942556;86.84225627999999
4.808106902511472;2.04352843879734;5.114306266756581;-0.0193739165901906;0.05116263186893916;0.0316100744366268;4.887581597313181;1.3755917232359047;1.8922525890351258;5.34354530554312;3.4328742773629544;-0.9554399918425616;0.0005351577481696846;0.05608239012949934;-0.0050983991026817;0.0012128648013211489;0.0805547058223718;60.0;53.70931141999999;86.84215237999999
4.723104692382354;0.37144194220469556;5.114306266756581;0.0316100744366268;0.054954026029036936;0.0316100744366268;4.727895409627581;0.424779518413099;0.1804376392632643;5.34354530554312;1.1877040027870756;-0.9554399918425616;0.000744770730549761;0.05608239012949934;-0.0723972672580809;2.568174932929935e-05;0.013255837666972595;60.0;53.709182600000005;86.84204403999999
4.793923922420268;0.8519917772661947;4.808106902511472;-0.1080860609768532;0.07519611535360925;0.0703579076170082;4.798434977756698;0.7957912053672668;0.6332836425398873;4.887581597313181;1.9051977983338073;-0.9574793514836342;0.0007098352334864356;0.055062710308962926;-0.0499643112062812;0.00019308100609115566;0.0336494340776996;60.0;53.70904774;86.84192454000001
4.100415254231475;1.1406370093129856;5.943221094697277;-0.0836137452839808;0.0891359984213433;0.0846334251045171;4.155841302756045;1.1409628636718274;1.3017962562782168;6.13160133037854;3.1492175313991666;-0.9666564698684612;0.00047027753933779893;0.04588559192413588;-0.0499643112062812;0.0003590246171420392;0.0520036708473539;60.0;53.70891124;86.84178804
2.8182082728660203;1.3683878678188406;6.132297260913645;0.0703579076170082;0.10156287428008925;0.1070663811563169;2.982383798979374;1.4157781796110027;2.0044278538626448;6.4032274083165746;3.4208436093372008;-0.9666564698684612;0.0004005105199047466;0.04588559192413588;-0.0499643112062812;0.0005486744583430488;0.058121749770571995;60.0;53.70877566;86.84164222000001
5.943221094697277;1.4005137812679065;6.132297260913645;0.0846334251045171;0.07520302860397127;0.1070663811563169;6.13160133037854;1.4625979522091461;2.1391927698063875;6.4032274083165746;3.4208436093372008;-0.9758335882532884;0.00021709916032219706;0.03670847353930873;-0.0499643112062812;0.0005711329921694843;0.058121749770571995;60.0;53.70865254;86.84148838000002
6.132297260913645;1.815960159187186;6.132297260913645;0.1070663811563169;0.024091217069785616;0.1070663811563169;6.4032274083165746;1.6148583994234464;2.6077676501884555;6.4032274083165746;3.4208436093372008;-0.9758335882532884;0.0010125055666751334;0.08259406546344461;-0.0428265524625267;0.0009359801921554186;0.06525950851432649;60.0;53.70853856;86.84133344
5.416987103324765;1.545562737363454;6.132297260913645;0.0489446313857448;0.02585245308909263;0.1070663811563169;5.747831688104125;1.1917211370149878;1.4201992684082954;6.4032274083165746;3.0077600437246077;-0.9758335882532884;0.0010033557936347315;0.08259406546344461;-0.0428265524625267;0.0006666857356254763;0.06525950851432649;60.0;53.708421900000005;86.84120654
2.3142737283063584;1.4552045516176793;6.132297260913645;0.0520036708473539;0.031598559825308604;0.1101254206179259;3.395467364591967;1.1414245542364159;1.3028500130138005;6.4032274083165746;3.0077600437246077;-0.9656367900479248;0.0011749140381422235;0.09279086366880818;-0.0428265524625267;0.0006167778826778418;0.06525950851432649;60.0;53.708281039999996;86.84113736
4.867854921398723;1.18554976349553;5.416987103324765;0.0520036708473539;0.02568905176410412;0.1101254206179259;5.462534164441798;0.9364022959584671;0.8768492598762887;5.747831688104125;2.3523643235121585;-0.9656367900479248;0.0012450969563498298;0.09279086366880818;-0.0428265524625267;0.00038969715176610624;0.050983991026817596;60.0;53.70812751999999;86.84113744
4.200351797765905;1.0573498843039248;4.889071696949143;0.1101254206179259;0.02464800468483818;0.1101254206179259;4.820425105003469;0.8227631431475724;0.6769391897220727;5.462534164441798;2.067066799849831;-0.9656367900479248;0.0013499034475398602;0.09279086366880818;-0.0428265524625267;0.0002981994213621104;0.0428265524625268;60.0;53.70796848;86.8412088
3.782941329954855;0.6619202698428225;5.483129963438612;0.0622004690527174;0.04402726670538815;0.1101254206179259;4.344546868778521;0.5274592479736195;0.2782132582728962;5.6588671092628156;1.3143202404842942;-0.9656367900479248;0.00047672397034353216;0.054043030488426735;-0.0652595085143265;0.00016344821840349718;0.03262975425716319;60.0;53.707823999999995;86.84136128
4.889071696949143;0.6928369592303246;5.483129963438612;0.0571020699500356;0.05717031130404861;0.1101254206179259;5.24278681067237;0.5042114136713255;0.25422914967643656;5.6588671092628156;1.3143202404842942;-0.9656367900479248;0.0005378610902043873;0.054043030488426735;-0.0652595085143265;0.00018112391632245115;0.03262975425716319;60.0;53.70769596;86.8416326
5.483129963438612;0.7511203749288313;5.483129963438612;-0.0132558376669725;0.04070425952118291;0.0622004690527174;5.6588671092628156;0.6292543859105589;0.3959610821876746;5.6588671092628156;1.421937501680242;-0.9758335882532884;0.0003288719559861721;0.04384623228306317;-0.0652595085143265;0.00019890358893504608;0.03262975425716319;60.0;53.70760636;86.84194235999999
5.124834111410049;0.6195612373851954;5.483129963438612;-0.0275313551544814;0.034856051055648374;0.0571020699500356;5.297523652644566;0.5893617225457812;0.34734724000213035;5.6588671092628156;1.421937501680242;-0.9758335882532884;0.00028021179936223145;0.04384623228306317;-0.0683185479759355;0.0001348551776522493;0.02957071479555419;0.0;53.70754216;86.84226728
3.9229153335805687;0.7274311354348566;5.483129963438612;0.0081574385642908;0.02714532471408455;0.037728153359845;4.2369296075825735;0.7353727261285273;0.540773046333702;5.6588671092628156;1.7614617597348055;-0.9962271846640156;8.401155246184826e-05;0.023452635872335925;-0.0683185479759355;0.00018008416938604274;0.02957071479555419;0.0;53.70749154;86.84260066
4.357338171298936;0.5856457679927879;5.124834111410049;-0.0244723156928724;0.02733616877320558;0.037728153359845;4.524766282315373;0.628236589905204;0.39468121289571956;5.297523652644566;1.6069689511698098;-0.9962271846640156;4.7620409687529996e-05;0.017334556949117896;-0.0642398286937901;0.00011146087158304572;0.026511675333945203;0.0;53.707443379999994;86.8429365
3.853495572040972;0.26387922729928187;4.357338171298936;0.037728153359845;0.02824899597674121;0.037728153359845;3.89740534952801;0.337927938482063;0.11419529160673696;4.524766282315373;0.8342115808406172;-0.9962271846640156;7.746114676246982e-05;0.022432956051799513;-0.0642398286937901;2.0223077913151265e-05;0.01223615784643621;0.0;53.70740092;86.84323708
3.655494986672968;0.2644946889913197;4.357338171298936;-0.0152951973080452;0.02726571215890879;0.037728153359845;3.690554701474756;0.3190360928408043;0.1017840285351263;4.524766282315373;0.8342115808406172;-1.00336494340777;4.6268738670201494e-05;0.015295197308045072;-0.0642398286937901;2.0327052606792193e-05;0.01223615784643621;0.0;53.707363720000004;86.84354292
3.8065379871448304;0.7611889119804723;3.9588128228857378;-0.0316100744366268;0.02601282964644573;0.037728153359845;3.8385449418771653;0.7556984947207945;0.5710802149232747;3.988424410083422;1.8070459301681137;-0.9850107066381156;0.0001885061195709565;0.03364943407769949;-0.0367084735393086;0.00019672012036858638;0.0336494340776996;0.0;53.70732378;86.84385626000001
3.9588128228857378;0.7437098643044601;3.9588128228857378;-0.0096869582950953;0.008753819121580407;-0.0096869582950953;3.988424410083422;0.7380008027206642;0.5446451848163446;3.988424410083422;1.8070459301681137;-0.9850107066381156;0.0001916253603801812;0.03364943407769949;-0.0367084735393086;0.00018871406895823648;0.0336494340776996;0.0;53.7072846;86.84420107999999
2.1340942597033346;0.741418447835698;3.9588128228857378;-0.0122361578464362;0.019098251891005398;0.0193739165901906;2.1813784799153084;0.7369190643568704;0.5430497074126053;3.988424410083422;1.8070459301681137;-0.9850107066381156;0.00019963141179052965;0.03364943407769949;-0.0367084735393086;0.00018944189181372258;0.0336494340776996;0.0;53.7072424;86.84460432
3.098078190812257;0.7105023283147421;3.9588128228857378;-0.0214132762312633;0.03533819545441;0.0652595085143265;3.1226478891009495;0.697275599844964;0.4861932621391544;3.988424410083422;1.8070459301681137;-0.9850107066381156;0.00013121606337481272;0.03161007443662667;-0.0367084735393086;0.00016823105431097783;0.0336494340776996;0.0;53.70719486;86.8450483
2.8647855955102406;0.9658480878238737;3.098078190812257;0.0193739165901906;0.03881084109853563;0.0652595085143265;2.8848442179948495;0.8314666229453416;0.6913367450721307;3.1226478891009495;2.1310647233735462;-0.9850107066381156;8.941823653117056e-05;0.02549199551340886;-0.0112164780258998;0.00028281116670325466;0.0428265524625268;0.0;53.70715414;86.8455247
2.3785149238142207;1.1196064914966368;3.098078190812257;0.0652595085143265;0.05543626989565779;0.1274599775670439;2.455676931212639;0.9520947919049101;0.9064844927724541;3.1226478891009495;2.1310647233735462;-0.9982665443050882;4.450116887830296e-05;0.014275517487508882;-0.0112164780258998;0.00037763608730375975;0.0428265524625268;0.0;53.707148499999995;86.84603106
0.6350092934230419;1.0640973571943637;2.8647855955102406;0.0550627103089629;0.04350700285853612;0.1274599775670439;0.991583165727403;0.9147276786623616;0.8367267261110327;2.96901730234448;1.9774341366170771;-0.979912307535434;0.00017176619389476592;0.03262975425716308;-0.0112164780258998;0.0003339667159745794;0.0387478331803814;30.0;53.70719372;86.84650636
0.973120432140366;1.1433396599637184;3.1962750037641263;0.1274599775670439;0.06222303164509393;0.1274599775670439;1.3106089854996448;1.0038836388063752;1.0077823602631286;3.2597731399793055;2.2681899742519027;-0.979912307535434;0.00016968670002194856;0.03262975425716308;-0.0112164780258998;0.00039073689870251343;0.044865912103599505;30.0;53.70730462;86.84687326
2.858614359838332;1.291859956347555;3.337911515298067;0.023452635872336;0.06907154853999511;0.1274599775670439;2.96901730234448;1.1379243427908299;1.294871809915942;3.373604972280234;2.3820218065528307;-0.979912307535434;0.00019682409506222625;0.03364943407769949;-0.0112164780258998;0.0005091640747595035;0.0479249515652085;30.0;53.7074794;86.84711972
3.1962750037641263;1.0168135261206945;3.3994511865409582;-0.0428265524625267;0.06721616147012727;0.1274599775670439;3.2597731399793055;0.884905837295026;0.783058340878811;3.4042305145312657;2.093621529031621;-0.979912307535434;0.00020431027300437125;0.03364943407769949;-0.0173345569491179;0.0003195142335584942;0.0428265524625268;0.0;53.70772358000001;86.84729734
3.337911515298067;0.262972794294879;3.553863833197385;-0.0305903946160905;0.031149507878246142;0.023452635872336;3.373604972280234;0.21897142258020152;0.04794848390679719;3.5551628247414957;0.5861455223970156;-0.979912307535434;0.00023030394641459844;0.03772815335984492;-0.0489446313857448;2.9424838300370454e-05;0.014275517487508896;0.0;53.70799129999999;86.84741146
3.3994511865409582;0.6580398558016529;4.815047476331348;0.0224329560517997;0.024918604905240598;0.0224329560517997;3.4042305145312657;0.6427199454156787;0.413088928235133;4.815900125827469;1.556126985848164;-1.00336494340777;3.815871256621184e-05;0.014275517487508882;-0.0560823901294993;0.0001313200380684573;0.0285510349750178;0.0;53.7082575;86.8474831
3.553863833197385;1.1175062205101562;5.877939257932329;-0.0244723156928724;0.024147258269588107;0.0224329560517997;3.5551628247414957;1.1177298835871723;1.2493200926637937;5.898944494812751;2.525339522532517;-1.0003059039461608;5.063567580312059e-05;0.01733455694911812;-0.0591414295911083;0.00037046183344253974;0.0438462322830632;0.0;53.708496219999994;86.84755286
4.815047476331348;1.1320808162453952;5.877939257932329;-0.0254919955134087;0.023314795696180727;0.0224329560517997;4.815900125827469;1.148578953688553;1.319233612856291;5.898944494812751;2.4947139802814853;-1.0003059039461608;4.814028315573687e-05;0.01733455694911812;-0.0601611094116447;0.00038231494851760325;0.04282655246252679;0.0;53.70871426;86.84763266
5.877939257932329;0.9776620485537069;5.877939257932329;0.0101967982053635;0.01552125527030515;0.0101967982053635;5.898944494812751;1.009892498925297;1.0198828593855813;5.953154910535494;2.397992085793998;-1.0003059039461608;6.477623413828323e-05;0.01733455694911812;-0.0632201488732537;0.0002928967119864263;0.0407871928214541;0.0;53.70888634000001;86.84770746000001
5.55904584253984;0.6692531130413434;5.877939257932329;-0.0265116753339451;0.014984436956974153;0.0101967982053635;5.619183304926106;0.6180218826076517;0.38195104738190594;5.953154910535494;1.317921601970924;-1.0003059039461608;5.3546967225064607e-05;0.01733455694911812;-0.0774956663607627;0.00013859826662332317;0.026511675333945092;0.0;53.70903833999999;86.84777754000001
5.8345684717607655;0.7072790950676695;5.877939257932329;-0.0193739165901906;0.018932848605717485;0.0101967982053635;5.953154910535494;0.5998737549605807;0.35984852189050687;5.953154910535494;1.317921601970924;-1.0003059039461608;4.9180030092146636e-05;0.01733455694911812;-0.0774956663607627;0.00015388254658853581;0.026511675333945092;0.0;53.709180960000005;86.84784336
4.36728174619764;0.7192734316397265;5.930888700310869;-0.0168247170388498;0.011987202618281345;-0.0168247170388498;4.63523330856457;0.66704993866562;0.44495562067380745;6.17815075649697;1.5429174479324006;-1.0003059039461608;4.9180030092146636e-05;0.01733455694911812;-0.0774956663607627;0.0001592892306578626;0.026511675333945092;0.0;53.709329100000005;86.84790957999999
4.6252714069272525;0.7228409459045605;5.930888700310869;-0.0418068726419904;0.012354547756387075;-0.0168247170388498;4.898438817091172;0.6721816504208024;0.4518281711624338;6.17815075649697;1.5429174479324006;-0.9982665443050882;7.247036146770856e-05;0.01937391659019072;-0.0774956663607627;0.00016511181350175298;0.026511675333945092;0.0;53.709478680000004;86.84798236
5.930888700310869;0.6044534750000543;5.930888700310869;-0.0418068726419904;0.012131618970636238;-0.0168247170388498;6.17815075649697;0.5893876458146963;0.3473777970389899;6.17815075649697;1.5429174479324006;-0.9982665443050882;5.073965049675838e-05;0.016314877128581706;-0.0774956663607627;0.00010834163077381913;0.026511675333945092;0.0;53.70962922;86.84804586
4.786655166021992;0.5039705074804844;5.930888700310869;-0.0224329560517997;0.008694228101271476;-0.0224329560517997;5.14138642659768;0.48135165545747394;0.23169941621165072;6.17815075649697;1.2797119394057983;-0.9564596716630978;0.0004922681870428508;0.05557255021923124;-0.0815743856429081;7.933269124800697e-05;0.022432956051799693;0.0;53.70978516;86.84810963999999
5.120018574838498;0.5515849971945919;6.055580829073669;-0.040787192821454;0.009630442706734082;-0.0224329560517997;5.37182669272596;0.5343659118141308;0.28554692770894746;6.356088675767686;1.2147022491700064;-0.9564596716630978;0.0004544213985575576;0.05557255021923124;-0.0836137452839808;0.00010428661772182432;0.022432956051799693;30.0;53.70993978;86.84817722
5.172751374082947;0.47224534960716935;6.055580829073669;-0.0428265524625267;0.011590310788932669;-0.0163148771285816;5.448277898783529;0.4701788075971359;0.22106811111346453;6.356088675767686;1.2147022491700064;-0.9564596716630978;0.0005453992554933528;0.05812174977057216;-0.0836137452839808;7.76690961497527e-05;0.022432956051799693;0.0;53.71008494;86.8482507
6.055580829073669;0.41666104385867186;6.055580829073669;-0.0265116753339451;0.011237315757193925;-0.0163148771285816;6.356088675767686;0.4349350372514227;0.18916848662889643;6.356088675767686;0.9842619830417263;-0.9564596716630978;0.000544359508556943;0.05812174977057216;-0.0866727847455898;6.269674026546276e-05;0.019373916590190693;0.0;53.71022292;86.84832211999999
5.396156466399691;1.1617117589224533;8.095446918201105;-0.0163148771285816;0.015918113217428913;-0.0163148771285816;5.769432984414278;1.136443075574361;1.291502864020913;8.352779256056612;2.904501357273083;-0.9564596716630978;0.001205586572766286;0.09584990313041719;-0.0866727847455898;0.0005994141088398132;0.06322014887325379;0.0;53.71035632;86.8483992
5.854178475343268;1.2004561401630163;8.095446918201105;-0.0249821556031406;0.017652539671157562;-0.0101967982053635;6.177485739726295;1.1672133909239404;1.3623870999521634;8.352779256056612;2.583346271642334;-0.971754868971143;0.0008936624918435738;0.0805547058223719;-0.095849903130417;0.0005216410379964172;0.0540430304884266;0.0;53.7104763;86.8484731
8.095446918201105;1.2868786792207856;8.095446918201105;-0.0560823901294993;0.017718679054848075;-0.0101967982053635;8.352779256056612;1.2481262031676827;1.5578190190337757;8.352779256056612;2.583346271642334;-0.971754868971143;0.0010743705093914614;0.0805547058223719;-0.095849903130417;0.0005474267620193619;0.0540430304884266;30.0;53.71058445999999;86.84855053999999
7.708398190679172;1.0158265510378106;8.095446918201105;-0.0101967982053635;0.017340554028331876;-0.0101967982053635;8.017560983639848;0.9855152884145643;0.9712403836988418;8.352779256056612;2.175293516330317;-0.971754868971143;0.0010595541155476254;0.0805547058223719;-0.1019679820536351;0.00038366661953493725;0.0479249515652085;0.0;53.710687699999994;86.84862818
8.018942255812279;0.69798218413079;8.095446918201105;-0.023452635872336;0.017714277445277045;-0.0101967982053635;8.304147601712323;0.6585820755283697;0.43373035020725526;8.352779256056612;1.558771113116161;-0.971754868971143;0.001058540362284627;0.0805547058223719;-0.1111451004384623;0.0002098209317673448;0.03874783318038129;0.0;53.710786459999994;86.8487167
6.433286529411869;1.1508247612297637;8.018942255812279;-0.0193739165901906;0.042162250143683584;-0.0101967982053635;6.794008142940451;1.0748532272999662;1.1553094602371528;8.304147601712323;2.6882737938650836;-0.971754868971143;0.0003024363901279565;0.04384623228306306;-0.0917711838482716;0.0003342786400555072;0.0458855919241358;0.0;53.71088006;86.84881542
7.116882524133791;1.2981688834801348;8.018942255812279;-0.0356887937187723;0.03864976615115385;-0.0193739165901906;7.458067435327372;1.1927409768694022;1.422631037903376;8.304147601712323;2.773184775292316;-0.9768532680738248;0.0003161610496885655;0.03976751300091752;-0.0887121443866625;0.00043908513124553877;0.0489446313857449;0.0;53.71096988000001;86.84893595999999
5.131141454376464;0.9016194827624319;7.116882524133791;-0.1142041399000713;0.0373194456191396;-0.0193739165901906;5.615873807847239;0.8247992459979702;0.6802937961988201;7.458067435327372;1.9271046089073653;-0.9809319873559702;0.00027623476733045876;0.035688793718772094;-0.0887121443866625;0.00021346004604477545;0.0356887937187724;0.0;53.71106158;86.84907886
4.9803640091961;0.9819461424519421;7.116882524133791;-0.0530233506678902;0.03301464392413772;-0.0326297542571632;5.530962826420007;0.8877832413609449;0.7881590836413457;7.458067435327372;2.010844513843966;-0.9809319873559702;0.0002333711998769987;0.035688793718772094;-0.0836137452839808;0.0002724136973391675;0.0407871928214541;0.0;53.71115148;86.84925068
6.166790576173101;0.7742186171158576;6.166790576173101;-0.0326297542571632;0.03815565043817163;-0.0122361578464362;6.678467407856069;0.6831321571672502;0.46666954415598055;6.678467407856069;1.9004997811328526;-0.9809319873559702;0.00025837711369763313;0.035688793718772094;-0.0693382277964719;0.00017696492857681453;0.03670847353930859;0.0;53.71123836;86.8494502
4.800876016957594;0.8223740002096245;6.166790576173101;-0.0520036708473539;0.017522479000460868;-0.0122361578464362;5.447222921483406;0.7199965752989538;0.518395068442222;6.678467407856069;1.9004997811328526;-0.9809319873559702;0.00027584486222930675;0.03670847353930873;-0.0693382277964719;0.00019006573997556802;0.03670847353930859;0.0;53.71132924;86.84969468
4.00974505482685;0.8458960579122844;6.166790576173101;-0.0122361578464362;0.017522479000460868;-0.0122361578464362;4.777967626723217;0.7447214487087918;0.5546100361669215;6.678467407856069;1.9004997811328526;-0.9809319873559702;0.0001910015122183261;0.03670847353930873;-0.0693382277964719;0.00019755191791771302;0.03670847353930859;0.0;53.71142149999999;86.84996102
4.353440110426402;0.29168565843035316;4.800876016957594;-0.0254919955134087;0.019706483216159597;-0.0122361578464362;5.100049523420995;0.23816224797216812;0.0567212563591565;5.447222921483406;0.6692552947601893;-0.9890894259202612;0.00012924054419563655;0.028551034975017764;-0.0693382277964719;2.8593040751242782e-05;0.014275517487508896;0.0;53.71151278;86.85024173999999
4.365801212170051;0.201215895788996;4.559997393832902;-0.0530233506678902;0.019408769024876323;-0.0122361578464362;5.074339250138094;0.18456154866959099;0.0340629652473178;5.149366874331801;0.37813503767950785;-0.9890894259202612;0.00013797441846147933;0.028551034975017764;-0.0693382277964719;1.694787506346124e-05;0.011216478025899798;0.0;53.71159692;86.85053067999999
4.559997393832902;0.23672685799170165;4.844970675647979;-0.0560823901294993;0.01444566406010112;-0.0254919955134087;5.149366874331801;0.1805945772129373;0.03261440131871957;5.254321408630775;0.4830895719784811;-0.986030386458652;0.00016604758574452299;0.03161007443662689;-0.07545630671969;1.1125292219570996e-05;0.008157438564290798;0.0;53.711682280000005;86.85082596
4.243994330717255;0.48771869868845286;5.468949893972388;-0.0499643112062812;0.010824947100716055;-0.0285510349750178;4.7712318366522934;0.346561255908655;0.12010470409698425;5.724791574135429;0.9535597374831353;-0.986030386458652;0.00012237821441533867;0.029570714795554065;-0.07545630671969;7.075477902263024e-05;0.0209034363209952;0.0;53.71175518;86.85110365999999
4.844970675647979;0.45196478440645277;5.468949893972388;-0.0285510349750178;0.010982287768195247;-0.0285510349750178;5.254321408630775;0.3598694718865828;0.129506036795928;5.724791574135429;0.9535597374831353;-0.986030386458652;0.00012861669603379564;0.029570714795554065;-0.07545630671969;5.947352476259209e-05;0.0209034363209952;0.0;53.711827760000006;86.85138104
5.468949893972388;0.5512316828182131;5.572463711322816;-0.0458855919241358;0.010186596303654335;-0.0285510349750178;5.724791574135429;0.4449421487473269;0.19797351573188837;5.763611731129907;0.9923798944776134;-0.986030386458652;0.00015523421760586453;0.029570714795554065;-0.07545630671969;8.52592487855366e-05;0.021413276231263392;0.0;53.7118931;86.85164094000001
4.72342691743378;0.3976382326329141;5.572463711322816;-0.0540430304884266;0.012163716087241122;-0.0244723156928724;4.960951386562008;0.34988795967136593;0.12242158432299141;5.763611731129907;0.802660344567899;-0.986030386458652;0.00013620684866957886;0.02651167533394505;-0.0836137452839808;5.141548600542243e-05;0.013255837666972595;0.0;53.71195968000001;86.85188672
5.572463711322816;0.37996150640678444;5.572463711322816;-0.037728153359845;0.015704393439933528;-0.0152951973080452;5.763611731129907;0.3567846229391509;0.1272952671658321;5.763611731129907;0.802660344567899;-0.99214846538187;6.311263904002821e-05;0.020393596410727133;-0.0836137452839808;4.127795337543439e-05;0.013255837666972595;0.0;53.71202204;86.85212315999999
5.463251398719893;0.39267764598562077;5.572463711322816;-0.0244723156928724;0.02239120302119655;0.0050983991026817;5.6514310152438645;0.3811163864597883;0.1452497000281667;5.841130273209999;0.8801788866479914;-0.99214846538187;7.25743361613486e-05;0.020393596410727133;-0.0836137452839808;4.242167500548438e-05;0.013255837666972595;0.0;53.712088140000006;86.85235309999999
4.926542699941317;0.35564876953551616;5.572463711322816;-0.0152951973080452;0.016209381568417877;0.0050983991026817;5.212559753191367;0.32022810597041235;0.10254603985339762;5.841130273209999;0.6899104725282861;-0.99214846538187;7.621345043878082e-05;0.020393596410727133;-0.0856531049250535;3.4519598288775645e-05;0.011216478025899895;0.0;53.7121525;86.85257105999999
5.542430981002717;0.3419401896840385;5.542430981002717;0.0050983991026817;0.010805719826033558;0.0050983991026817;5.841130273209999;0.3212857372221633;0.10322452494238896;5.841130273209999;0.6899104725282861;-0.9982665443050882;3.295997788416709e-05;0.014275517487508882;-0.0856531049250535;3.4519598288775645e-05;0.011216478025899895;0.0;53.712218359999994;86.85280076
4.839955852371645;0.3460293058521231;5.542430981002717;-0.0081574385642908;0.009045887678685303;0.0050983991026817;5.151219800681713;0.32361422698964354;0.10472616791010454;5.841130273209999;0.6899104725282861;-0.9982665443050882;5.853775251983153e-05;0.02039359641072691;-0.0856531049250535;3.691101624251635e-05;0.012236157846436196;0.0;53.7122874;86.85303364
5.5031155668546194;0.5533257536587363;5.542430981002717;-0.0101967982053635;0.007409361527311012;0.0050983991026817;5.769222166646796;0.5918499516601309;0.3502863652800992;5.841130273209999;1.4091059332559492;-0.9982665443050882;5.853775251983153e-05;0.02039359641072691;-0.07545630671969;9.638454100511346e-05;0.022432956051799693;0.0;53.71235494;86.85326502
5.48900228523051;0.5057817945189218;5.5031155668546194;0.0040787192821454;0.011317986683398833;0.0040787192821454;5.673644071250187;0.5311802049186641;0.28215241009743397;5.769222166646796;1.337197826692746;-1.0054043030488429;2.984073707494667e-05;0.013255837666972248;-0.07545630671969;8.453142593005026e-05;0.022432956051799693;0.0;53.71242148;86.85349028
4.291901793068803;0.5006283116060002;5.5031155668546194;-0.0081574385642908;0.016608577971317092;0.0040787192821454;4.43202433995405;0.5309185898595216;0.2818745490584229;5.769222166646796;1.337197826692746;-0.9972468644845518;6.186494271633996e-05;0.021413276231263323;-0.07545630671969;8.162013450810498e-05;0.022432956051799693;0.0;53.712485619999995;86.85371826000001
5.129974094895656;0.5978966019006923;5.48900228523051;-0.0275313551544814;0.022812131458343095;0.0040787192821454;5.223504634652856;0.6071677723939674;0.3686527038338525;5.673644071250187;1.376850270903561;-0.9972468644845518;6.477623413828856e-05;0.021413276231263323;-0.0744366268991536;0.00011364434014950357;0.02345263587233609;0.0;53.7125506;86.85395220000001
5.312117960556929;0.6492702446453755;5.312117960556929;-0.037728153359845;0.02729048791337011;-0.0081574385642908;5.392212888375501;0.6515490393926353;0.4245161507334658;5.392212888375501;1.5464024019976024;-0.9666564698684612;0.00035112254042531967;0.04588559192413588;-0.0642398286937901;0.00014452482416085237;0.028551034975017903;0.0;53.71259986;86.85418066
4.198780529853492;0.6622706889215053;5.312117960556929;-0.0530233506678902;0.01998936586442897;-0.0275313551544814;4.296793800346626;0.6764605379428312;0.45759885939390454;5.392212888375501;1.5464024019976024;-0.9666564698684612;0.00034628771717101547;0.04588559192413588;-0.0642398286937901;0.00014951560945561601;0.028551034975017903;0.0;53.712618039999995;86.85439851999999
3.788945588543694;0.6963287958079765;5.312117960556929;-0.0805547058223717;0.03125447562760087;0.0050983991026817;3.8458104863778986;0.6875558312586467;0.4727330210977687;5.392212888375501;1.5464024019976024;-0.9666564698684612;0.0003233093098763631;0.04588559192413588;-0.0642398286937901;0.00014951560945561601;0.028551034975017903;0.0;53.7125852;86.85456536000001
4.177539886356538;0.813722243714671;5.698591970857199;-0.0504741511165493;0.04078655551658719;0.0142755174875089;4.208177612417356;0.7846178145701468;0.6156251149408333;5.704690653306115;1.8588801669282167;-0.9666564698684612;0.0003953637725695179;0.04588559192413588;-0.0642398286937901;0.00021855480603317682;0.0367084735393087;0.0;53.71252086;86.85464950000001
5.269296959031764;0.7880732652584035;5.698591970857199;0.0050983991026817;0.047392629511674216;0.0316100744366268;5.2701528112128875;0.7675187744594401;0.5890850691477209;5.704690653306115;1.8588801669282167;-0.9666564698684612;0.00036437931386452656;0.04486591210359969;-0.0642398286937901;0.0002089891342182136;0.0367084735393087;0.0;53.71240636;86.85459132
5.698591970857199;1.0844002424938082;5.698591970857199;0.0142755174875089;0.04171662060635584;0.0632201488732537;5.704690653306115;1.0426502763017416;1.0871195986720978;5.704690653306115;2.695969641654276;-0.9839910268175792;0.00011743941646739507;0.027531355154481685;-0.0509839910268175;0.0003590246171420392;0.049964311206281295;0.0;53.712274320000006;86.85443368
4.449687051827239;1.1946303395671067;5.698591970857199;0.0316100744366268;0.022239775575526376;0.0632201488732537;4.475639238900218;1.1194681645861537;1.2532089715218917;5.704690653306115;2.695969641654276;-0.9839910268175792;0.00015211497679664171;0.03161007443662689;-0.0509839910268175;0.0004306631810606221;0.049964311206281295;0.0;53.712136599999994;86.8541782
2.8972664887897723;1.2376848363331414;5.698591970857199;0.0632201488732537;0.01785167880086825;0.0632201488732537;3.008721011651839;1.1400500033231473;1.2997140100771083;5.704690653306115;2.695969641654276;-1.0003059039461608;3.399972482058143e-05;0.015295197308045294;-0.0479249515652085;0.0004874333637885545;0.053023350667890295;30.0;53.71200794;86.85386009999999
3.3883212833767176;0.860777027582528;4.449687051827239;0.0326297542571632;0.019177030307320153;0.0632201488732537;3.6169084567805374;0.7317681337726561;0.535484601605116;4.475639238900218;1.8901003050026377;-1.0003059039461608;3.587126930611284e-05;0.015295197308045294;-0.037728153359845;0.00023602255456484471;0.040787192821454;30.0;53.7118614;86.8534678
2.7405714459078188;0.44059404806965347;3.3883212833767176;0.0418068726419904;0.02724091387077773;0.0632201488732537;3.0290710845623536;0.3762552644309642;0.14156802401201476;3.6169084567805374;1.0313695228829571;-0.9845008667278476;0.00012627726542686576;0.03110023452635846;-0.037728153359845;6.415238597642911e-05;0.0224329560517997;30.0;53.711719540000004;86.85308018
2.1554771209393047;0.44108178512137514;3.3883212833767176;0.0101967982053635;0.01985628460428351;0.0418068726419904;2.5855389338975803;0.37302978152111443;0.13915121790169035;3.6169084567805374;1.0313695228829571;-0.9845008667278476;0.00013729858295280376;0.03110023452635846;-0.037728153359845;6.373648720186548e-05;0.0224329560517997;0.0;53.71155734;86.85266198000001
2.8460619449776736;0.2671779297397737;2.8460619449776736;-0.0066279188334862;0.025048658422678737;0.0560823901294993;3.245214015106741;0.25075154966435154;0.06287633965907376;3.245214015106741;0.6596750812091607;-0.9845008667278476;0.0001308001646002478;0.03008055470582227;-0.037728153359845;2.0067115872685222e-05;0.011216478025899798;0.0;53.711378;86.85219591999999
2.658928077156796;0.3425057528047714;3.063918792984562;0.0326297542571632;0.03696321768715895;0.0866727847455898;3.108327368325336;0.39524520512346506;0.15621877217309;3.6901458260019404;1.1046068921043601;-0.9676761496889976;0.00037534864404363696;0.046905271744672294;-0.037728153359845;2.8800990138521305e-05;0.014275517487508896;0.0;53.711180639999995;86.8517272
2.528178670470438;0.5731508555129889;3.063918792984562;0.0560823901294993;0.034178292570805166;0.0866727847455898;3.0873734860667716;0.42783292821829866;0.18304101446784388;3.6901458260019404;1.1949310576165098;-0.9676761496889976;0.0003694220865061039;0.046905271744672294;-0.0275313551544814;9.222555325947342e-05;0.024472315692872497;30.0;53.710964260000004;86.85130602
3.063918792984562;0.863148018391608;3.063918792984562;0.0866727847455898;0.021755293734017758;0.0866727847455898;3.6901458260019404;0.6659797522011384;0.44352903034188973;3.6901458260019404;1.7459341888261621;-0.9676761496889976;0.0005359895457188628;0.06220046905271759;-0.0173345569491179;0.00021470774236845866;0.034669113898236;30.0;53.710719919999995;86.85093880000001
1.5747446705598895;0.8987938483749991;3.063918792984562;0.0479249515652085;0.044507593321213255;0.0866727847455898;2.4952147683854307;0.6776686609549991;0.4592348140405415;3.6901458260019404;1.7459341888261621;-0.9676761496889976;0.0005590719277071465;0.06220046905271759;-0.0173345569491179;0.00023675037742033048;0.034669113898236;30.0;53.710463960000006;86.85065724
0.961646157574879;0.8836287106914006;3.063918792984562;0.0764759865402263;0.05439110182892649;0.0866727847455898;1.9442116371757783;0.7143878818626472;0.5103500457521997;3.6901458260019404;1.7459341888261621;-0.9676761496889976;0.0006256157316373317;0.06220046905271759;-0.0173345569491179;0.00022531316111983074;0.034669113898236;30.0;53.71019149999999;86.85048205999999
2.8729045466042167;0.7237077586088034;2.8729045466042167;-0.0265116753339451;0.0450012789600906;0.0764759865402263;3.217758155106628;0.46818685059759274;0.21919892707249264;3.217758155106628;1.2735465179308496;-0.9870500662791885;0.0003134837013273454;0.04282655246252676;-0.0173345569491179;0.00016043295228790588;0.0336494340776996;0.0;53.70989428;86.85039988
1.9370738440269788;0.7086778772657796;2.8729045466042167;-0.0244723156928724;0.044062676432062166;0.0764759865402263;2.2726102151375165;0.5362697935763795;0.28758529150245266;3.217758155106628;1.310083208151553;-0.9850107066381156;0.0004460514357194896;0.04486591210359958;-0.0173345569491179;0.00015461036944401524;0.0336494340776996;0.0;53.70958086;86.85039878
2.306801211910352;0.6757153157813699;2.8729045466042167;0.0173345569491179;0.027865444767853142;0.0173345569491179;2.535143754106198;0.6928398858970725;0.48002710748986843;3.217758155106628;1.853756637884703;-0.9850107066381156;0.0003225294996740728;0.03976751300091774;-0.0183542367696543;0.00014608444456546066;0.0326297542571632;0.0;53.70925244;86.85044411999999
1.7191749782744328;1.0231063867867178;2.306801211910352;-0.020393596410727;0.04398473740488065;0.0540430304884266;1.907674946955075;0.6777086265710058;0.459288982528759;2.535143754106198;1.6690950966184905;-0.9850107066381156;0.00026794278551258403;0.03976751300091774;0.0050983991026817;0.0003176426890729508;0.0448659121035994;0.0;53.70888401999999;86.85051602
1.056731055633539;1.8193589787702475;2.306801211910352;-0.061180789232181;0.04442692437458715;0.0540430304884266;1.3640015172219249;0.7023407654096896;0.4932825507562686;2.535143754106198;1.6690950966184905;-0.9850107066381156;1.018951997675989e-05;0.008157438564290742;0.0387478331803813;0.0009839125259238643;0.078515346181299;0.0;53.70848244;86.85062131999999
-0.2945937957570323;1.8614717203890245;1.7191749782744328;0.0540430304884266;0.04834132007843957;0.0540430304884266;0.8660486574877077;0.6830548838316547;0.4665639743262753;2.4576545949977158;1.5916059375100082;-0.9778729478943612;3.358382604595831e-05;0.015295197308045183;0.0402773529111858;0.0010247225931779163;0.0698480677067399;30.0;53.70805758;86.8507443
-2.2474265129978592;1.4666496123815693;1.056731055633539;0.023452635872336;0.05224503476370763;0.0723972672580809;2.399831007076098;0.8588675983545478;0.7376535515033089;2.4576545949977158;1.8578999449991846;-0.9737942286122158;6.78954749474504e-05;0.01937391659019061;0.0402773529111858;0.0006371049352846258;0.058631589680840104;30.0;53.70752308;86.85094196
-2.356075350886992;2.1352149472160247;2.908076170763877;0.0453757520138676;0.020935742667582385;0.0723972672580809;2.4576545949977158;1.0511165713506014;1.1048460465678438;2.95303711423553;2.353282464236999;-0.9737942286122158;0.00013339953194122731;0.029570714795554287;0.0402773529111858;0.0013740775638113557;0.09126134393800331;30.0;53.7069867;86.85114798
-0.1794907904926753;2.505102325892711;2.908076170763877;0.0723972672580809;0.04720137429500648;0.0723972672580809;0.5997546499985311;0.9157094206052374;0.8385237429851796;2.95303711423553;2.353282464236999;-0.9737942286122158;0.0006083039451460859;0.06067094932191297;0.0402773529111858;0.001921504325830717;0.09126134393800331;30.0;53.70646512;86.85135344
2.908076170763877;2.329296201294819;2.908076170763877;0.023452635872336;0.04726631191728536;0.0723972672580809;2.95303711423553;0.9867535958760866;0.9736826589743872;3.0016777812970084;2.401923131298477;-0.9737942286122158;0.0006214567438916754;0.06067094932191297;0.0402773529111858;0.001656914724188028;0.09126134393800331;30.0;53.705944699999996;86.85154982
2.465942423470086;1.2883522209014615;2.908076170763877;-0.0542979504435607;0.04588856589390347;0.0723972672580809;2.5468348975986332;1.0058337209129609;1.011701474125612;3.0016777812970084;2.401923131298477;-0.9737942286122158;0.0005348978114356499;0.06067094932191297;0.003059039461609;0.000518196876269551;0.0540430304884265;0.0;53.705442319999996;86.85173864
2.8296364625783115;0.34548530218136386;3.282896644184609;0.0275313551544814;0.0327539903801591;0.0275313551544814;3.0016777812970084;0.42016588092871004;0.17653936749659896;3.660797263253309;1.1139623656546758;-1.00336494340777;0.00018086397958838886;0.031100234526358683;-0.0438462322830631;3.1010452378390745e-05;0.013765677577240704;0.0;53.70506818;86.8518509
2.452373788000239;0.4055174049912899;3.282896644184609;0.0050983991026817;0.036847883707839375;0.0418068726419904;2.747912348322588;0.5145693029285274;0.2647815675163506;3.660797263253309;1.1139623656546758;-0.9850107066381156;0.0003577249334715586;0.0494544712960131;-0.0438462322830631;4.0238206439021195e-05;0.013765677577240704;0.0;53.70472116;86.8519442
3.282896644184609;0.506089842367469;3.790474675757903;-0.003059039461609;0.018217772149792755;0.0418068726419904;3.660797263253309;0.5698847271820101;0.3247686022753141;4.170367222573544;1.4224548742509562;-0.9850107066381156;0.00022983606029322115;0.03874783318038133;-0.0438462322830631;6.828538004865527e-05;0.0219231161415315;0.0;53.70440492;86.85202732
3.255739079221119;1.1793448299969507;5.605225458068596;0.0418068726419904;0.025650572339806398;0.0560823901294993;3.654532151440607;1.1521504735742043;1.3274507137572633;5.865641438040017;3.117729089717429;-0.9646171102273886;0.0004848339964475116;0.05914142959110835;-0.0438462322830631;0.00036565300386164415;0.050983991026817596;0.0;53.70414043999999;86.85210076
3.790474675757903;1.0142464797129718;5.605225458068596;0.0091771183848271;0.023896213454768188;0.0560823901294993;4.170367222573544;0.9599447474213734;0.9214939181018844;5.865641438040017;2.2335466233421855;-0.9646171102273886;0.0002724656846859517;0.03976751300091763;-0.0560823901294993;0.00026968436163108994;0.03874783318038139;0.0;53.70390732;86.85214923999999
5.605225458068596;1.0305481204074471;5.605225458068596;0.0560823901294993;0.017711342431182508;0.0560823901294993;5.865641438040017;0.9513252307794636;0.9050196947175998;5.865641438040017;2.2335466233421855;-0.9646171102273886;0.0003332388931190671;0.046905271744672294;-0.0560823901294993;0.00029861532013667196;0.03874783318038139;0.0;53.70369072;86.85217328000002
3.252958840269253;0.9215798588657271;5.605225458068596;0.0244723156928724;0.01717487134913224;0.0560823901294993;3.6320948146978314;0.8694007223862293;0.7558576160856973;5.865641438040017;2.2335466233421855;-0.9646171102273886;0.0003255187721162386;0.046905271744672294;-0.0571020699500356;0.00023035593376141843;0.0377281533598451;0.0;53.703485799999996;86.85218339999999
4.780585530682009;0.8837274795316473;5.605225458068596;0.0305903946160905;0.015819832097517764;0.0560823901294993;4.93592207624616;0.8502331629342779;0.7228964313532262;5.865641438040017;2.2335466233421855;-0.9646171102273886;0.0003251288670150857;0.046905271744672294;-0.0571020699500356;0.00020930105829913525;0.0377281533598451;0.0;53.70329008;86.85218735999999
3.970192263787487;0.6999841984142581;5.027952831458754;0.023452635872336;0.011956805750543906;0.0530233506678902;4.153864043337382;0.6276598929277317;0.39395694119005165;5.212635085561132;1.5805402708633007;-0.9931681452024064;5.276715702275537e-05;0.01835423676965453;-0.0571020699500356;0.00015180305271571447;0.030590394616090602;0.0;53.70308208;86.8521688
4.221736891214229;0.42296261069340185;5.027952831458754;0.0530233506678902;0.012764338797418884;0.0530233506678902;4.397362921142274;0.4228338148989757;0.17878843502202127;5.212635085561132;1.05877104222375;-0.9931681452024064;5.151946069905929e-05;0.01835423676965453;-0.0693382277964719;5.7913904357977407e-05;0.018354236769654295;30.0;53.702892559999995;86.85214312000001
5.027952831458754;0.3981131618156614;5.027952831458754;0.0316100744366269;0.012910129120437399;0.0530233506678902;5.212635085561132;0.416266756811887;0.17327801282668667;5.212635085561132;1.05877104222375;-0.9931681452024064;2.526585055472706e-05;0.013255837666972692;-0.0693382277964719;4.918003009214145e-05;0.018354236769654295;0.0;53.7026743;86.85209382000001
4.500913345096253;0.3235592432372763;5.027952831458754;0.0489446313857448;0.020170596823516518;0.0530233506678902;4.783094677865746;0.3154301210112496;0.09949616124117157;5.212635085561132;0.8152721644188583;-0.986030386458652;5.3858891305966734e-05;0.020393596410727022;-0.0734169470786173;3.503947175697859e-05;0.014275517487508896;0.0;53.70246099999999;86.85202899999999
4.574262831936777;0.2809675884536921;5.027952831458754;0.0295707147955541;0.018048620866341847;0.0489446313857448;4.885653410671616;0.24124008346837647;0.058196777871829246;5.212635085561132;0.6657311080683099;-0.986030386458652;5.198734682043242e-05;0.020393596410727022;-0.0734169470786173;2.6721496265706443e-05;0.014275517487508896;0.0;53.702250019999994;86.85195114
4.2582101933078045;0.1309470522462243;4.577251344555539;0.0020393596410727;0.01903690612167243;0.0489446313857448;4.546903977492822;0.13266424957648695;0.01759980311569242;4.885653410671616;0.33874943317879413;-0.986030386458652;7.175553544891557e-05;0.020393596410727022;-0.0734169470786173;8.5259248785479e-06;0.007137758743754399;0.0;53.70205856;86.85187744
4.505922549686581;0.34861598187999704;4.577251344555539;0.0132558376669725;0.010288160094323864;0.0295707147955541;4.787535284340609;0.3616624703599931;0.13079974246689288;4.885653410671616;0.8700256655981544;-0.986030386458652;9.372018948056602e-05;0.023452635872336036;-0.0662791883348628;3.7222940323437324e-05;0.014275517487508896;0.0;53.701823239999996;86.85180596000001
4.577251344555539;0.4172548556759443;4.8683255792904525;0.0076475986540226;0.014395192406714113;0.0132558376669725;4.852333498488508;0.4187880428117739;0.1753834248021162;5.129546682614269;1.1139189375408067;-0.986030386458652;9.109482846613291e-05;0.023452635872336036;-0.0662791883348628;5.4378764774186796e-05;0.019373916590190693;0.0;53.70162706;86.85177361999999
3.75612965156357;0.6793503756216807;5.637500234685343;0.0132558376669725;0.020777462020108033;0.0367084735393086;4.015627745073462;0.6341273046606004;0.402117438516118;5.771424757468111;1.7557970123946491;-0.9962271846640156;2.598067657352716e-05;0.01325583766697247;-0.0662791883348628;0.00014015788702793403;0.03262975425716329;0.0;53.7014285;86.85176962
4.8683255792904525;0.7611405220695818;5.637500234685343;-0.0214132762312633;0.02203723667620899;0.0367084735393086;5.129546682614269;0.6980238180944588;0.48723725062716616;5.771424757468111;1.7557970123946491;-0.989089425920261;6.291768648945417e-05;0.020393596410727133;-0.0662791883348628;0.00016760720614913296;0.03262975425716329;0.0;53.701235280000006;86.85177608000001
5.637500234685343;0.9191300904278445;6.1497721016833085;0.0367084735393086;0.028664612617254087;0.0550627103089629;5.771424757468111;0.8477876056392915;0.7187438242756028;6.24404888457652;2.228421139503058;-0.989089425920261;7.50697288087255e-05;0.020393596410727133;-0.0662791883348628;0.0002446524541370439;0.0407871928214541;0.0;53.70104212;86.8517826
5.5039405545872535;0.4918726198771592;6.1497721016833085;0.0260018354236769;0.03126694831541125;0.0550627103089629;5.6127035257103195;0.4317563463050794;0.18641354257471165;6.24404888457652;1.1145022019622512;-0.989089425920261;6.165699332904656e-05;0.01733455694911812;-0.0856531049250535;7.278228554862921e-05;0.021413276231263406;30.0;53.70088406;86.85180886
6.1497721016833085;0.2577948142942679;6.1497721016833085;0.0550627103089629;0.013594668732510683;0.0550627103089629;6.24404888457652;0.24742589619145783;0.06121957410614606;6.24404888457652;0.6313453588662004;-0.989089425920261;0.00010844560546746014;0.02549199551340897;-0.0953400632201488;2.4382065658788463e-05;0.011726317936168101;30.0;53.70071806;86.85182718000002
5.949121143298487;0.27461307491980264;6.1497721016833085;0.0540430304884266;0.019305369443650078;0.0550627103089629;6.063551000109627;0.2724731532092689;0.07424161921980171;6.24404888457652;0.6313453588662004;-0.9850107066381156;0.00015668986331682878;0.029570714795554287;-0.0953400632201488;3.1400357479549574e-05;0.011726317936168101;30.0;53.700549460000005;86.85185314
5.907579445965214;0.4308332064943035;6.1497721016833085;0.0295707147955541;0.02065449510418077;0.0550627103089629;5.982012377874732;0.4379536027631559;0.1918033581732282;6.24404888457652;1.111572383118931;-0.979912307535434;0.00021190042564014113;0.034669113898235904;-0.0866727847455898;7.382203248503875e-05;0.020393596410727105;0.0;53.7003784;86.85188176
5.557571499465722;0.5164194989204511;5.949121143298487;0.0101967982053635;0.01699228425612015;0.0540430304884266;5.648792841641965;0.5304985340745231;0.2814286946552179;6.063551000109627;1.21524931731728;-0.979912307535434;0.00020878118483091794;0.034669113898235904;-0.0836137452839808;0.00010012762997618703;0.021413276231263406;0.0;53.70021085999999;86.85190878
5.053844325217573;0.7355203035804644;5.907579445965214;0.0173345569491179;0.01335352386428946;0.0295707147955541;5.132476501457589;0.7558306888141144;0.5712800301532187;5.982012377874732;1.9523324253307601;-0.979912307535434;0.0003179546131538782;0.04078719282145393;-0.0713775874375446;0.00016188859799888322;0.0336494340776996;0.0;53.70004547999999;86.85191748
4.786863856464872;0.7553366634225128;5.557571499465722;0.020393596410727;0.010363679777523623;0.020393596410727;4.848301682792347;0.7915074902150477;0.6264841070665239;5.648792841641965;1.923490686228873;-0.979912307535434;0.0005372372420425616;0.054043030488426624;-0.0672988681553992;0.00013495915234588757;0.02855103497501779;0.0;53.699880539999995;86.85190101999999
4.000114136168088;0.649857317002169;5.053844325217573;-0.0061180789232181;0.01662109385702037;0.020393596410727;4.0296799525439715;0.6848141007564303;0.4689703525948383;5.132476501457589;1.5281739860133143;-0.979912307535434;0.00045592903161539904;0.054043030488426624;-0.0642398286937901;9.950378181433879e-05;0.022432956051799707;0.0;53.699710679999995;86.85186428
3.723969488230913;0.6414535176323728;4.786863856464872;0.0071377587437544;0.01587887376608274;0.020393596410727;3.7253021554130923;0.6632823370161592;0.4399434585976179;4.848301682792347;1.8076016767140861;-0.9982665443050882;0.00016479988942089837;0.03568879371877243;-0.0540430304884266;0.00011613973279688333;0.029570714795554204;0.0;53.699532520000005;86.85181412
3.604221115710269;0.7426806256344926;4.000114136168088;-0.0193739165901906;0.03848126280196324;0.0132558376669725;3.6043025154442745;0.7351458936100737;0.5404394848917538;4.0296799525439715;1.8652139468152376;-0.9839910268175792;0.0003511225404253909;0.04996431120628142;-0.0367084735393086;0.00019266510731658865;0.034669113898236;90.0;53.69928766;86.85177406
3.030557518516771;1.0233641571198457;3.723969488230913;0.0132558376669725;0.049588320243857696;0.0509839910268175;3.040700006078261;0.9806756360484762;0.9617247031390833;3.7253021554130923;2.2972528532515604;-0.9727745487916796;0.0006931992825039322;0.061180789232181065;-0.0224329560517997;0.00036235180733854396;0.044865912103599505;90.0;53.69901946;86.85173114
2.1289885146471126;0.8872785218528886;3.604221115710269;-0.0825940654634444;0.05393036348122471;0.0509839910268175;2.164466005728734;0.8469912703097607;0.7173942119809422;3.6043025154442745;2.1762532132827426;-0.9727745487916796;0.0004779716666672425;0.047924951565208374;-0.0224329560517997;0.0002658632916397835;0.04180687264199039;90.0;53.69872399999999;86.85171216
1.3192421435016437;0.6830282980417125;3.030557518516771;0.0509839910268175;0.05444841999344981;0.0509839910268175;1.4280493021615321;0.6427175231148337;0.4130858145188667;3.040700006078261;1.612650703916729;-0.968695829509534;0.0005351577481697064;0.05200367084735391;-0.0224329560517997;0.0001604329522879059;0.031610074436626896;90.0;53.69839734;86.8517183
2.136465408407274;0.3831063015047378;2.136465408407274;0.040787192821454;0.06341965842001283;0.0509839910268175;2.1882685816562453;0.353118757363004;0.12469285680159209;2.1882685816562453;0.7602192794947131;-0.968695829509534;0.0010650127869637745;0.07851534618129907;-0.0224329560517997;4.814028315572866e-05;0.015295197308045301;90.0;53.698043559999995;86.85172804
1.446703110995318;1.5586354940939051;2.136465408407274;-0.0244723156928724;0.05258029197248382;0.0509839910268175;1.5454713826048005;0.2926602355330605;0.08565001346226643;2.1882685816562453;0.7602192794947131;-0.968695829509534;0.001052951722501448;0.07851534618129907;0.0316100744366268;0.0007587033394976665;0.06933822779647181;90.0;53.697709880000005;86.8517374
1.6129399510649944;1.6613710640653065;2.220643785991224;-0.078515346181299;0.04902741037002087;0.040787192821454;1.6899815711190027;0.3110405476970828;0.09674622231170123;2.253983563969039;0.7085121813642383;-0.968695829509534;0.0008084032430580594;0.07851534618129907;0.0316100744366268;0.0008601826404911893;0.07035790761700811;90.0;53.69736696;86.85174776
-1.7862789931095993;1.6459805788936044;2.220643785991224;0.0061180789232181;0.03321715594263423;0.0061180789232181;1.8059968358072154;0.2954545807719672;0.08729340929913887;2.253983563969039;0.7085121813642383;-0.968695829509534;0.000983392652455682;0.07851534618129907;0.0316100744366268;0.0008346048658555262;0.07035790761700811;90.0;53.697014519999996;86.85176908
2.220643785991224;1.6557854536766143;2.220643785991224;-0.0632201488732538;0.03461208488563646;0.0061180789232181;2.253983563969039;0.24175095027254914;0.05844352195768053;2.253983563969039;0.5640019928500362;-0.9768532680738248;0.0010794652693799267;0.07749566636076277;0.0316100744366268;0.0008533203107108888;0.07035790761700811;90.0;53.69666388;86.85177172
2.0313309366345096;1.6829656067896006;2.220643785991224;-0.0346691138982359;0.03586316997056991;0.0295707147955541;2.116314763070172;0.49046836940260513;0.24055922138445032;2.253983563969039;1.2641029628894616;-0.9768532680738248;0.0010098022246404843;0.07749566636076277;0.0316100744366268;0.000875778844537324;0.07035790761700811;90.0;53.696303019999995;86.85179486
1.6063732914534126;0.8834124032181034;2.220643785991224;-0.0142755174875089;0.04784678468387852;0.0550627103089629;1.7847068146400709;0.5682685455134857;0.32292913982001265;2.4282811358949337;1.4384005348153563;-0.9768532680738248;0.0009848482981666634;0.07749566636076277;-0.0020393596410727;0.0002372702508885332;0.0367084735393086;90.0;53.69591814;86.85182982
0.1193116086856738;0.9032725597710893;2.203762253781906;0.0295707147955541;0.036577949064581984;0.0550627103089629;0.9898806010795773;0.5669493003651347;0.3214315091845157;2.4282811358949337;1.4384005348153563;-0.9768532680738248;0.0009989888565018247;0.07749566636076277;-0.0020393596410727;0.0002513068345300551;0.0367084735393086;90.0;53.695501179999994;86.85187878
2.203762253781906;0.8180699786172061;2.203762253781906;0.0550627103089629;0.029337731915732725;0.0550627103089629;2.4282811358949337;0.5289931291873088;0.27983373072738077;2.4282811358949337;1.4384005348153563;-0.9605383909452432;0.0012551825016330065;0.09381054348934437;-0.0020393596410727;0.00021574748930486553;0.0367084735393086;90.0;53.69507824;86.85190127999999
0.6470009851214545;1.2312978195388886;3.1242698012048877;-0.0122361578464362;0.02621985267604789;0.0550627103089629;1.4145283466795948;0.9667274888971326;0.9345620377893556;3.455255180496051;2.4653745794164736;-0.9605383909452432;0.000285722458125183;0.04486591210359969;-0.0020393596410727;0.000460295968748274;0.0520036708473539;90.0;53.6945558;86.85187547999999
0.912070565968882;1.0017938960920891;3.1242698012048877;0.020393596410727;0.034967733658574925;0.0550627103089629;1.7279920549971957;0.7871489909757974;0.6196035339942159;3.455255180496051;2.040726833816456;-0.9605383909452432;0.00058381790479368;0.06627918833486279;-0.0112164780258998;0.0003058935486915316;0.0428265524625268;90.0;53.69403196;86.85182268000001
3.1242698012048877;1.1208366466365243;3.1242698012048877;0.0;0.03515012495759963;0.020393596410727;3.455255180496051;0.7844972888612128;0.6154359962305932;3.455255180496051;2.040726833816456;-0.9605383909452432;0.0006150103128859351;0.06627918833486279;-0.0050983991026817;0.0003813791762748278;0.0489446313857449;90.0;53.693528400000005;86.85173896
1.6484597434267474;1.5575041057260117;3.1242698012048877;-0.037728153359845;0.037067850982550284;0.020393596410727;2.4284679612414024;0.6473852276393922;0.41910763296570774;3.455255180496051;1.7272631254988555;-0.9605383909452432;0.0011296850464084431;0.0785153461812993;0.0193739165901906;0.0007494495917636269;0.07341694707861719;90.0;53.6930433;86.85160202
0.2988839184382088;1.6133853150997421;3.1242698012048877;-0.0703579076170082;0.027231370054533324;0.0;2.163554673931132;0.6038326208692664;0.36461383402584713;3.455255180496051;1.541149361310001;-0.974813908432752;0.0009971173120163343;0.07239726725808115;0.0193739165901906;0.0008018528373586427;0.07341694707861719;90.0;53.69251822;86.85133293999999
-1.0669653457682948;1.534582253620152;1.6484597434267474;-0.0499643112062812;0.035633396677032254;-0.037728153359845;2.1649012109558456;0.5140903895051796;0.26428892858158726;3.2429438957426986;1.3288380765566483;-0.974813908432752;0.0007946785834975094;0.07239726725808115;0.0438462322830631;0.0007619265550005333;0.0734169470786172;90.0;53.692120579999994;86.85104282
0.0556976106540358;1.5109703659995875;1.5734684549107154;-0.0601611094116447;0.033960083949615326;-0.0458855919241358;1.9141058191860503;0.5315769823681955;0.28257408818367685;3.2429438957426986;1.3288380765566483;-0.9268889568675436;0.0025676550594621703;0.12032221882328953;0.0438462322830631;0.0006937191559721;0.06933822779647181;90.0;53.69177474000001;86.85068162
-2.433039771030752;1.8262408674122965;1.950613451014786;-0.1294993372081166;0.03876393004454476;-0.0295707147955541;3.2429438957426986;0.6051373355441437;0.36619119486946566;3.2429438957426986;1.3288380765566483;-0.8677475272764352;0.006334138336603893;0.17946364841439788;0.0438462322830631;0.0009532399912997972;0.0734169470786172;90.0;53.6914978;86.8502562
1.5734684549107154;1.867505323261924;1.950613451014786;-0.0458855919241358;0.04145973510855371;-0.0295707147955541;2.6790860754285393;0.5694369221052095;0.3242584082566544;3.2429438957426986;1.3288380765566483;-0.8677475272764352;0.007086707169176764;0.19373916590190676;0.0438462322830631;0.001058930267385779;0.0790251860915672;90.0;53.69129602;86.84978306000001
1.950613451014786;1.936383316003426;1.950613451014786;-0.0295707147955541;0.04833325373615818;-0.003059039461609;3.2292691989543134;0.3253693417025016;0.10586520851991925;3.2429438957426986;0.6760749210973134;-0.8677475272764352;0.00686212183091241;0.19373916590190676;0.0438462322830631;0.0011360534963939185;0.0790251860915672;90.0;53.69120954;86.84935866
1.897421171592599;1.9287850983038255;1.950613451014786;-0.0295707147955541;0.02960234311681334;-0.003059039461609;3.1563233145171896;0.35841914115465884;0.12846428074604327;3.3825010053350555;0.8156320306896703;-0.8677475272764352;0.007898905488552706;0.19373916590190676;0.0448659121035994;0.001162255119191425;0.0800448659121035;90.0;53.69116527999999;86.84889455999999
-0.5900753413852282;1.8318553394022197;1.950613451014786;-0.003059039461609;0.033641708343680236;0.0005098399102681;2.566868974645385;0.5468301762507011;0.29902324165837274;3.3825010053350555;1.3069965188594952;-0.8677475272764352;0.006821727662432987;0.19373916590190676;0.0448659121035994;0.00105932017248693;0.0800448659121035;90.0;53.69115226;86.84842074
-2.412817983942441;1.7081023063746923;1.897421171592599;-0.0836137452839808;0.033675688315776775;0.0005098399102681;3.3825010053350555;0.5520117132677652;0.3047169315848134;3.3825010053350555;1.3069965188594952;-1.0395635770368106;0.00027963993854736573;0.040277352911185726;0.0448659121035994;0.0010089964207647324;0.0800448659121035;90.0;53.69115498;86.84796266
0.3928150093682289;1.5083090985238123;1.351963870871249;0.0005098399102681;0.03534922726420466;0.0005098399102681;2.0755044864755603;0.5731465024199337;0.3284969132362031;3.3825010053350555;1.4580639100630621;-1.0105027021515245;0.0006773431417238047;0.06933822779647181;0.0448659121035994;0.000780641999855895;0.07035790761700811;90.0;53.69116448;86.84751136000001
1.351963870871249;1.819753193409214;2.450981460620328;-0.0254919955134087;0.034579776809823756;0.0005098399102681;2.3296835125603574;0.5846521186710165;0.3418180998665084;3.3825010053350555;1.4580639100630621;-1.0105027021515245;0.000802892584295189;0.06933822779647181;0.0448659121035994;0.0011144007664432003;0.0887121443866625;90.0;53.69117670000001;86.84709862
0.9814791356765652;1.140445931564875;3.214823630749731;-0.0520036708473539;0.06542102348894084;0.0948302233098807;1.9244370952719934;0.6004988322495535;0.3605988475330774;3.4236721053479804;1.499235010075987;-0.9574793514836342;0.0020013049032002036;0.12236157846436213;-0.0071377587437544;0.000368070415488792;0.0469052717446722;0.0;53.691188620000005;86.84671118
2.450981460620328;1.0283932149042447;3.214823630749731;-0.0734169470786173;0.06801959951097161;0.0948302233098807;2.7210874421012083;0.7179039669584167;0.5153861057746315;3.4236721053479804;1.8480312805183694;-0.9126134393800348;0.004084333915602015;0.1672274905679615;-0.0132558376669725;0.0003069332956279402;0.0407871928214541;0.0;53.69118784;86.84631616
3.214823630749731;1.40432688472174;3.214823630749731;0.0948302233098807;0.06831322108263317;0.0948302233098807;3.4236721053479804;0.8405128796577095;0.7064619008704953;3.4236721053479804;1.993291694192689;-0.9126134393800348;0.0033170006765321338;0.14683389415723458;0.0061180789232181;0.0005905762598803265;0.060161109411644695;90.0;53.6911648;86.84588864
0.8304883675018562;1.3819959226265999;3.214823630749731;-0.058121749770572;0.06696238235465363;0.0948302233098807;1.575640824829611;0.8266576313788133;0.6833628395168301;3.4236721053479804;1.993291694192689;-0.9126134393800348;0.0033859358984160573;0.14683389415723458;0.0061180789232181;0.0005746681317532681;0.060161109411644695;90.0;53.69112262;86.84545734
-0.3306686158814428;1.3684319491072583;3.214823630749731;-0.0367084735393086;0.060376756778168436;0.0948302233098807;1.4303804111552914;0.7950771581094895;0.6321476873474622;3.4236721053479804;1.993291694192689;-0.9126134393800348;0.0031402436973425826;0.14683389415723458;0.0061180789232181;0.0005422280273373057;0.060161109411644695;90.0;53.6910644;86.84502536
1.492294252743235;0.678817277681685;1.492294252743235;-0.0331395941674314;0.04169542978580192;0.0509839910268175;2.159394218179448;0.34756523432524417;0.12080159211156188;2.2180132828965697;0.7876328717412784;-0.9126134393800348;0.0037545781747199115;0.14785357397777077;0.0061180789232181;0.0001442129000799219;0.0326297542571632;90.0;53.6909943;86.8445815
0.2367296519475591;2.3143211625860793;1.492294252743235;-0.0152951973080452;0.045270511292478825;0.0509839910268175;1.876738108020265;1.459174363838189;2.129189824082584;5.108811691339923;3.6784312801846317;-0.9870500662791882;0.001030467195001671;0.07341694707861735;0.0795350260018353;0.0016864695308554528;0.1060467013357804;90.0;53.6909113;86.84420154
0.4952444915187144;2.3206654348234967;1.492294252743235;0.0509839910268175;0.047448814896474595;0.0509839910268175;2.2180132828965697;1.317571452883198;1.7359945334527418;5.108811691339923;3.232073583319658;-0.9870500662791882;0.0007330995711886561;0.07341694707861735;0.0795350260018353;0.001696035202670416;0.1060467013357804;90.0;53.69083025;86.84391057
-4.486837940039959;2.0834405497966872;0.4952444915187144;-0.0718874273478127;0.04769469929823558;0.0509839910268175;5.108811691339923;1.2670798702190722;1.605491397514381;5.108811691339923;3.232073583319658;-0.9870500662791882;0.000745030667283946;0.07341694707861735;0.0795350260018353;0.001367579145458799;0.0887121443866624;90.0;53.69076519;86.84371239
-0.1159305264547219;2.031391105675544;0.4952444915187144;-0.0545528703986947;0.04894277255910789;0.0509839910268175;2.688634713017191;1.1191655496247088;1.2525315274667768;5.108811691339923;2.8907984084433536;-1.0013255837666972;0.0005885487533543894;0.05914142959110835;0.0795350260018353;0.0013020750884650302;0.0887121443866624;90.0;53.690714390000004;86.84356943
-0.0578925236020724;1.891497864825793;-0.0578925236020724;-0.037728153359845;0.012169057375904757;-0.037728153359845;2.875483293546984;0.9916956429748529;0.983460248295307;5.108811691339923;2.4201769783227323;-1.0013255837666972;1.7597716898745752e-05;0.00968695829509536;0.0795350260018353;0.001125474071315955;0.078515346181299;90.0;53.69067781;86.84352261
-0.2912710369863591;1.8734556762533274;-0.0578925236020724;-0.0560823901294993;0.008505315579134184;-0.037728153359845;3.0061479130030273;1.089093895843577;1.18612551396374;5.329095216106329;2.640460503089138;-1.0013255837666972;1.3126805072185999e-05;0.007647598654022758;0.078515346181299;0.0010953733975069145;0.0774956663607627;90.0;53.690662429999996;86.84351747000001
-0.7279346728445018;1.8519223821203523;-0.0578925236020724;-0.0520036708473539;0.04103118618116634;-0.037728153359845;3.1053471139303044;1.0793657701337909;1.1650304657365114;5.329095216106329;2.5791171450192008;-1.0013255837666972;2.373222382356131e-05;0.011216478025899868;0.078515346181299;0.0010699515849117137;0.0774956663607627;90.0;53.690678500000004;86.84353354
-4.446096228684359;1.9024539170080113;-0.2859045679969708;-0.0402773529111857;0.04191801921828459;-0.0326297542571632;5.329095216106329;1.0507665226257434;1.1041102850709972;5.329095216106329;2.5791171450192008;-1.0013255837666972;2.3004400968074636e-05;0.011216478025899868;0.078515346181299;0.0011278135019228762;0.0734169470786173;90.0;53.690711;86.84355067999999
-0.2859045679969708;2.5334439839346397;2.0291504696878104;-0.1366370959518711;0.04778426791006736;-0.0132558376669725;2.749978071087128;1.0916486442132465;1.1916967624126193;5.329095216106329;2.5791171450192008;-1.001835423676965;0.0001750154030710922;0.03415927398796814;0.078515346181299;0.0020251670953907;0.1152238197206076;90.0;53.69075758;86.8435563
-3.126801661358058;2.638057002467548;2.0291504696878104;-0.0326297542571632;0.049885692387178895;-0.0132558376669725;3.931304076786087;1.5271891743928965;2.3323067743828565;5.329095216106329;4.095461482838148;-1.0074436626899157;0.00014990551455682172;0.028551034975017542;0.078515346181299;0.0021925143648057355;0.1152238197206076;90.0;53.69080683999999;86.843539
2.0291504696878104;1.981827515750714;2.0291504696878104;-0.0132558376669725;0.05678527250868289;0.0101967982053635;2.761519565131326;1.0298887538006753;1.060670845205108;3.931304076786087;2.697670343517906;-1.0074436626899157;0.00015731371147873364;0.028551034975017542;0.0550627103089629;0.001240730019216896;0.0917711838482715;90.0;53.6908545;86.84352522
0.3418007946022894;1.981827515750714;2.0291504696878104;-0.023452635872336;0.05678527250868289;0.0101967982053635;1.2336337332681808;1.0298887538006753;1.060670845205108;3.931304076786087;2.697670343517906;-1.0074436626899157;0.00015731371147873364;0.028551034975017542;0.0550627103089629;0.001240730019216896;0.0917711838482715;90.0;53.6908545;86.84352522
-1.7970604811789352;1.981827515750714;2.0291504696878104;0.0101967982053635;0.05678527250868289;0.0101967982053635;1.8221450132013126;1.0298887538006753;1.060670845205108;3.931304076786087;2.697670343517906;-1.0074436626899157;0.00015731371147873364;0.028551034975017542;0.0550627103089629;0.001240730019216896;0.0917711838482715;90.0;53.6908545;86.84352522
2.4236869176870903;1.0120522801583303;2.4607235606967137;0.0438462322830631;0.029095737757002207;0.0499643112062812;3.1887775346768965;0.8876448125971178;0.7879133133305725;3.1887775346768965;2.274349960912759;-0.9432038339961252;0.00194567844210225;0.10094830223309892;-0.0010196798205363;0.00031639499274927315;0.0428265524625268;60.0;53.711614080000004;86.84404032
1.0245615771852652;1.0120522801583303;2.4607235606967137;0.032119914346895;0.029095737757002207;0.0499643112062812;2.101554023939258;0.8876448125971178;0.7879133133305725;3.1887775346768965;2.274349960912759;-0.9432038339961252;0.00194567844210225;0.10094830223309892;-0.0010196798205363;0.00031639499274927315;0.0428265524625268;60.0;53.711614080000004;86.84404032
2.4607235606967137;1.0120522801583303;2.4607235606967137;0.0458855919241358;0.029095737757002207;0.0499643112062812;2.9130043657573035;0.8876448125971178;0.7879133133305725;3.1887775346768965;2.274349960912759;-0.9432038339961252;0.00194567844210225;0.10094830223309892;-0.0010196798205363;0.00031639499274927315;0.0428265524625268;60.0;53.711614080000004;86.84404032
1.67619043622962;0.8927963430023994;2.4607235606967137;0.0499643112062812;0.03687168434858443;0.0499643112062812;2.0908528594782982;0.815844749550698;0.6656026553694411;2.9130043657573035;1.998576791993166;-0.9432038339961252;0.0018452388880451337;0.10094830223309892;-0.0010196798205363;0.00023779012435674906;0.0407871928214541;60.0;53.71149808;86.84397551999999
0.0619268855891319;1.1440507455974473;2.4607235606967137;-0.020393596410727;0.03864438542355553;0.0499643112062812;0.9144275737641373;1.0119153961940905;1.0239727690546432;2.9130043657573035;2.5362089862033197;-0.8850820842255531;0.00328008966028961;0.15907005200367097;0.0050983991026817;0.00038605803748867796;0.0469052717446721;60.0;53.711378939999996;86.84386662
0.9686037301414642;1.4068558357103431;3.2087466535409965;-0.0265116753339451;0.03381434172017881;0.0499643112062812;1.1162126313003844;1.1217837565512576;1.2583987964622514;3.2151749108902514;2.8383795313362676;-0.8850820842255531;0.006722795741433613;0.20597532374834304;0.0050983991026817;0.0007021411061570264;0.06627918833486271;60.0;53.71125178;86.84373434
-0.3299535882401676;1.439419560822975;3.2087466535409965;-0.020393596410727;0.025966822837252625;0.023452635872336;0.37679537955398396;1.1157951791566965;1.2449988818293245;3.2151749108902514;2.8383795313362676;-0.8850820842255531;0.006050287422964235;0.20597532374834304;0.0050983991026817;0.000725431437532589;0.06627918833486271;60.0;53.71111072;86.84359328000001
3.2087466535409965;1.6296680557273895;3.2087466535409965;0.023452635872336;0.02688747003504063;0.023452635872336;3.2151749108902514;1.0806211530504837;1.1677420764201567;3.2151749108902514;2.8383795313362676;-0.8850820842255531;0.006258236810246044;0.20597532374834304;0.0122361578464362;0.0008970936567337215;0.0734169470786172;60.0;53.710959439999996;86.84343688
1.9529493247081189;3.4539214229089814;3.2087466535409965;-0.0479249515652085;0.026584130466826002;0.023452635872336;2.040081335162532;2.1617157335848702;4.673014912828373;5.944087477362584;5.5672920978086;-0.8850820842255531;0.006320621626430593;0.20597532374834304;0.1019679820536351;0.0038520544500082266;0.1631487712858161;60.0;53.710818;86.84326472000001
-0.7513751883140299;3.467735111737075;3.2087466535409965;-0.0020393596410727;0.031598559825308556;0.0265116753339451;1.2280603889911055;1.8854778344558019;3.5550266642241404;5.944087477362584;4.7160270883714785;-0.9330070357907616;0.0031361886842906166;0.15805037218313456;0.1019679820536351;0.003874928882609226;0.1631487712858161;60.0;53.710697059999994;86.84308234
-5.789565102845183;2.909909818255617;1.9529493247081189;-0.023452635872336;0.029261435407936624;0.0265116753339451;5.944087477362584;1.8960214912203883;3.5948974951695853;5.944087477362584;4.7160270883714785;-0.9330070357907616;0.0013519829414126898;0.09075150402773535;0.1019679820536351;0.002634926686247801;0.13663709595187098;60.0;53.710589000000006;86.8429026
0.3467731847017443;2.458113944192234;0.3467731847017443;0.0265116753339451;0.03052148862155452;0.0265116753339451;1.7418372548576695;1.873412550585937;3.509674584692906;5.944087477362584;4.7160270883714785;-0.9330070357907616;0.0012582107645852983;0.09075150402773535;0.1019679820536351;0.0018806942585766816;0.1080860609768532;60.0;53.710500090000004;86.84274201000001
-0.3994421211067768;2.4338428392694196;0.3467731847017443;0.0112164780258998;0.04286204446377412;0.0265116753339451;2.085403081365487;1.6861685571571878;2.8431644031455527;5.944087477362584;4.202250222504914;-0.9990313041704904;8.375161572776003e-05;0.024727235648006607;0.1019679820536351;0.001837024887247502;0.1080860609768532;60.0;53.71044164999999;86.84263237
-0.7299913772514991;0.7065980026338247;0.4644464714323761;-0.0514938309370857;0.04636040213290373;0.0265116753339451;2.4711844975628483;0.5597006669562978;0.31326483659132465;3.0949257318101235;1.353088476952454;-0.9990313041704904;8.637697674219311e-05;0.024727235648006607;0.0211583562761292;0.00015544216699315096;0.029315794840419997;0.0;53.71039693;86.84256205
-1.194247575672493;2.213885914880737;4.2963588122084655;-0.0769858264504945;0.03362122656285017;0.0112164780258998;2.900149336881999;1.263012626199582;1.5952008939395652;5.323550930946295;3.238147849580808;-0.9990313041704904;9.456498386641217e-05;0.024727235648006607;0.0211583562761292;0.0015147033369606949;0.0966146629958192;0.0;53.710359419999996;86.84253478000001
0.4644464714323761;2.421765377702836;4.2963588122084655;-0.0622004690527174;0.01651047101245272;-0.0336494340776996;3.0949257318101235;1.1966127193703893;1.431882000158998;5.323550930946295;2.852366433383447;-0.9941878250229428;4.405927643033434e-05;0.017844396859386213;0.0211583562761292;0.0018016994850829997;0.0966146629958192;0.0;53.710339639999994;86.84253036
4.2963588122084655;3.2008280196522993;4.2963588122084655;-0.0453757520138676;0.021253048318994133;-0.0336494340776996;5.323550930946295;1.0696632993514044;1.1441795739793321;5.323550930946295;2.423401594064296;-0.9941878250229428;0.00029300068668008407;0.04486591210359969;0.0652595085143265;0.0032380968808953937;0.1407158152340165;0.0;53.71029011;86.84252179
3.1682555147620834;4.188592442363313;4.2963588122084655;-0.0336494340776996;0.027300011062598557;-0.0336494340776996;4.466562279100105;1.1548192452978936;1.3336074893103964;6.229383478382501;3.1344577465723775;-0.9819516671765066;0.0004524978667252241;0.05710206995003586;0.092790863668808;0.0053964945493502284;0.168247170388498;0.0;53.710209369999994;86.84250249
-3.5820050375680785;4.444357073176527;4.2963588122084655;-0.0846334251045171;0.03428460166912293;-0.0193739165901906;4.805043230976438;0.6748857514532907;0.4554707775146728;6.229383478382501;1.7628211992823957;-0.9819516671765066;0.0005697813211521704;0.05710206995003586;0.092790863668808;0.006106121833449401;0.168247170388498;90.0;53.710098589999994;86.84247875000001
-5.370638534451023;4.057766698160001;3.1682555147620834;-0.0999286224125624;0.034888848339463284;-0.0193739165901906;6.229383478382501;0.8005086521895602;0.6408141022303463;6.229383478382501;2.1026488596845363;-0.9758335882532884;0.0008055959263297363;0.06322014887325411;0.092790863668808;0.005029983754266037;0.14785357397777088;90.0;53.709961039999996;86.8424436
-3.79832759094117;3.714412285944884;2.9287152146941517;-0.0193739165901906;0.03798974513052933;-0.0193739165901906;4.948218462280001;1.1322288580003466;1.2819421868887688;6.229383478382501;3.0782361815174846;-0.9758335882532884;0.0008357485874855969;0.06322014887325411;0.092790863668808;0.004209727396132943;0.1427551748750892;90.0;53.70979351999999;86.84239384
2.9287152146941517;4.457837015622147;4.937653259867964;-0.0392576730906495;0.04614206109055818;-0.0040787192821454;4.126734618697965;1.164232162901188;1.3554365291335786;6.229383478382501;3.0782361815174846;-0.9442235138166616;0.0009227754060630103;0.08463342510451721;0.092790863668808;0.005856686543404871;0.1743652493117161;0.0;53.709648200000004;86.84234068
1.8204488818988735;3.3233327139136546;4.937653259867964;-0.1040073416947078;0.043181062686503575;-0.0040787192821454;3.1511472968650165;0.9365533779708574;0.8771322297886237;5.2494954969871;2.0983482001220835;-0.9442235138166616;0.0010462973421084105;0.08463342510451721;0.0683185479759355;0.0033389393368903645;0.1498929336188436;0.0;53.709505060000005;86.84227946
4.937653259867964;1.983278782177898;4.937653259867964;-0.0040787192821454;0.043181062686503575;-0.0040787192821454;5.2494954969871;1.735809572500358;3.0130348719838755;5.2494954969871;4.696532945787189;-0.9442235138166616;0.002293681741718358;0.1284796573875805;0.0086672784745589;0.0011188196909229496;0.09024166411746701;0.0;53.70936134;86.84220230000001
3.110574491317317;1.9986979833657812;4.937653259867964;-0.087182624655858;0.046914137687808645;-0.0040787192821454;3.334548392734476;1.6714613516631187;2.7937830501034995;5.2494954969871;4.696532945787189;-0.9442235138166616;0.0023560665579029113;0.1284796573875805;0.0086672784745589;0.0011577582136914678;0.09024166411746701;0.0;53.7092175;86.8420943
-0.4628556295828768;2.4930880124019565;6.126567905474969;-0.0193739165901906;0.03564214930254025;-0.0020393596410727;0.5529625511999103;2.1835396919753616;4.767845586431856;6.226429921784419;5.6734673705845085;-0.930967676149689;0.003653982658622313;0.14173549505455307;0.0086672784745589;0.0016906805059479237;0.10859590088712129;30.0;53.70907952;86.84197168
3.151594970046348;2.578762109098916;6.126567905474969;-0.0101967982053635;0.056778405786734286;0.0723972672580809;3.199022416398876;2.257604482006267;5.096777997174786;6.226429921784419;5.6734673705845085;-0.930967676149689;0.0032197843379778972;0.14173549505455307;0.0086672784745589;0.0018367649505133944;0.10859590088712129;0.0;53.70893486;86.84181678
6.126567905474969;2.8978254655075157;6.5515558293056975;-0.0020393596410727;0.03875722383027639;0.0723972672580809;6.226429921784419;2.5969077038744555;6.743929622442497;6.82993516925456;6.276972618054649;-0.930967676149689;0.003329581614462688;0.14173549505455307;0.0086672784745589;0.0023753538635732795;0.12083205873355751;30.0;53.70879662;86.84165293999999
5.430813639277726;1.3149684105387704;6.5515558293056975;0.0723972672580809;0.038757223830276404;0.0723972672580809;5.638193544185286;1.400610390114345;1.9617094648962576;6.82993516925456;3.6309127528556835;-0.930967676149689;0.0016664024149827409;0.10604670133578065;-0.0571020699500356;0.0004192259647601267;0.05506271030896301;30.0;53.708671779999996;86.84148714
6.5515558293056975;0.5038046492582766;6.5515558293056975;0.0397675130009177;0.030916651801914646;0.0723972672580809;6.82993516925456;0.5623032715218754;0.3161849691642039;6.9860103868537;1.3478168426684132;-0.930967676149689;0.0003417648179975918;0.04486591210359936;-0.0917711838482716;7.714922268155e-05;0.020393596410727008;30.0;53.70855358;86.84134334000001
5.524658880525856;0.8879633317954387;6.5515558293056975;0.0693382277964719;0.012946320177916753;0.0723972672580809;6.020713527441191;0.7580307179387199;0.5746105693386911;6.9860103868537;1.7628855154209502;-0.9370857550729071;0.00029705569973201057;0.03874783318038122;-0.0739267869888855;0.00021501966644938897;0.03823799327011311;30.0;53.70843178;86.84122665999999
6.381003369577694;1.4023233161597928;6.5515558293056975;0.0622004690527174;0.032123960440549285;0.1244009381054349;6.9860103868537;1.1451805324219497;1.3114384518382203;6.9860103868537;2.740212247885353;-0.9370857550729071;0.002331840454284541;0.12236157846436224;-0.0606709493219129;0.0004576186203870294;0.051493830937085705;30.0;53.70828126;86.84117854
4.329696279553137;1.194738716934432;6.381003369577694;0.0560823901294993;0.033660247126319986;0.1244009381054349;5.223124871432749;1.0168522388089016;1.0339884755706756;6.9860103868537;2.740212247885353;-0.9370857550729071;0.002486554798422202;0.12236157846436224;-0.0606709493219129;0.0002904273130124553;0.044356072193331306;30.0;53.7081127;86.84118918
3.255239334584969;1.157259754211131;6.381003369577694;0.1244009381054349;0.03317487199958683;0.1244009381054349;4.245798138968347;0.9986945520105281;0.9973908082155095;6.9860103868537;2.740212247885353;-0.9370857550729071;0.002249700446308231;0.12236157846436224;-0.0606709493219129;0.0002775344510009832;0.044356072193331306;30.0;53.70794142;86.8412739
5.223614093949291;0.9171977608315528;5.543482026896124;0.1223615784643621;0.05774305564893948;0.1244009381054349;5.900563797104175;0.6928209931153512;0.48000092850134146;5.900563797104175;1.6547656581358279;-0.951361272560416;0.0017111115332483632;0.10808606097685336;-0.0606709493219129;0.00020911910258526755;0.037218313449576795;30.0;53.707778700000006;86.84144398000001
5.0943229872535065;0.8986726941521674;5.543482026896124;0.0734169470786173;0.06119098518079481;0.1244009381054349;5.648007899859924;0.7177862650179005;0.5152171222483478;5.900563797104175;1.6547656581358279;-0.951361272560416;0.0016259562591564695;0.10808606097685336;-0.0606709493219129;0.000191573373033365;0.037218313449576795;30.0;53.707634760000005;86.8416738
5.543482026896124;0.596182378227262;5.543482026896124;-0.0163148771285816;0.06035565739063658;0.1223615784643621;5.895946974985574;0.670231883199866;0.44921077725763886;5.900563797104175;1.5269364685837852;-0.951361272560416;0.0007018291820760932;0.06322014887325389;-0.0708677475272764;9.799614875655097e-05;0.0270215152442133;0.0;53.707542939999996;86.8419455
4.595245676410916;0.5676432836389379;5.543482026896124;0.0265116753339451;0.04000603028562617;0.0734169470786173;4.957968614163052;0.6015141793219411;0.36181930792534833;5.895946974985574;1.522319646465185;-0.9809319873559702;0.00016895887716646889;0.033649434077699714;-0.0708677475272764;9.612460427101471e-05;0.0270215152442133;0.0;53.707482500000005;86.84224346
4.021136845636719;0.5555707720499702;5.543482026896124;-0.0178443968593861;0.019379282582978715;0.0265116753339451;4.3736273285203895;0.5672405633231913;0.3217618566792114;5.895946974985574;1.522319646465185;-0.9890894259202612;9.284940142132776e-05;0.02549199551340875;-0.0708677475272764;9.976371854844645e-05;0.0270215152442133;0.0;53.70743536;86.84255472
4.767912868298363;0.27656920657927725;4.767912868298363;-0.0152951973080452;0.01894657303564994;0.0265116753339451;5.052379600293597;0.2721405436565559;0.0740604755016858;5.052379600293597;0.6787522717732077;-0.9890894259202612;8.806656551384543e-05;0.02549199551340875;-0.0708677475272764;2.370623015012513e-05;0.012745997756704402;0.0;53.70739244;86.84286508
4.479916181098403;0.27910595950828265;4.767912868298363;0.0061180789232181;0.013463056290809378;0.0132558376669725;4.70415516692707;0.2780650010722455;0.07732014482130792;5.052379600293597;0.6787522717732077;-0.9890894259202612;8.806656551384543e-05;0.02549199551340875;-0.0708677475272764;2.152276158366613e-05;0.012745997756704402;0.0;53.707351800000005;86.84317772
4.4694814823548015;0.6015304331163356;4.767912868298363;0.0132558376669725;0.015482688919858226;0.0132558376669725;4.614945306058899;0.6459390862475425;0.4172373031423101;5.052379600293597;1.7043653586071552;-0.9890894259202612;8.453142593005415e-05;0.02549199551340875;-0.0560823901294993;0.00011198074505125327;0.027531355154481497;0.0;53.70730904;86.84351896000001
4.253362620819752;0.8712209114214938;4.479916181098403;-0.0005098399102681;0.021910069843340332;0.0132558376669725;4.3860856429378074;0.8891682761900043;0.7906202233827038;4.70415516692707;2.018689376717558;-0.9890894259202612;9.326530019589253e-05;0.02549199551340875;-0.0448659121035994;0.00023051189580188512;0.0336494340776996;0.0;53.707263260000005;86.84389814000001
3.2112489469697976;0.851455403652211;4.4694814823548015;-0.0244723156928724;0.020898461681152874;0.0132558376669725;3.348014241686442;0.8631757492250092;0.7450723740501559;4.614945306058899;1.9294795158493874;-0.9982665443050882;4.5540915814720176e-05;0.016314877128581706;-0.0448659121035994;0.0002305118958018849;0.0336494340776996;0.0;53.70721388;86.84429932
2.5454983073176214;0.6930620977301002;4.253362620819752;-0.0387478331803813;0.027202718515661493;0.0326297542571632;2.6854657902095114;0.7135499360573271;0.5091535112474156;4.3860856429378074;1.7124309164211082;-0.9982665443050882;8.193205858903837e-05;0.02039359641072691;-0.0448659121035994;0.0001531547237330523;0.030590394616090602;0.0;53.707164520000006;86.84472099999999
2.865322669041637;0.36628357622658964;3.2112489469697976;-0.0010196798205363;0.03130765780049348;0.0326297542571632;2.942366231655801;0.39527692662117064;0.15624384871907832;3.348014241686442;1.0738192327613105;-0.9941878250229428;9.648851569876165e-05;0.024472315692872337;-0.0387478331803813;4.0862054600875005e-05;0.017334556949118;0.0;53.707119539999994;86.84518290000001
2.635032315383377;1.4562342590648727;2.865322669041637;0.0326297542571632;0.05487639794958767;0.1101254206179259;2.673654726516699;0.8079590751911535;0.6527978671837441;2.942366231655801;2.0242841899910307;-0.9870500662791885;0.00015388254658853806;0.03161007443662667;0.0112164780258998;0.0006516094050475459;0.061180789232180996;0.0;53.70708888;86.84564888000001
2.231082192035991;1.4283247029314765;2.865322669041637;0.0275313551544814;0.04496198359125296;0.1101254206179259;2.2741950089251315;0.7821932469770249;0.6118262756164611;2.942366231655801;2.0242841899910307;-0.9870500662791885;0.0002653434181715892;0.03772815335984492;0.0112164780258998;0.0006287349724465472;0.061180789232180996;0.0;53.7070976;86.84610303999999
-0.6470459914348523;1.6158639165671727;3.714256422239645;0.1101254206179259;0.035768821692240944;0.1101254206179259;0.9180820416647705;1.0227057491107494;1.0459270492641792;3.777012069558524;2.8589300278937535;-0.986030386458652;0.00033396671597458436;0.03874783318038133;0.0112164780258998;0.0007917672920754852;0.07545630671968989;30.0;53.7071604;86.84650888
2.2151274688934306;1.660796931389216;3.714256422239645;0.0825940654634444;0.05481004308853121;0.1101254206179259;2.3718071728705987;1.0627577188055373;1.1294539688807492;3.777012069558524;2.8589300278937535;-0.986030386458652;0.00029705569973206337;0.03874783318038133;0.0112164780258998;0.0008377241066647649;0.07545630671968989;30.0;53.707283419999996;86.8468367
3.714256422239645;1.9381605759068778;4.315611911519484;0.0836137452839808;0.0702447651865703;0.1101254206179259;3.777012069558524;1.3240361633040032;1.753071761736785;4.317576522303977;3.3994944806392065;-0.986030386458652;0.0003007987887031362;0.03874783318038133;0.0112164780258998;0.0011551068590036255;0.0876924645661261;30.0;53.70752026;86.84708377999999
3.0223444359743223;0.8597839379652559;4.315611911519484;-0.0265116753339451;0.061096714095267096;0.0836137452839808;3.064750642162101;0.802301404723507;0.6436875440213126;4.317576522303977;1.945769349433378;-0.986030386458652;0.00021657928685400472;0.03874783318038133;-0.0397675130009177;0.00021873676174705188;0.0367084735393086;0.0;53.70780132;86.84725732
4.315611911519484;0.6326886075100785;4.676560500732719;-0.0418068726419904;0.04977262347440498;0.0836137452839808;4.317576522303977;0.6139239182200116;0.37690257736261146;4.686147681972224;1.6213970398101227;-0.986030386458652;0.00013157997480256334;0.027531355154481463;-0.0535331905781584;0.00012703108195577463;0.029060874885286005;0.0;53.708107940000005;86.84736938
4.108139676804663;0.790077825711498;5.135089013884927;-0.011981237891302;0.011077144728357049;-0.011981237891302;4.109317729617457;0.7797253016164313;0.6079715459808347;5.152088382092733;2.0873377399306317;-0.9982665443050882;4.860816927712301e-05;0.015295197308045294;-0.0535331905781584;0.0001868165307992951;0.0361986336290405;0.0;53.70840448;86.84745088
4.676560500732719;0.7474791040686317;5.984809741257252;-0.0193739165901906;0.01776446430480937;-0.011981237891302;4.686147681972224;0.7574986637084923;0.5738042255201515;6.009806584696035;1.900488855078578;-0.9982665443050882;3.982230766446505e-05;0.014275517487508882;-0.0718874273478127;0.00016843900369826586;0.03313959416743151;0.0;53.70871442;86.84754578
5.135089013884927;0.6875423898230217;5.984809741257252;-0.0224329560517997;0.018941427539777518;-0.011981237891302;5.152088382092733;0.6976112290137925;0.486661426846134;6.009806584696035;1.900488855078578;-0.9982665443050882;0.00012029872054252737;0.02651167533394516;-0.0718874273478127;0.00014733214088916223;0.03313959416743151;0.0;53.70894508;86.8476382
5.984809741257252;0.5155948634803587;5.984809741257252;-0.0550627103089629;0.01626061640679146;-0.0193739165901906;6.009806584696035;0.4996462758512879;0.2496464009720613;6.009806584696035;1.3236589027238113;-0.9982665443050882;0.00012528950583729105;0.02651167533394516;-0.0825940654634444;8.037243818441914e-05;0.022432956051799804;0.0;53.7091666;86.84773172
5.055256292646348;0.5215479102526032;5.984809741257252;-0.0479249515652085;0.015819832097517743;-0.0214132762312633;5.114048970327617;0.5344315848571894;0.28561711889296726;6.05019381576454;1.1171607789984765;-0.9982665443050882;0.00015616998984864126;0.02651167533394516;-0.0836137452839808;8.910631245025454e-05;0.021413276231263406;0.0;53.7093651;86.84781246
4.781446759492494;0.5299825592294527;5.984809741257252;-0.0254919955134087;0.019724941155913757;-0.0071377587437544;4.933033036766063;0.5091731223971715;0.25925726857168496;6.05019381576454;1.1171607789984765;-0.9992862241256244;0.00012560142991821898;0.02549199551340897;-0.0836137452839808;8.910631245025454e-05;0.021413276231263406;0.0;53.709557460000006;86.84790242
5.82853848212993;0.4202394551837755;5.82853848212993;-0.0214132762312633;0.014811704951905577;-0.0071377587437544;6.05019381576454;0.5090986100886468;0.25918139479419194;6.05019381576454;1.1171607789984765;-0.9992862241256244;9.856800957158882e-05;0.02549199551340897;-0.0836137452839808;6.477623413828284e-05;0.020393596410726994;0.0;53.70971404000001;86.8479822
5.064216365308556;0.4469232861884897;5.82853848212993;-0.0071377587437544;0.02156568581463995;-0.0071377587437544;5.4341017601739905;0.5243591428305278;0.27495251066996584;6.1737783710659295;1.2407453342998664;-0.9992862241256244;7.143061453130995e-05;0.021413276231263545;-0.0836137452839808;7.506972880873227e-05;0.020393596410726994;0.0;53.709869000000005;86.84806036
5.532388529120663;0.39654344545292236;6.134977983961423;-0.0305903946160905;0.022857664700173155;-0.0071377587437544;6.0095039663946475;0.3910227055419968;0.15289875624938312;6.514986916131991;1.0808851559580006;-1.0043846232283062;4.0758079907244035e-05;0.016314877128581706;-0.0897318242071989;4.762040968753323e-05;0.018354236769654295;0.0;53.71001188;86.84813668
5.7216532054555325;0.5798579673778305;6.134977983961423;-0.0652595085143265;0.025406198025732445;-0.0071377587437544;6.1737783710659295;0.6014703893087813;0.36176662921525693;6.514986916131991;1.5039664747905963;-1.0043846232283062;5.0947599884048426e-05;0.016314877128581706;-0.0815743856429081;0.00010938137771023061;0.026511675333945092;0.0;53.7101507;86.84821406
6.134977983961423;0.8322277154264592;6.914738013097836;-0.0489446313857448;0.03447060775397282;0.0224329560517997;6.514986916131991;0.7944593373073973;0.6311656386349088;7.18837819968487;2.177357758343475;-1.0003059039461608;7.465383003417074e-05;0.020393596410727133;-0.0815743856429081;0.00020930105829913977;0.0397675130009177;0.0;53.71028658;86.84829362
4.643120115668247;1.1696892600745297;7.719377171046737;-0.0081574385642908;0.0344404312553637;0.0224329560517997;5.011020441341395;1.118514232789725;1.251074088953187;7.995375196077094;2.9843547547356994;-0.9850107066381156;0.00012196231564077062;0.030590394616090477;-0.0815743856429081;0.000389593177072468;0.0520036708473539;0.0;53.71041566;86.84838174000001
6.914738013097836;1.2766050893835823;7.719377171046737;0.0224329560517997;0.02660367906161908;0.0224329560517997;7.18837819968487;1.2360999648893756;1.5279431231995158;7.995375196077094;2.9843547547356994;-0.9778729478943612;0.00014889176129375293;0.02651167533394505;-0.0815743856429081;0.00045592903161536483;0.0520036708473539;0.0;53.71053286;86.84847334
7.719377171046737;1.2667869021800195;7.719377171046737;-0.0295707147955541;0.025277984092292066;0.0224329560517997;7.995375196077094;1.2269648854199253;1.5054428300535305;7.995375196077094;2.9843547547356994;-0.9778729478943612;0.000119882821767938;0.02651167533394505;-0.0815743856429081;0.00045249786672521477;0.0520036708473539;0.0;53.710640579999996;86.84856058
7.659347335080545;0.667983019518234;7.719377171046737;-0.0214132762312633;0.033170954093225395;0.0224329560517997;7.957291897445514;0.6247573662424843;0.3903217666742457;7.995375196077094;1.3586795947571435;-0.9778729478943612;7.870884308613714e-05;0.022432956051799624;-0.1091057407973896;0.00011728345442693806;0.024472315692872393;0.0;53.71074316000001;86.84865804
6.250260952462092;0.8135501340527468;7.719377171046737;-0.0443560721933312;0.02594579260647156;-0.0214132762312633;6.636695601319951;0.740991394869287;0.5490682472703317;7.995375196077094;1.5415244529835688;-0.9778729478943612;6.342456312091967e-05;0.017334556949118007;-0.1029876618741715;0.0001884021448773169;0.030590394616090505;0.0;53.710842920000005;86.84876804000001
6.486803191189272;0.9789751413711825;7.659347335080545;-0.0672988681553992;0.023706185250459137;-0.0214132762312633;6.856300727301884;0.8625401849069289;0.7439755705792791;7.957291897445514;2.400267929346658;-0.9778729478943612;0.00010834163077379368;0.023452635872336036;-0.0866727847455898;0.0002649275193970243;0.04486591210359951;0.0;53.7109406;86.84889131999999
5.9842671822319415;0.6853709306704159;6.486803191189272;-0.0836137452839808;0.015225359748537746;-0.0443560721933312;6.4538507430935255;0.5662141399051906;0.32059845222857475;6.856300727301884;1.2992767592030274;-0.9788926277148976;7.091074106307237e-05;0.022432956051799624;-0.0866727847455898;0.00013703864621871225;0.026511675333945203;0.0;53.71103968;86.84904159999999
4.937917406187604;0.8302283763662394;6.486803191189272;-0.061180789232181;0.01826337365329906;-0.0346691138982359;5.557023968098856;0.7017702177846037;0.49248143856945015;6.856300727301884;1.744669504183884;-0.974813908432752;0.000131216063374794;0.026511675333945273;-0.07545630671969;0.00021595543869215903;0.037728153359845;0.0;53.71113902;86.8492331
5.140145917643171;0.5724948454351929;5.9842671822319415;-0.0509839910268175;0.025610005222311483;-0.0163148771285816;5.756532181332849;0.5001563925466185;0.25015641700524716;6.4538507430935255;1.3422195199755258;-0.974813908432752;0.0001677111808427539;0.027531355154481685;-0.07545630671969;9.804813610337341e-05;0.02753135515448149;0.0;53.7112342;86.84945628
4.423417421990573;0.3302409809837385;5.140145917643171;-0.0346691138982359;0.01832589044112499;-0.0163148771285816;5.111631223118;0.31019021991867846;0.09621797253319811;5.756532181332849;0.7462226089617641;-0.974813908432752;0.00012404180951357802;0.027531355154481685;-0.07545630671969;4.12779533754397e-05;0.014275517487508896;0.0;53.71132716000001;86.84972332000001
4.883569706436759;0.33921781871099493;5.140145917643171;-0.0163148771285816;0.014257297291841938;-0.0163148771285816;5.436738703141383;0.3218679149247575;0.10359895465801096;5.756532181332849;0.7462226089617641;-0.974813908432752;0.00011094099811482074;0.027531355154481685;-0.07545630671969;4.231770031184901e-05;0.014275517487508896;0.0;53.71141714;86.85001298
4.397265745812548;0.37198123923056947;5.229446761232113;-0.0254919955134087;0.02011898313394683;-0.0163148771285816;5.010309572371085;0.31222167947929;0.09748237713686851;5.730893468184626;0.7205838958135411;-0.974813908432752;0.00019827974077318532;0.03670847353930895;-0.07545630671969;5.7913904357984915e-05;0.017334556949117993;0.0;53.71150626;86.85031714
4.425627478988853;0.37236071217207195;5.229446761232113;-0.0458855919241358;0.020041313368509804;-0.0163148771285816;5.030491409278301;0.3191835561375492;0.101878142508612;5.730893468184626;0.7205838958135411;-0.9870500662791885;9.222555325946503e-05;0.02447231569287245;-0.0764759865402263;5.1675422739530565e-05;0.016314877128581692;0.0;53.711590539999996;86.85062669999999
5.229446761232113;0.5163146396211958;5.581926046396563;-0.0683185479759355;0.015356256222711556;-0.0254919955134087;5.730893468184626;0.427354241755051;0.18263164794603456;5.973324208920683;0.9630146365495982;-0.9870500662791885;9.222555325946232e-05;0.02447231569287245;-0.0764759865402263;8.71307932710791e-05;0.02039359641072709;0.0;53.711672179999994;86.85094386
5.04680293750045;0.7232225923697705;6.388601031048999;-0.040787192821454;0.01471310001870303;-0.0275313551544814;5.543480074494176;0.6159086908624057;0.37934351547984246;6.70810170821328;1.6776102989349795;-0.9870500662791885;0.0001388062160105915;0.02447231569287245;-0.0764759865402263;0.00018070801754789266;0.0367084735393087;0.0;53.71174766;86.85123438
5.581926046396563;0.515951930489749;6.388601031048999;-0.0458855919241358;0.018002475387531993;-0.0224329560517997;5.973324208920683;0.44676292407512636;0.19959711032815713;6.70810170821328;1.1646216337191042;-0.9901091057407974;0.00010106340221894774;0.021413276231263545;-0.0876924645661262;9.149773040399587e-05;0.025491995513408805;0.0;53.711819979999994;86.85151662
6.388601031048999;0.4862447107873274;6.388601031048999;-0.0275313551544814;0.01066040994284479;-0.0224329560517997;6.70810170821328;0.4282248425983985;0.18337651581842318;6.70810170821328;1.1646216337191042;-0.9880697460997246;9.508485733458882e-05;0.022432956051799846;-0.0876924645661262;8.494732470461885e-05;0.025491995513408805;0.0;53.71189412;86.8518058
5.481538324841806;0.5171168775991056;6.388601031048999;-0.0224329560517997;0.015405266574628297;-0.0096869582950953;5.8478449908479115;0.4869372075807563;0.23710784412654456;6.70810170821328;1.3568080033847938;-0.9880697460997246;0.00010428661772180738;0.022432956051799846;-0.0856531049250535;9.690441447332291e-05;0.027531355154481504;0.0;53.71197004;86.85208651999999
5.710602181281553;0.571359484184001;6.388601031048999;-0.0448659121035994;0.013060263585314754;-0.0096869582950953;6.0560695261721404;0.5310255928947089;0.28198818030917705;6.70810170821328;1.3568080033847938;-0.9880697460997246;9.25894646872073e-05;0.022432956051799846;-0.0856531049250535;0.00011463209973909746;0.027531355154481504;0.0;53.71206072;86.85241271999999
4.949112785783872;0.30606785908221196;5.710602181281553;-0.0096869582950953;0.01305329572192506;-0.0096869582950953;5.351293704828486;0.2758969231825769;0.07611911222161274;6.0560695261721404;0.7047758213436541;-0.9880697460997246;0.00011333241606856857;0.02549199551340886;-0.0856531049250535;2.8852977485351302e-05;0.013255837666972595;0.0;53.71215539999999;86.85274804000001
5.086786920322643;0.3011917988667499;5.710602181281553;-0.0186091567247884;0.013437933218350049;-0.0096869582950953;5.516793680450984;0.2746926689843817;0.07545606239376311;6.0560695261721404;0.7047758213436541;-0.9880697460997246;0.00011769935320148805;0.02549199551340886;-0.0856531049250535;2.5928689226701034e-05;0.013255837666972595;0.0;53.712252;86.85308015999999
5.229754537697905;0.10310460427987408;5.229754537697905;-0.020393596410727;0.017835654605153763;-0.0096869582950953;5.660058525629857;0.11231681928067355;0.012615067893327482;5.660058525629857;0.3087648208013709;-0.9890894259202612;8.02684634907647e-05;0.024472315692872337;-0.0856531049250535;6.511415189262111e-06;0.0071377587437544965;0.0;53.71234346;86.85339178
5.0401307073573465;0.5954652783394152;6.440964085790243;-0.0305903946160905;0.016805780506683025;-0.0142755174875089;5.452651657514288;0.5415460107078843;0.293272081713624;6.723835024162002;1.2711833666477146;-0.9992862241256244;4.1381928069072705e-05;0.014275517487509104;-0.0887121443866625;0.00011932395778964283;0.025491995513408805;0.0;53.712434540000004;86.85370302
5.117968030390233;0.6472937796532189;6.440964085790243;-0.0560823901294993;0.020515593090582988;-0.0142755174875089;5.475955307682333;0.6229279841260497;0.388039273407344;6.723835024162002;1.6511986307159265;-0.9982665443050882;4.502104234650406e-05;0.015295197308045294;-0.0836137452839808;0.00014088570988342536;0.030590394616090505;0.0;53.71251176;86.8539492
6.440964085790243;0.963572176733164;6.440964085790243;-0.0142755174875089;0.02352567308815053;-0.0142755174875089;6.723835024162002;0.9589922957546476;0.9196662233167696;6.723835024162002;2.6730821131472204;-0.9788926277148976;0.00015107522986022265;0.0326297542571633;-0.0642398286937901;0.00031847448662209105;0.04996431120628121;0.0;53.71257458;86.8541861
4.779516534325336;1.0278100186153762;6.440964085790243;-0.0591414295911083;0.022402808890954758;-0.0142755174875089;5.072636393446076;1.0335274445382248;1.0681789786137132;6.723835024162002;2.6730821131472204;-0.9788926277148976;0.0002575453161485108;0.04282655246252676;-0.0642398286937901;0.00034956292002072165;0.04996431120628121;0.0;53.71259638;86.85441782
3.744454133823804;1.0442612958574178;6.440964085790243;-0.0723972672580809;0.024000412554175104;-0.0142755174875089;4.050752911014782;1.0315992332553536;1.0641969780530336;6.723835024162002;2.6730821131472204;-0.9788926277148976;0.0002646155953160914;0.04282655246252676;-0.0642398286937901;0.00035798487020563503;0.04996431120628121;0.0;53.712566419999995;86.85459778
4.220733803984842;0.5924209642547696;5.319710626678109;-0.0387478331803813;0.01976706601148776;-0.0244723156928724;4.460500221269575;0.5417181103091183;0.2934585110368821;5.450174068561911;1.3994211575471294;-0.9788926277148976;0.0002438206565879094;0.04282655246252676;-0.0642398286937901;0.00011130490954259016;0.028551034975017903;0.0;53.71249636;86.85469156
5.319710626678109;0.5781794962508084;5.319710626678109;-0.0244723156928724;0.03128440172421116;0.014785357397777;5.450174068561911;0.5095555494684659;0.2596468579941102;5.450174068561911;1.3994211575471294;-0.9788926277148976;0.0002542181259519992;0.04282655246252676;-0.0642398286937901;0.00010610617486054502;0.028551034975017903;0.0;53.7123936;86.85469632
4.60265977687771;1.0101384311735482;5.319710626678109;-0.0326297542571632;0.02454814312059597;0.014785357397777;4.664777270863717;1.051575265886999;1.1058105398253126;5.450174068561911;2.8445201773493194;-0.986030386458652;0.00019162536038017685;0.035688793718772316;-0.0448659121035994;0.00032045000580127077;0.047924951565208596;0.0;53.71224162000001;86.8545085
4.578092196998156;1.1625317194915665;5.319710626678109;0.014785357397777;0.0217594752043164;0.014785357397777;4.592764824027357;1.2037541105686593;1.4490239587109441;5.450174068561911;2.8445201773493194;-0.986030386458652;0.00013485517765224087;0.029570714795554065;-0.0448659121035994;0.00041309145783531765;0.047924951565208596;0.0;53.71208682;86.8542001
2.6051493706126574;0.9647277926974659;4.60265977687771;0.0086672784745589;0.020446423879413686;0.0173345569491179;2.605653891212592;0.9734144759194296;0.947535741929498;4.664777270863717;2.0591233796511252;-0.986030386458652;0.00026149635450687037;0.03976751300091774;-0.0448659121035994;0.00028130353364547135;0.036198633629040494;0.0;53.71193939999999;86.85381715999999
2.988536228707071;0.9850869532392929;4.578092196998156;0.0081574385642908;0.005684200563747178;0.0214132762312633;3.011705603160278;0.9499858835583328;0.9024731789601063;4.592764824027357;2.5576034895896282;-0.986030386458652;0.00026128840511958803;0.03976751300091774;-0.0331395941674314;0.000291077154847717;0.046395431834404;0.0;53.71177886;86.85336989999999
2.958555791789523;0.7632913560482035;2.988536228707071;0.0173345569491179;0.00875381912157995;0.0214132762312633;3.0183873237743137;0.6712017463261108;0.4505117842712209;3.0183873237743137;1.5531425115365216;-0.986030386458652;0.00021886673011410122;0.03976751300091774;-0.0214132762312633;0.00018736239794091557;0.0316100744366269;0.0;53.7115941;86.85285746
1.8893552729075935;0.754991671648055;2.988536228707071;0.0214132762312633;0.009635839424840982;0.0214132762312633;2.035161334437729;0.6659632835314218;0.4435070950119528;3.0183873237743137;1.5531425115365216;-1.0043846232283062;0.00016511181350176762;0.029570714795554176;-0.0214132762312633;0.00018528290406809764;0.0316100744366269;0.0;53.71142118;86.85240294
1.220110416103574;1.1598658173499035;2.958555791789523;-0.0010196798205363;0.034755977769586915;0.0846334251045171;1.4652448122377921;0.709084163631047;0.5028003511123413;3.0183873237743137;1.804909609940671;-1.0043846232283062;0.00036755054202061905;0.04486591210359947;0.003059039461609;0.0004340423586039618;0.0560823901294992;0.0;53.71124048;86.85194576
2.0333117176328144;0.8706292138543561;2.0333117176328144;0.0020393596410727;0.034636108546266385;0.0846334251045171;2.2613047645899353;0.42258208470296704;0.1785756183119056;2.2613047645899353;1.0478270507562926;-1.0043846232283062;0.00037794801138471085;0.04486591210359947;0.003059039461609;0.0002422610361833148;0.039767513000917604;0.0;53.71104546;86.85148962000001
-0.1665018521807491;1.2401453934399667;3.2074492398182617;0.0846334251045171;0.03583126451966047;0.0846334251045171;1.2134777138336428;0.894159034472423;0.7995203789286557;3.4820056036019524;2.2685278897683094;-1.0054043030488429;0.0002779243561021635;0.043846232283062836;0.003059039461609;0.0004914883768405617;0.0601611094116446;0.0;53.71084346;86.85108794
1.189315715615012;1.390202982509887;3.2074492398182617;0.0336494340776996;0.03047461178752815;0.0846334251045171;1.8025885764339267;0.945606959919175;0.8941725226475842;3.4820056036019524;2.2685278897683094;-0.9962271846640156;0.0003958316586909456;0.0530233506678901;0.003059039461609;0.0006024813623022268;0.0601611094116446;30.0;53.71063316;86.85077524
3.2074492398182617;1.3961107094169576;3.2074492398182617;0.0520036708473539;0.01992945884132948;0.0846334251045171;3.4820056036019524;0.9428867363196016;0.8890353975274299;3.4820056036019524;2.2685278897683094;-0.9931681452024064;0.0005580321807707407;0.05608239012949934;0.003059039461609;0.0006046128435218655;0.0601611094116446;30.0;53.71040846;86.85054542
3.012643428420957;0.8007280359326174;3.2074492398182617;0.0560823901294993;0.03377280546890815;0.0560823901294993;3.188996275186576;0.6669376569205558;0.444805838218681;3.4820056036019524;1.6794170271680258;-0.99214846538187;0.0003018385356395292;0.03874783318038144;-0.0214132762312633;0.0001974999305709043;0.0356887937187723;0.0;53.710169359999995;86.85040871999999
2.173835462037158;0.942200449787051;3.2074492398182617;0.0387478331803813;0.03907250218157766;0.0560823901294993;2.4138602758210164;0.8745039889519863;0.7647572266929358;3.4820056036019524;2.258772867118773;-0.99214846538187;0.00010886150424199798;0.02549199551340897;-0.0142755174875089;0.0002793800018131162;0.0428265524625267;0.0;53.709910539999996;86.85037006
2.235660007955988;1.4206072038965432;3.012643428420957;-0.0275313551544814;0.04013576869300654;0.0560823901294993;2.489317164760983;0.9226765028297016;0.8513319288740484;3.188996275186576;2.1877883028652434;-0.99214846538187;3.5663319918795354e-05;0.014275517487509104;0.0101967982053635;0.0006122029961576532;0.0627103089629856;0.0;53.70963068;86.85039228000001
0.8167057895955583;1.3262883728583146;2.235660007955988;-0.0142755174875089;0.032322402783577224;0.0387478331803813;1.2232327364831799;0.8080314747003345;0.6529148641063974;2.489317164760983;1.7013048926318692;-0.9778729478943612;0.00011801127728238225;0.028551034975017875;0.0101967982053635;0.0005299590134876979;0.0489446313857448;0.0;53.70933496;86.85044983999998
-0.5802165492113284;1.4596686859779051;2.235660007955988;-0.0305903946160905;0.01959537046385838;0.0071377587437544;1.001207972321333;0.6764291940214714;0.45755645452453736;2.489317164760983;1.7013048926318692;-0.9778729478943612;0.0004299353582051158;0.05608239012949923;0.0285510349750178;0.000658367760134216;0.0672988681553991;0.0;53.709018779999994;86.85052277999999
-0.2984100677943478;0.8584609711524932;0.8167057895955583;-0.0448659121035994;0.027307627190815375;0.0224329560517997;0.7880122721291135;0.3747382953149402;0.1404287899755473;1.6940635551682337;0.9060512830391202;-0.9727745487916796;0.000603781045972696;0.06118078923218084;0.0285510349750178;0.00023415101007932777;0.0428265524625267;0.0;53.708684160000004;86.850608
-1.581692367848545;0.48972120411246917;-0.2984100677943478;0.0071377587437544;0.04419462207151886;0.0662791883348628;1.6940635551682337;0.39015499124560593;0.15222091719385886;1.6940635551682337;0.9077109517870287;-0.9727745487916796;0.0006241600859263167;0.06118078923218084;0.0285510349750178;8.078833695899468e-05;0.0234526358723361;0.0;53.70834532;86.85069411999999
-0.6004030813551356;0.6439924534302325;-0.2984100677943478;0.0224329560517997;0.040125405057511845;0.0662791883348628;0.8058036450264625;0.5128079459596652;0.2629719894393709;1.7629076581044758;0.9765550547232708;-0.9727745487916796;0.0006360132010013813;0.06118078923218084;0.0305903946160905;0.0001348551776522656;0.0254919955134088;30.0;53.7080062;86.8507902
-0.6358654771924337;0.5403907009769282;-0.6004030813551356;0.0662791883348628;0.03354576142041646;0.0662791883348628;0.786352603381205;0.49832194859028917;0.2483247644468228;1.7629076581044758;0.9765550547232708;-0.9727745487916796;0.0006246799593945225;0.06118078923218084;0.0305903946160905;9.648851569877187e-05;0.020393596410727;30.0;53.707668780000006;86.85090846
-1.7351517709155106;0.4670690496126426;-0.6004030813551356;0.0254919955134087;0.0330209420249053;0.0662791883348628;1.7629076581044758;0.42035090592177593;0.1766948841092577;1.7629076581044758;0.9765550547232708;-0.9727745487916796;0.0007535046048156098;0.0683185479759355;0.0305903946160905;6.883124719029093e-05;0.020393596410727;30.0;53.70733354;86.85104938
-0.8351980124754859;0.9641906974623972;0.929652902429384;-0.0265116753339451;0.03363861755325202;0.0662791883348628;0.8728007719667004;0.40730976460301915;0.16590124434096687;1.7629076581044758;0.9765550547232708;-0.9788926277148976;0.0004873293890949105;0.06220046905271748;0.0305903946160905;0.0002878019519980346;0.0469052717446721;30.0;53.70699952;86.85119152
-0.7855084322801863;1.2322470821185902;1.1094629988175224;0.0152951973080452;0.03744877391622469;0.0764759865402263;0.8384629042323447;0.38268846770927145;0.1464504633176701;1.7629076581044758;0.9244447538721311;-0.9788926277148976;0.0008326293466763718;0.0713775874375443;0.0305903946160905;0.00048119488217011593;0.0509839910268175;30.0;53.70666593999999;86.8513341
0.929652902429384;1.4548787228852171;2.629655118415742;0.0056082390129499;0.03865783583829689;0.0764759865402263;0.9498813852197577;0.7910267218786337;0.6257232747260573;2.703498065216119;1.865035160983774;-0.9768532680738248;0.00116867555652376;0.07341694707861712;0.0142755174875089;0.0006350774287586524;0.0591414295911083;30.0;53.70632828;86.8514726
1.1094629988175224;1.649741367352281;3.4781165346332563;0.0764759865402263;0.0400092788731381;0.0764759865402263;1.1762198679637945;1.2285596980262519;1.509358931614355;3.588270495831923;2.7498075915995783;-0.9768532680738248;0.0011372751990442098;0.07341694707861712;0.0142755174875089;0.0008084552304048592;0.0739267869888854;30.0;53.705981959999995;86.8515922
2.629655118415742;1.257971018169051;3.543110450980153;-0.0050983991026817;0.040014476064583165;0.0764759865402263;2.703498065216119;1.2891960675455643;1.6620265005749468;3.6426824462412837;2.692801061021526;-0.9768532680738248;0.000899381099993792;0.07341694707861712;-0.0163148771285816;0.00045067830958650556;0.0448659121035994;30.0;53.70563646000001;86.85169214
3.4781165346332563;0.9864012655292013;3.543110450980153;-0.0316100744366268;0.040030712938862456;0.0764759865402263;3.588270495831923;1.0038990283477975;1.007813259117652;3.6426824462412837;2.466462578277489;-0.9768532680738248;0.000891582997970721;0.07341694707861712;-0.020393596410727;0.00027215376060507195;0.040787192821454;0.0;53.70528478;86.85179102
3.543110450980153;0.6458901095433873;4.3049124181000336;0.0071377587437544;0.019341689370889138;0.0183542367696543;3.6426824462412837;0.6429686604736312;0.41340869835125565;4.385930829495805;1.6824327642796857;-0.9768532680738248;0.0001292405441955904;0.02549199551340886;-0.0448659121035994;0.00013459524091815494;0.030590394616090602;0.0;53.70495154;86.85187762000001
2.917259188242433;0.4945976866156122;4.3049124181000336;0.0183542367696543;0.020385947377610063;0.0183542367696543;3.041744741639515;0.48062856148755934;0.23100381411760063;4.385930829495805;1.3441860878562895;-0.9809319873559702;9.014605938661372e-05;0.021413276231263434;-0.0509839910268175;7.766909614975922e-05;0.024472315692872504;0.0;53.70463882;86.85195914
4.3049124181000336;0.5846924282840382;4.3049124181000336;0.0091771183848271;0.005128898272645082;0.0183542367696543;4.385930829495805;0.5820693997189006;0.3388047860891213;4.385930829495805;1.4666785037791699;-0.9850107066381156;6.207289210357776e-05;0.017334556949118007;-0.0499643112062812;0.00010532636465823995;0.025491995513408805;0.0;53.70433796;86.85203716
3.494611880025061;0.6369850938111835;4.3049124181000336;0.0163148771285816;0.004815221353366248;0.0183542367696543;3.5560186296743295;0.6393297783410541;0.4087425654736214;4.385930829495805;1.5246531484363652;-0.9850107066381156;0.00013443927887766175;0.0326297542571633;-0.0499643112062812;0.00012133846747893955;0.025491995513408805;0.0;53.704057899999995;86.85211038
2.862310015706545;0.8090195193495403;4.571004370491465;0.0081574385642908;0.004265626728530151;0.0173345569491179;2.9192523257166347;0.8137617136808222;0.6622081266527484;4.621649533883811;1.7603718528243713;-0.9819516671765066;0.0002074295138135686;0.035688793718772316;-0.0499643112062812;0.00018590675222994015;0.028551034975017806;0.0;53.70381053999999;86.85216510000001
2.810455176091792;0.7188398692604013;4.571004370491465;0.0173345569491179;0.01591811321742864;0.0173345569491179;2.8612776810594394;0.7136441310730361;0.5092879458149888;4.621649533883811;1.7603718528243713;-0.9819516671765066;0.0002476677202526034;0.035688793718772316;-0.0499643112062812;0.00013849429192968794;0.028551034975017806;0.0;53.703570879999994;86.85220704000001
4.571004370491465;0.7268278650186608;4.571004370491465;0.0152951973080452;0.02038084642735443;0.0356887937187723;4.621649533883811;0.7259503875425262;0.527003965173144;4.621649533883811;1.7603718528243713;-0.9819516671765066;0.00019672012036856418;0.035688793718772316;-0.0499643112062812;0.0001422373809007603;0.028551034975017806;0.0;53.70333151999999;86.85222368
3.172788837815614;0.700134538501001;4.571004370491465;-0.020393596410727;0.029609367044570522;0.0601611094116447;3.292322497435909;0.69926488583047;0.48897138055550016;4.621649533883811;1.7603718528243713;-0.9819516671765066;0.00024402860597516878;0.035688793718772316;-0.0499643112062812;0.0001276809237910333;0.028551034975017806;0.0;53.70310528;86.85221248
3.632478242859872;0.8826335047671273;5.459758481943933;0.0356887937187723;0.03012459337647243;0.0601611094116447;3.749367792707953;0.8660963829508224;0.7501229445604976;5.552513016899451;2.260190519463542;-0.9814418272662384;0.0001591332686173516;0.030080554705822493;-0.0560823901294993;0.0002126282484956517;0.037728153359844994;0.0;53.70288772;86.85217924000001
4.073855893974643;0.9069176853210967;5.459758481943933;0.0601611094116447;0.030274360842874378;0.0601611094116447;4.193863543156763;0.9147425528840935;0.8367539380569086;5.552513016899451;2.260190519463542;-0.979912307535434;0.00016942676328779945;0.03161007443662689;-0.0560823901294993;0.0002238575154088695;0.037728153359844994;0.0;53.70266511999999;86.85212048000001
5.459758481943933;0.7419993686416729;5.459758481943933;0.0091771183848271;0.023020838679068227;0.0601611094116447;5.552513016899451;0.7640291409793677;0.5837405282656705;5.552513016899451;1.803145224191498;-0.979912307535434;0.00015908128127052826;0.030590394616090477;-0.0632201488732537;0.00016552771227632156;0.030590394616090602;0.0;53.70239698;86.85204178000001
4.758338249806489;0.5110926012099608;5.459758481943933;0.0122361578464362;0.02269331746579581;0.0601611094116447;4.980258693317106;0.5145610811435917;0.2647731062276619;5.552513016899451;1.3586494737426884;-0.979912307535434;0.0002589489745126255;0.03262975425716308;-0.0703579076170082;8.026846349077881e-05;0.02345263587233609;0.0;53.702131859999994;86.85196098
