acc_X;acc_X_std;acc_X_max;acc_Z;acc_Z_std;acc_Z_max;acc;acc_std;acc_var;acc_max;acc_range;fb_tilt_max;fb_tilt_var;fb_tilt_range;tilt_max;tilt_var;tilt_range;class;lat;lon
-3.470651906157856;4.7444509607649765;7.518743323191384;-0.040787192821454;0.03755828362194088;-0.040787192821454;7.606658614760896;0.8751950486151233;0.765966373120428;8.667574168090557;2.1777675724272134;-0.9666564698684612;0.0004779716666672436;0.05812174977057216;0.0622004690527174;0.006909066405091285;0.1922096461711022;30.0;53.72917172;86.84434356
2.905956879916357;4.7444509607649765;7.518743323191384;-0.1009483022330988;0.03755828362194088;-0.040787192821454;6.489806595663343;0.8751950486151233;0.765966373120428;8.667574168090557;2.1777675724272134;-0.9666564698684612;0.0004779716666672436;0.05812174977057216;0.0622004690527174;0.006909066405091285;0.1922096461711022;30.0;53.72917172;86.84434356
7.134396671524175;4.7444509607649765;7.518743323191384;-0.1458142143366982;0.03755828362194088;-0.040787192821454;8.667574168090557;0.8751950486151233;0.765966373120428;8.667574168090557;2.1777675724272134;-0.9666564698684612;0.0004779716666672436;0.05812174977057216;0.0622004690527174;0.006909066405091285;0.1922096461711022;0.0;53.72917172;86.84434356
7.352777472603877;1.9757597572050545;7.518743323191384;-0.1029876618741715;0.039072502181577796;-0.0367084735393086;8.42811050746825;0.8662574021054572;0.7504018867024959;8.667574168090557;2.1777675724272134;-0.9666564698684612;0.00018164378979066678;0.03262975425716319;-0.0509839910268175;0.0011600976442983956;0.0790251860915673;0.0;53.72926152;86.84432583999998
7.518743323191384;1.3711806621767622;7.518743323191384;-0.0897318242071989;0.04067375501914149;-0.0367084735393086;8.248988555055183;1.6004990422444096;2.5615971842252723;8.667574168090557;3.8929442849955755;-0.9666564698684612;0.00046112776629741846;0.05710206995003575;-0.0764759865402263;0.0005167542273952977;0.0535331905781585;0.0;53.729357060000005;86.84431386
7.2439892372053665;1.416185651675527;7.518743323191384;-0.0367084735393086;0.0256700724148947;-0.0367084735393086;7.74401717457913;1.6117487505258368;2.5977340348215963;8.42811050746825;3.6534806243732696;-0.9809319873559702;0.00027584486222932437;0.04282655246252676;-0.0764759865402263;0.0005609954595395026;0.0535331905781585;0.0;53.7294676;86.84432199999999
4.262892169167023;1.3197750184277752;7.518743323191384;-0.0675537881105332;0.029524309322577352;-0.0132558376669725;4.774629883094981;1.4046030129920855;1.9729096241064448;8.248988555055183;3.4743586719602018;-0.9809319873559702;0.0002945603070846885;0.04282655246252676;-0.0764759865402263;0.0004744365270834496;0.0535331905781585;0.0;53.72958626;86.84436386
5.636160771187902;1.2126996772112744;7.2439892372053665;-0.0622004690527174;0.037862436337492505;0.0244723156928724;5.8658094466249855;1.2474895746718486;1.5562302389149496;7.74401717457913;2.969387291484149;-0.986030386458652;0.00018975381589465576;0.03772815335984492;-0.0764759865402263;0.00041766634435551537;0.0489446313857449;0.0;53.72970898;86.84444562000002
6.466903886560536;0.8676396906713668;6.466903886560536;-0.0132558376669725;0.04340666331686337;0.0244723156928724;6.569533745383345;0.7586289060761193;0.5755178171342495;6.569533745383345;1.794903862288364;-0.9992862241256244;0.0001156198593286906;0.02447231569287256;-0.0764759865402263;0.0002300959970273236;0.037728153359845;0.0;53.72984061999999;86.84457726000001
4.781568095311586;1.2822193647653675;8.200203648207054;0.0244723156928724;0.03476345587234143;0.0244723156928724;4.838970104488017;1.2506136879986225;1.5640345966095162;8.200408625337088;3.361438520849071;-0.9906189456510656;0.0001021031491553738;0.027021515244213368;-0.0836137452839808;0.0004869134903203579;0.05914142959110841;0.0;53.72996954;86.84474714
5.777862267143676;1.6636679577577762;8.769977296169051;0.0183542367696543;0.020515593090583015;0.040787192821454;5.790239423990427;1.6405685202905924;2.691465069768464;8.77288260389057;3.9339124994025534;-0.9839910268175792;0.00017779672612595193;0.033649434077699714;-0.0836137452839808;0.0007950944822719997;0.06831854797593559;0.0;53.730076280000006;86.84492556000001
8.200203648207054;1.9620082227622828;9.244830673616171;0.0040787192821454;0.014173182709406694;0.040787192821454;8.200408625337088;1.9441446150067436;3.7796982840597195;9.256636143512878;4.417666039024861;-0.9829713469970428;0.000203998348923457;0.034669113898236126;-0.0836137452839808;0.0011038993223854861;0.07647598654022639;0.0;53.73016818;86.84510961999999
8.769977296169051;1.3964290297355877;9.244830673616171;0.040787192821454;0.015406953806063757;0.040787192821454;8.77288260389057;1.3864311034057903;1.9221912044909972;9.256636143512878;3.466396719522451;-0.9829713469970428;0.00019807179138592532;0.034669113898236126;-0.1029876618741715;0.0005321424820541515;0.057102069950035694;30.0;53.73024798;86.8452867
9.244830673616171;0.8759091351695276;9.244830673616171;0.0336494340776996;0.017132441745071555;0.0489446313857448;9.256636143512878;0.8665073198560992;0.7508349353642002;9.256636143512878;2.109775045887403;-0.9788926277148974;3.410369951421555e-05;0.014275517487508993;-0.1233812582848985;0.00021553953991759617;0.036708473539308686;30.0;53.73030982;86.84545094
7.076519775532119;2.10035503697179;9.244830673616171;0.037728153359845;0.009384378802768122;0.0489446313857448;7.146861097625475;2.03704680424347;4.149559682678535;9.256636143512878;4.812637403748213;-0.9788926277148974;6.945509535212284e-05;0.020393596410727022;-0.0744366268991536;0.0012918335811414202;0.08565310492505358;30.0;53.73036486000001;86.84561862000001
9.073311824932391;2.842243978331473;9.244830673616171;0.0489446313857448;0.022564664295298218;0.0489446313857448;9.16023544700389;2.7214926307771052;7.406522139374088;9.256636143512878;5.985557283385736;-0.9788926277148974;8.401155246184867e-05;0.020393596410727022;-0.0499643112062812;0.0024199590071452316;0.11012542061792599;30.0;53.730418099999994;86.84580498
4.258914745228893;2.6775024088062254;9.073311824932391;0.023452635872336;0.03283701509581826;0.0489446313857448;4.443998739764665;2.553169320221007;6.5186735777178;9.16023544700389;5.889156586876748;-0.9788926277148974;8.858643898204866e-05;0.020393596410727022;-0.0499643112062812;0.0021468694742973926;0.1065565412460486;30.0;53.73047770000001;86.84603354000001
2.921778142201608;2.589673451181904;9.073311824932391;-0.0101967982053635;0.03132010930943742;0.0489446313857448;3.271078860127142;2.467783832591278;6.089957044398896;9.16023544700389;5.889156586876748;-0.9788926277148974;0.000176756979189537;0.0305903946160907;-0.0499643112062812;0.0019812897746742503;0.1065565412460486;30.0;53.73054852;86.84631428
3.1687153267135364;1.0451922715693331;4.258914745228893;-0.029060874885286;0.020122858752784075;0.023452635872336;3.5295870879074567;0.794450043337605;0.6311508713591225;4.443998739764665;2.1982403711319782;-0.9788926277148976;0.0003876176578932938;0.05302335066789021;-0.0244723156928724;0.0003251288670151025;0.049964311206281205;0.0;53.730633420000004;86.8466603
3.2373239184960507;1.1412162188413622;3.2373239184960507;-0.0112164780258998;0.013167300469200414;0.0081574385642908;3.672573837839898;0.7728055174612058;0.5972283678184822;3.672573837839898;1.6881123502177657;-0.9707351891506067;0.0006001419316952997;0.061180789232181065;-0.0132558376669725;0.00039375216481809855;0.0438462322830631;0.0;53.730728899999995;86.84705274000001
1.3584961075964133;1.09602325129985;3.2373239184960507;0.0081574385642908;0.04817595989134279;0.092790863668808;2.245758368632687;0.7602077665163701;0.5779158482718079;3.672573837839898;1.6881123502177657;-0.9707351891506067;0.0006812421927352128;0.061180789232181065;-0.0132558376669725;0.0003672386179396673;0.0438462322830631;30.0;53.7308374;86.84748892
0.7822995102155172;1.5089549552965433;4.490697401223241;-0.0112164780258998;0.046293913048329804;0.092790863668808;1.9844614876221325;1.1917355484667196;1.4202336174792731;4.866078033529655;2.881616545907523;-0.9707351891506067;0.0007598470611277343;0.061180789232181065;-0.0132558376669725;0.0006760434580531555;0.0642398286937902;0.0;53.73095128;86.84792024
1.8038475576771;2.559707080600335;6.867959361990537;0.092790863668808;0.046725374445494926;0.092790863668808;2.5860788182085876;2.1931674391070213;4.809983415959249;7.105593866689937;5.121132379067805;-0.9707351891506067;0.0008609104633466863;0.061180789232181065;-0.0132558376669725;0.001917501300125557;0.1050270215152442;30.0;53.73106875999999;86.84830908
4.490697401223241;2.965912346999822;7.454803544019363;0.058121749770572;0.04754376762261548;0.092790863668808;4.866078033529655;2.5591460034124323;6.5492282667818245;7.6380590397378665;5.653597552115734;-0.9707351891506067;0.000579866866435307;0.061180789232181065;-0.0132558376669725;0.002585642681462014;0.1152238197206078;30.0;53.73118504;86.84863016
6.867959361990537;2.4144656981817207;7.454803544019363;-0.0132558376669725;0.038948565830089224;0.092790863668808;7.105593866689937;2.1670019077883125;4.695897268358186;7.6380590397378665;5.051980221529279;-0.979912307535434;0.0004738126789215892;0.0520036708473538;-0.0326297542571632;0.0016935398100230532;0.09584990313041711;30.0;53.73129638;86.84887461999999
7.454803544019363;1.1876136532512038;7.454803544019363;0.0622004690527174;0.03118286925428343;0.0622004690527174;7.6380590397378665;1.1118972335028794;1.2363154578713569;7.6380590397378665;2.771981006208211;-0.979912307535434;4.335744724823708e-05;0.016824717038850023;-0.0774956663607627;0.00042130545863294463;0.050983991026817596;30.0;53.73143312;86.84906256
7.223062537578775;0.6315901501595349;7.454803544019363;0.0550627103089629;0.03118286925428343;0.0622004690527174;7.40339056312422;0.6282942296044299;0.39475363895422416;7.6380590397378665;1.504899465345087;-0.979912307535434;6.971503208620914e-05;0.018354236769654197;-0.1040073416947078;0.00010501444057731373;0.024472315692872504;30.0;53.73158062;86.84918446
6.300330655367188;1.1352876001291379;7.454803544019363;0.037728153359845;0.00997515823505289;0.0622004690527174;6.493165460950761;1.1024891605167224;1.2154823490568674;7.6380590397378665;2.755625751545282;-0.9707351891506067;0.00013433530418402857;0.027531355154481463;-0.078515346181299;0.0004010303933729689;0.049964311206281295;30.0;53.731736379999994;86.84926342000001
5.938085083202183;1.3020080769348006;7.223062537578775;0.058121749770572;0.02048294133365016;0.061180789232181;6.13315957439278;1.2571800339539727;1.580501637772512;7.40339056312422;3.1281098472784015;-0.9707351891506067;0.0001454865900770199;0.02906087488528586;-0.06984806770674;0.0005265798359443599;0.0555725502192312;30.0;53.731944299999995;86.84927678
4.615034217269312;0.9418278660828946;6.300330655367188;0.061180789232181;0.021665496865797076;0.061180789232181;4.882433288192584;0.9024638079259373;0.814440924616183;6.493165460950761;2.217884745104943;-0.9707351891506067;0.00015016545129086246;0.02906087488528586;-0.06984806770674;0.00028468271118879435;0.04027735291118591;0.0;53.73217261999999;86.84924398000001
3.996036578098924;0.9199958297572471;6.222766563808231;0.011981237891302;0.023606193479009427;0.061180789232181;4.275280715845819;0.8480626571544849;0.7192102704599255;6.297919633161386;2.022638917315567;-0.9707351891506067;0.00014473277354812305;0.02906087488528586;-0.06984806770674;0.00026586329163979047;0.038237993270113194;0.0;53.732374140000005;86.84915878
5.256546246576854;1.3451810837916756;7.400351050529117;0.0219231161415315;0.023638654726943088;0.061180789232181;5.413822133924193;1.2377719512094778;1.5320794032009177;7.431641997268325;3.156361281422506;-0.9656367900479248;0.0002462120745416389;0.03415927398796781;-0.06984806770674;0.0005027696311005923;0.0555725502192312;0.0;53.73255744000001;86.84904512
6.222766563808231;1.437334980159914;7.400351050529117;0.0173345569491179;0.024537551980608484;0.0219231161415315;6.297919633161386;1.3299556020868535;1.7687819035222052;7.431641997268325;3.156361281422506;-0.9656367900479248;0.00019001375262873722;0.03415927398796781;-0.06984806770674;0.0005851175884641894;0.057611909860303886;0.0;53.73271744;86.84890816
7.400351050529117;0.9708999723418753;7.483448636278831;-0.0020393596410727;0.02723805107702585;0.0219231161415315;7.431641997268325;0.9086938613040828;0.8257245335717236;7.483507133150315;2.069684999226122;-0.9656367900479248;0.00016500783880809807;0.031610074436627;-0.0917711838482716;0.0002696063806108644;0.0387478331803813;0.0;53.732816879999994;86.84878232000001
7.300276932565273;0.5126246998295548;7.483448636278831;-0.0387478331803813;0.022245618768285156;0.0173345569491179;7.313689485506359;0.4856794666999161;0.23588454437391487;7.483507133150315;1.1855874999889293;-0.9656367900479248;0.0002072215644263072;0.03874783318038144;-0.1080860609768532;7.870884308616436e-05;0.022432956051799707;0.0;53.73288926;86.8486499
7.483448636278831;0.26419709947294756;7.483448636278831;-0.0295707147955541;0.015994678293214996;-0.0020393596410727;7.483507133150315;0.2681789651493861;0.07191995734859566;7.483507133150315;0.6701800619179821;-0.9656367900479248;0.00022635290805623554;0.03874783318038144;-0.1193025390027531;1.6947875063467087e-05;0.011216478025899798;0.0;53.73294721999999;86.8484877
7.174641218817371;1.2086930580078297;7.483448636278831;-0.011726317936168;0.01791563225983021;0.0050983991026817;7.1749163524355986;1.1950852253227906;1.428228695784825;7.483507133150315;2.901894013845755;-0.9931681452024064;2.1314812196380297e-05;0.011216478025899868;-0.0795350260018354;0.0004474031067368103;0.0509839910268175;0.0;53.732998040000005;86.84830812
6.808102053009434;1.2719012180776434;7.6944941566113245;-0.0050983991026817;0.013366170631429227;0.0050983991026817;6.813327071232333;1.2623668473519873;1.5935700572933955;7.724647913727956;3.1430347944233956;-0.9931681452024064;1.7987621999871858e-05;0.011216478025899868;-0.0795350260018354;0.0004961672380543953;0.05506271030896301;0.0;53.733049060000006;86.84806218
4.5460050273933845;1.2039542108577945;7.6944941566113245;0.0050983991026817;0.006170958721785363;0.0050983991026817;4.58161311930456;1.1960696912241113;1.4305827062649408;7.724647913727956;3.1430347944233956;-0.9962271846640156;1.6635950982543766e-05;0.010196798205363455;-0.0795350260018354;0.0004484428536732201;0.05506271030896301;0.0;53.73308614;86.84780742000001
7.6944941566113245;1.2428261791125184;7.6944941566113245;-0.0005098399102681;0.004078719282145113;0.0050983991026817;7.724647913727956;1.241808823901832;1.5420891551204507;7.724647913727956;3.1430347944233956;-0.9931681452024064;2.4642002392891114e-05;0.013255837666972692;-0.0795350260018354;0.0004684059948522741;0.05506271030896301;0.0;53.73311386;86.84754842
6.4166076436963335;1.2388975843092314;7.6944941566113245;-0.003059039461609;0.009949065702172155;0.0050983991026817;6.459842488160309;1.2390160472482727;1.5351607653387338;7.724647913727956;3.1430347944233956;-0.9911287855613338;3.7118965629797686e-05;0.015295197308045294;-0.0795350260018354;0.0004665344503667377;0.05506271030896301;0.0;53.733133900000006;86.8472971
7.428831177405586;1.0770724537213536;7.6944941566113245;-0.0040787192821454;0.008271357108462487;-0.0005098399102681;7.4746834796538915;1.070833868559354;1.1466851740537916;7.724647913727956;2.7037181595672655;-0.9850107066381156;6.207289210361094e-05;0.021413276231263434;-0.0856531049250535;0.00037046183344254224;0.04894463138574491;0.0;53.733150220000006;86.84705742000001
6.338724588931446;0.8929572837064994;7.428831177405586;-0.0214132762312633;0.008170174619765378;-0.0010196798205363;6.388636234616065;0.8910631804449266;0.7939935915446279;7.4746834796538915;2.4537537254932014;-0.9850107066381156;6.675175331745214e-05;0.021413276231263434;-0.0856531049250535;0.0002544260753392917;0.0438462322830631;0.0;53.73315902;86.8468563
4.969610906178002;1.272857485453509;7.428831177405586;-0.0071377587437544;0.007950887606655473;-0.0010196798205363;5.02092975416069;1.2713761933359615;1.6163974249814403;7.4746834796538915;3.315051483646867;-0.9850107066381156;7.278228554862685e-05;0.022432956051800068;-0.0723972672580809;0.00048732938909491763;0.057102069950035694;0.0;53.733168680000006;86.84663556
5.884195602622151;0.9865043862221303;6.338724588931446;-0.0010196798205363;0.009051632923899999;-0.0010196798205363;5.930041131647199;0.990469524027628;0.9810298780275161;6.388636234616065;2.2290042386090407;-0.9850107066381156;0.00017675697918953726;0.03364943407769949;-0.0723972672580809;0.00027792435610213484;0.037728153359845;0.0;53.733174659999996;86.84638554
4.110290979364568;0.7600200617306241;5.884195602622151;-0.0050983991026817;0.013294998277154316;-0.0010196798205363;4.1596319960070245;0.766615233518611;0.5876989162627946;5.930041131647199;1.7704091356401745;-0.9850107066381156;0.00017675697918953726;0.03364943407769949;-0.0723972672580809;0.00017020657349015757;0.030590394616090588;0.0;53.73318558000001;86.84611486
4.235631593939798;0.7844106963982914;5.884195602622151;-0.0193739165901906;0.013294998277154316;-0.0010196798205363;4.264570244828889;0.7895448701659392;0.6233811020053498;5.930041131647199;1.8629837749459712;-0.9911287855613338;0.00011780332789515199;0.02753135515448135;-0.0713775874375446;0.00018330738488891115;0.03161007443662689;0.0;53.733194839999996;86.8458118
4.175368622712068;0.28603533702289036;4.235631593939798;-0.0336494340776996;0.0116261387284504;-0.0050983991026817;4.195807988254179;0.27935963430414557;0.07804180527854594;4.264570244828889;0.6968164298055366;-0.9911287855613338;0.00010636611159465548;0.02753135515448135;-0.0622004690527174;2.526585055473516e-05;0.013255837666972602;0.0;53.73320516;86.84549956
4.032207096778878;0.7141767188661627;5.459299227014835;-0.0071377587437544;0.017743600884393668;0.0132558376669725;4.067057356701228;0.7163940691559615;0.5132204623218365;5.505129297777625;1.9373754827542728;-0.9911287855613338;0.00015783358494690045;0.02753135515448135;-0.0622004690527174;0.00014421290007993068;0.032629754257163295;0.0;53.73321386;86.84519082
3.5215509081328364;0.9027237198442986;5.533264949697153;-0.0214132762312633;0.018433374591172193;0.0132558376669725;3.567753815023352;0.9111451068203138;0.830185405682601;5.594744982198236;2.026991167174884;-0.9890894259202612;0.00013069618990661818;0.023452635872335925;-0.0622004690527174;0.00022947214886547254;0.033649434077699596;0.0;53.73322872;86.84489336
5.459299227014835;0.879644419525692;5.533264949697153;0.0132558376669725;0.01516548786995252;0.0132558376669725;5.505129297777625;0.8864341773272745;0.7857655507338819;5.594744982198236;2.026991167174884;-0.9890894259202612;0.00013724659560599898;0.023452635872335925;-0.0622004690527174;0.0002157474893048732;0.033649434077699596;0.0;53.73323896000001;86.84461175999999
5.533264949697153;0.8124625533929153;5.533264949697153;-0.0254919955134087;0.015220237101698888;0.0132558376669725;5.594744982198236;0.8169079477297876;0.6673385950640934;5.594744982198236;2.026991167174884;-0.9890894259202612;0.00011198074505125773;0.023452635872335925;-0.0622004690527174;0.0001858027775362931;0.033649434077699596;0.0;53.733248460000006;86.84434478
4.720469697271853;0.7793321799066187;6.7504466362593885;-0.0091771183848271;0.014463646967673683;0.0132558376669725;4.809811751388588;0.7770168712135767;0.6037552181505359;6.838085030202656;2.0282732788140683;-0.9819516671765066;0.00014691624211459714;0.030590394616090477;-0.0836137452839808;0.00015824948372145374;0.032629754257163204;0.0;53.73325514;86.84409546
4.994288737483823;0.8271966253090764;6.7504466362593885;-0.0152951973080452;0.00587533814250534;-0.0091771183848271;5.096416543693845;0.8272559638081928;0.684352429656222;6.838085030202656;2.0282732788140683;-0.9819516671765066;0.0001431731531435251;0.030590394616090477;-0.0836137452839808;0.00018320341019527125;0.032629754257163204;0.0;53.73326224;86.84386192
6.7504466362593885;0.8326633082034012;6.7504466362593885;-0.0152951973080452;0.005472176145609562;-0.003059039461609;6.838085030202656;0.8296584058652007;0.6883330704227861;6.838085030202656;2.0282732788140683;-0.9819516671765066;0.0002456922010734623;0.041806872641990345;-0.0836137452839808;0.0001822676379525031;0.032629754257163204;0.0;53.73326732;86.84364172
6.120989869366919;0.6799728257885946;6.7504466362593885;-0.0152951973080452;0.006432878676695033;-0.003059039461609;6.2245519127916715;0.6688566080385787;0.44736916211687294;6.838085030202656;1.7416684865088108;-0.9819516671765066;0.0002344629341602444;0.041806872641990345;-0.0876924645661262;0.00011676358095873337;0.028551034975017806;0.0;53.73327106000001;86.84340482
5.405296055189725;0.6189897070501048;6.7504466362593885;-0.003059039461609;0.008265069492876153;-0.003059039461609;5.5381305525085045;0.5959786598681738;0.35519056301826435;6.838085030202656;1.4709482819760558;-0.9819516671765066;0.00025962481002134245;0.041806872641990345;-0.0907515040277353;9.773621202244761e-05;0.025491995513408708;0.0;53.7332737;86.84315658
5.595921957383609;1.079213416529983;6.120989869366919;-0.0040787192821454;0.01433729295676372;-0.003059039461609;5.731278858448776;1.0367878184814823;1.074928980551591;6.2245519127916715;2.7136810633651227;-0.99214846538187;0.00014733214088916935;0.031610074436627;-0.058121749770572;0.00035850474367383654;0.048944631385744904;0.0;53.73327637999999;86.84289814
5.224955466575382;1.1031992805967672;5.595921957383609;-0.0224329560517997;0.017886590852732705;-0.003059039461609;5.3671367482266;1.0698914007718565;1.1446676094455652;5.731278858448776;2.220408009022227;-0.99214846538187;0.0001276809237910386;0.031610074436627;-0.058121749770572;0.0003859540627950349;0.04078719282145409;0.0;53.73328078000001;86.84261582
3.292916053324939;1.0171820798656381;5.595921957383609;-0.037728153359845;0.014624498104869729;-0.0040787192821454;3.510870849426549;0.9903027272827757;0.9806994916637036;5.731278858448776;2.220408009022227;-0.99214846538187;5.16754227395372e-05;0.01733455694911812;-0.058121749770572;0.0003150953090787579;0.04078719282145409;0.0;53.73328148;86.8423042
3.5372538098302893;0.7571177679168729;5.224955466575382;-0.040787192821454;0.013880385704892865;-0.0224329560517997;3.7104610685311847;0.7385005584247412;0.5453830747936546;5.3671367482266;1.8562658988000513;-0.99214846538187;4.751643499390154e-05;0.01733455694911812;-0.058121749770572;0.00016370815513760004;0.032629754257163295;0.0;53.733285460000005;86.84199586
4.142247757549174;0.3159206112977327;4.142247757549174;-0.023452635872336;0.014961868713795932;-0.0183542367696543;4.266417307756049;0.2778165729205586;0.07718204818932406;4.266417307756049;0.7555464583295;-1.0003059039461608;1.1749140381430192e-05;0.009177118384827265;-0.058121749770572;3.020464850267755e-05;0.014785357397777095;0.0;53.73329183999999;86.84167456
3.758232837245648;0.270527399650385;4.142247757549174;-0.0560823901294993;0.017010631158267918;-0.0163148771285816;3.858196147545797;0.28050552102846565;0.078683347327451;4.266417307756049;0.7644336996968413;-0.9992862241256244;1.3828634254248967e-05;0.008157438564291297;-0.0601611094116447;2.3862192190582442e-05;0.012745997756704396;0.0;53.73330549999999;86.84134006
3.790179275232993;0.44292374499459713;4.605942438587572;-0.0183542367696543;0.018975362027599113;-0.0061180789232181;3.879909022121156;0.4363077808716628;0.1903644796491549;4.642143744773026;1.1401601367138188;-0.9992862241256244;2.9840737074947937e-05;0.013255837666972692;-0.0601611094116447;6.633585454289236e-05;0.0214132762312634;0.0;53.73332428;86.84100556
3.4448233103920893;0.6041024478377939;4.849834052386627;-0.0163148771285816;0.021408420062421822;-0.0020393596410727;3.5019836080592075;0.5875967558389467;0.34526994747245465;4.89902998900785;1.3970463809486429;-0.9992862241256244;3.358382604602081e-05;0.013255837666972692;-0.0601611094116447;0.00012092256870436753;0.025491995513408798;0.0;53.73336044;86.84068332000001
4.605942438587572;0.5841277558707448;4.849834052386627;-0.0061180789232181;0.008604067751495326;0.0010196798205363;4.642143744773026;0.5758742493697664;0.33163115108719193;4.89902998900785;1.3970463809486429;-0.9992862241256244;3.2959977884175e-05;0.013255837666972692;-0.0601611094116447;0.00011406023892406802;0.025491995513408798;0.0;53.73340874;86.84036298000001
4.849834052386627;0.5592789847704464;4.849834052386627;-0.0020393596410727;0.006825002765649498;0.0010196798205363;4.89902998900785;0.549293856975958;0.3017237413115242;4.89902998900785;1.3970463809486429;-0.9992862241256244;2.464200239290278e-05;0.013255837666972692;-0.0601611094116447;0.00010376674425361838;0.025491995513408798;0.0;53.733475180000006;86.84007102
4.403142228395155;0.33447416676239244;4.849834052386627;0.0010196798205363;0.0025593760371182767;0.0010196798205363;4.496500957232482;0.30696864343358327;0.09422974805145438;4.89902998900785;0.8389131348689469;-1.0054043030488429;1.5284279965222495e-05;0.009177118384827043;-0.0693382277964719;3.722294032343963e-05;0.016314877128581595;0.0;53.73356034000001;86.83978754
3.945181678194509;0.3546849810706382;4.849834052386627;-0.0015295197308045;0.003067525024266318;0.0050983991026817;4.060116854138903;0.32563822549517074;0.10604025390364367;4.89902998900785;0.8389131348689469;-1.0054043030488429;1.4036583641530846e-05;0.009177118384827043;-0.0693382277964719;4.075807990723043e-05;0.016314877128581595;0.0;53.73366464000001;86.83951296000001
4.539579982442221;0.30037923653909826;4.749168207492192;-0.0020393596410727;0.0047500008968498555;0.0091771183848271;4.613684840257339;0.27220103133418294;0.07409340145939285;4.790518465936388;0.7304016117974843;-1.0023452635872336;2.0586989340906493e-05;0.01223615784643628;-0.0693382277964719;2.890496483216718e-05;0.014275517487508896;0.0;53.73377455999999;86.83924912
4.749168207492192;0.46551888124417967;4.749168207492192;0.0050983991026817;0.008818904174748381;0.0193739165901906;4.790518465936388;0.4519422656528233;0.20425181148340713;4.790518465936388;1.087208538099547;-0.9758335882532884;0.00021709916032221067;0.03874783318038155;-0.0622004690527174;8.037243818441462e-05;0.0214132762312634;0.0;53.73388876;86.8389998
4.536663765765434;0.7383022342880214;4.749168207492192;0.0091771183848271;0.01294632017791678;0.0193739165901906;4.576248181317114;0.7186665013505669;0.5164815401634643;4.790518465936388;1.6700942563032242;-0.9758335882532884;0.0002487074671890397;0.03874783318038155;-0.0520036708473539;0.00018996176528192756;0.0316100744366269;0.0;53.73399526000001;86.83873254
3.6464314446254855;0.8811206987304411;4.749168207492192;0.0193739165901906;0.02427609036802762;0.0193739165901906;3.7033099278368407;0.8410068173906292;0.7072924668975151;4.790518465936388;1.8718211480197602;-0.9758335882532884;0.00019630422159402317;0.03161007443662733;-0.0489446313857448;0.00024797964433355185;0.034669113898236;0.0;53.7340784;86.83845728
3.018644715893142;0.695519714641183;4.536663765765434;-0.0152951973080452;0.029868091191754403;0.0193739165901906;3.1204242096331636;0.6552243979655286;0.4293190116892893;4.576248181317114;1.6575508634004863;-0.9758335882532884;0.0013062340762106943;0.09279086366880807;-0.0489446313857448;0.00014317315314351907;0.030590394616090602;0.0;53.73413024;86.83815584
2.779025597935428;0.3168395944647802;3.6464314446254855;-0.0418068726419904;0.027204629557043315;0.0193739165901906;2.9186973179166276;0.28959111927267367;0.0838630163615999;3.7033099278368407;0.7846126099202131;-0.9758335882532884;0.0013035307341760342;0.09279086366880807;-0.0489446313857448;2.8385091363959235e-05;0.013255837666972602;0.0;53.734164;86.83781584
3.1645438045350014;0.15661939900364025;3.1645438045350014;-0.0479249515652085;0.015216821045747123;-0.0152951973080452;3.303468983457479;0.15792431176831045;0.024940088247494517;3.303468983457479;0.3847716655408515;-0.986030386458652;0.001133116211298592;0.08259406546344439;-0.0489446313857448;1.5908128127050284e-05;0.010196798205363497;0.0;53.734181379999995;86.83742362000001
3.1588772124553417;0.19316869410201795;3.2814347601981586;-0.0346691138982359;0.009870374255392998;-0.0346691138982359;3.2981936769767852;0.19365305203670016;0.0375015045631289;3.4200271409700047;0.5013298230533771;-0.9870500662791885;0.001036627695599836;0.08157438564290798;-0.0489446313857448;1.6947875063459467e-05;0.010196798205363497;0.0;53.734198420000006;86.83700546
3.01122099126128;0.924799603071821;3.2814347601981586;-0.0550627103089629;0.026429188256160897;0.0061180789232181;3.1412739173205635;0.8872937777216928;0.7872902479836329;3.4200271409700047;2.1009251655999925;-0.9870500662791885;0.0010253984286866201;0.08157438564290798;-0.0193739165901906;0.0002762607610038749;0.0397675130009177;0.0;53.73423924;86.83658036
3.2814347601981586;1.729532579976546;3.2814347601981586;-0.0591414295911083;0.04773800723973865;0.0540430304884266;3.4200271409700047;1.21345735458698;1.4724787514012316;3.4200271409700047;2.5449716994591323;-0.9870500662791885;0.0004285836871878279;0.053023350667890434;0.0122361578464362;0.0009240231023867067;0.0693382277964718;0.0;53.734316979999996;86.83614610000001
1.0972447749783296;1.8826446503382803;3.905132105611668;0.0061180789232181;0.04878184922037474;0.0540430304884266;1.319101975370012;1.3540682376606374;1.8335007922413846;3.9311967236259213;3.056141282115049;-0.9870500662791885;0.0004285836871878279;0.053023350667890434;0.0122361578464362;0.0011024436766745001;0.0815743856429081;0.0;53.734392820000004;86.83573041999999
-0.6731288961061215;2.2095771935583968;4.716615648878046;0.0540430304884266;0.04520644426972744;0.0540430304884266;0.8750554415108726;1.6806778437664576;2.8246780145274695;4.737048044646643;3.861992603135771;-0.9941878250229428;0.00031369165071463154;0.045885591924136104;0.0122361578464362;0.0015173027043017097;0.0948302233098806;30.0;53.7344152;86.83528688
3.905132105611668;2.2169128478286972;4.716615648878046;0.0173345569491179;0.043834966930873034;0.0540430304884266;3.9311967236259213;1.676842929203593;2.811802209220086;4.737048044646643;3.861992603135771;-1.0003059039461608;0.00023259138967472745;0.039767513000918076;0.0122361578464362;0.001532275060186;0.0948302233098806;30.0;53.73438986;86.83487242
4.716615648878046;2.0796927923333803;4.716615648878046;-0.0387478331803813;0.04355417658653966;0.0540430304884266;4.737048044646643;1.4454298645179398;2.0892674932403494;4.737048044646643;3.861992603135771;-1.0003059039461608;0.0002760528116166263;0.039767513000918076;0.0122361578464362;0.0013504233210080586;0.0948302233098806;0.0;53.734296979999996;86.8344621
3.3581392697533405;0.9320460604638471;4.716615648878046;-0.0545528703986948;0.03168481741228359;0.0173345569491179;3.372744214566354;0.9407681097253064;0.8850446362761262;4.737048044646643;2.5037415746060376;-0.9676761496889976;0.00032772823435615113;0.047924951565208485;-0.037728153359845;0.0002856184834315579;0.0448659121035994;0.0;53.734132360000004;86.83405683999999
3.034239154499576;0.8980977703826966;4.716615648878046;-0.0020393596410727;0.037098692965179376;0.0367084735393086;3.041716397942353;0.9049673858095626;0.8189659693789937;4.737048044646643;2.5037415746060376;-0.9676761496889976;0.00023290331375564713;0.03874783318038144;-0.037728153359845;0.00026128840511958565;0.0448659121035994;0.0;53.733920420000004;86.83366058
2.232590586007541;0.4901995818909021;3.45349685898682;0.0112164780258998;0.03584794591123397;0.0367084735393086;2.233306470040606;0.49264278532634015;0.24269691393409448;3.4549392750919505;1.2216328050513448;-0.9676761496889976;0.0002711660010154996;0.040787192821454044;-0.037728153359845;8.453142593004717e-05;0.0224329560517997;0.0;53.733705699999994;86.83333834
3.45349685898682;0.7690101122341241;3.45349685898682;0.0367084735393086;0.01723530387698641;0.037728153359845;3.4549392750919505;0.7678280743909529;0.5895599518229186;3.4549392750919505;1.8320639753728747;-0.9676761496889976;0.0002961199274893187;0.040787192821454044;-0.0275313551544814;0.00019412075302756006;0.0326297542571633;0.0;53.73346208;86.83305376
3.239585435201976;0.7481111731139918;3.45349685898682;0.0275313551544814;0.021805418455509044;0.037728153359845;3.2434998677191382;0.7464785361400987;0.5572302049178647;3.4549392750919505;1.8320639753728747;-0.9676761496889976;0.00026180827858782136;0.040787192821454044;-0.0275313551544814;0.00018330738488890578;0.0326297542571633;30.0;53.73317433999999;86.83282234
1.6148608037342815;0.7181346813872576;3.45349685898682;0.037728153359845;0.024929034154809994;0.037728153359845;1.6228752997190758;0.7160056331153611;0.5126640666529292;3.4549392750919505;1.8320639753728747;-0.9758335882532884;0.00018320341019529735;0.0326297542571633;-0.0275313551544814;0.00016708733268092505;0.0326297542571633;0.0;53.732860259999995;86.83266698
2.6076696334736047;0.5929578590433762;3.239585435201976;-0.0142755174875089;0.02492903415480999;0.037728153359845;2.6102022480703186;0.5909880117666103;0.3492668300518511;3.2434998677191382;1.6206245680000624;-0.9758335882532884;0.00017368972572715392;0.0326297542571633;-0.0275313551544814;0.00011468408708590816;0.029570714795554197;0.0;53.73250786;86.83256546
2.565925699282856;0.524847762592364;3.022211360266902;-0.0071377587437544;0.03578044721353346;0.037728153359845;2.5693487660955623;0.5362999018506388;0.28761758472500476;3.0716193127577767;1.4487440130387008;-0.945243193637198;0.00033162728536768654;0.047924951565208374;-0.0275313551544814;7.2470361467701e-05;0.022432956051799798;0.0;53.73213948;86.83251451999999
2.232702827602304;0.49393509057162743;3.516592309487652;0.0367084735393086;0.03278393521476681;0.0367084735393086;2.2410627873457396;0.5190263749154735;0.2693883778578977;3.576588538623253;1.3355257512775136;-0.945243193637198;0.0003702018967084615;0.047924951565208374;-0.0387478331803813;5.957749945622933e-05;0.020393596410726994;0.0;53.731760179999995;86.83247825999999
3.022211360266902;0.6128497572067224;3.516592309487652;-0.0458855919241358;0.033053987365802354;0.0367084735393086;3.0716193127577767;0.621232797331012;0.3859301884797143;3.576588538623253;1.5165796843327066;-0.945243193637198;0.0009545396749703488;0.08055470582237179;-0.0356887937187723;8.765066673927301e-05;0.023452635872335995;0.0;53.73139598;86.83244174
3.516592309487652;0.890289666037817;3.516592309487652;-0.0397675130009177;0.034364874077659445;0.0367084735393086;3.576588538623253;0.8791019848031855;0.7728202996849001;3.576588538623253;2.240220073828927;-0.945243193637198;0.0009614539920974687;0.08055470582237179;-0.0214132762312633;0.00020659771626446748;0.037728153359845;0.0;53.73102628;86.8323946
1.9920680789845395;0.8964774689379259;3.516592309487652;-0.023452635872336;0.020008861983238826;0.0056082390129499;2.0600088542905466;0.885102471918373;0.7834063857960142;3.576588538623253;2.240220073828927;-0.945243193637198;0.0009669646508604369;0.08055470582237179;-0.0214132762312633;0.00021314812196384487;0.037728153359845;0.0;53.730666199999995;86.83233148
1.2414898666806191;1.3014979630090544;3.516592309487652;0.0056082390129499;0.017288009048782256;0.0056082390129499;1.3363684647943264;1.073063755754007;1.1514658239128952;3.576588538623253;2.6050537801153313;-0.9615580707657796;0.0007317738938447144;0.06423982869379019;-0.003059039461609;0.00048576976869029505;0.056082390129499296;0.0;53.73030122;86.8322481
2.758595945073409;1.4033932677516374;2.758595945073409;-0.0295707147955541;0.0141125308031249;0.0056082390129499;2.8659357095596825;0.7797210778521034;0.6079649592468459;2.8659357095596825;1.8944009510517608;-0.9880697460997246;0.0003033981560441893;0.03772815335984514;0.0132558376669725;0.000603885020666359;0.061180789232180996;0.0;53.72993914;86.83215226
0.1710173627992118;1.7167159410683883;2.758595945073409;-0.0132558376669725;0.014628052485309791;0.0056082390129499;0.9715347585079217;0.7693331087221684;0.5918734321761159;2.8659357095596825;1.8944009510517608;-0.9880697460997246;0.0011834399630208125;0.08463342510451743;0.0305903946160905;0.0009282860648259777;0.078515346181299;30.0;53.729570579999994;86.83206018000001
-0.7574374253147115;1.6521916410640374;2.758595945073409;-0.0254919955134087;0.01163507847504498;-0.0040787192821454;1.1691128078786575;0.7927146041948868;0.6283964437038561;2.8659357095596825;1.8944009510517608;-0.986030386458652;0.0012131767254021093;0.08667278474559004;0.0305903946160905;0.0008581031466183669;0.078515346181299;30.0;53.729201339999996;86.83195718
-1.633455564387976;0.76055395226679;0.1710173627992118;-0.0040787192821454;0.008901051429711367;-0.0040787192821454;1.9658369609079578;0.42528543020435206;0.1808676971441008;1.9658369609079578;0.9943022024000361;-0.986030386458652;0.0011539111500267938;0.08667278474559004;0.0305903946160905;0.00019370485425298465;0.0336494340776995;30.0;53.72883676;86.83185884
-0.2369997387454299;0.7270308444088683;0.0599796456216378;-0.0050983991026817;0.00984928368801313;-0.0040787192821454;1.1531476752624323;0.4608060448937111;0.21234221101058487;1.9658369609079578;1.1259856928064191;-0.9737942286122158;0.0014814314349956388;0.09890894259202632;0.0305903946160905;0.00017727685265772175;0.0316100744366268;30.0;53.7284715;86.8317547
-1.401241751796618;0.9208015092653402;0.46141924246019;-0.0173345569491179;0.01986413759434902;-0.0040787192821454;1.7248386129756461;0.5003593843140894;0.2503595134711747;1.9658369609079578;1.1259856928064191;-0.9737942286122158;0.0014767525737817992;0.09890894259202632;0.0305903946160905;0.00027989987528129423;0.038747833180381205;30.0;53.72810286;86.83163182000001
0.0599796456216378;1.1227388712551638;0.46141924246019;-0.0224329560517997;0.025379582878869388;0.0163148771285816;0.8398512681015387;0.6379410644670279;0.40696880173332467;2.3564518133204686;1.51660054521893;-0.9737942286122158;0.00026534341817160446;0.03772815335984514;0.0397675130009177;0.0003912567721707029;0.0479249515652084;30.0;53.72771444;86.8314738
0.46141924246019;1.1050515080021168;0.46141924246019;-0.0530233506678902;0.02853828613090142;0.0163148771285816;0.9174380596663363;0.7511200318952888;0.5641813023143796;2.3564518133204686;1.8348916659013088;-0.9737942286122158;0.00023966166884230525;0.03772815335984514;0.0397675130009177;0.0003787798089337942;0.0479249515652084;30.0;53.72732614;86.8312903
-2.253372511833577;1.0381323558739544;0.46141924246019;0.0163148771285816;0.028609243057816054;0.0163148771285816;2.3564518133204686;0.7377426787103645;0.544264259990744;2.3564518133204686;1.8348916659013088;-0.9737942286122158;0.0002401295549636891;0.03772815335984514;0.0397675130009177;0.0003355263363791787;0.0479249515652084;30.0;53.72694154;86.83107978
-0.4648238808646183;0.9781583660671447;0.46141924246019;0.0132558376669725;0.02840133224456439;0.0163148771285816;0.5215601474191598;0.7593985959063942;0.5766862274646031;2.3564518133204686;1.8348916659013088;-0.9987763842153564;0.00026414770919474834;0.04231671255225866;0.0397675130009177;0.0002980954466684529;0.0479249515652084;0.0;53.72656145999999;86.83084818
-0.6434117679283767;0.9289521405486112;-0.4648238808646183;-0.0040787192821454;0.015921378806388678;0.0163148771285816;0.6889467912284385;0.937539746423434;0.878980776123717;2.3564518133204686;1.8348916659013088;-0.9987763842153564;0.0010272699731721747;0.07698582645049445;0.0428265524625267;0.0002928967119864072;0.034669113898235904;0.0;53.72618582;86.8306159
-0.617148208682981;0.7445517924525874;-0.4648238808646183;-0.020393596410727;0.022941662956513335;0.0372183134495768;0.629967613410906;0.7306541354232625;0.5338554656111152;2.285695209203288;1.7641350617841283;-0.9987763842153564;0.0010938657644491722;0.07698582645049445;0.0428265524625267;0.00020373841218933206;0.034669113898235904;0.0;53.725836300000005;86.83039438
-2.279618247670728;0.7811010574512486;-0.2730743617578868;-0.0122361578464362;0.02366777687047034;0.0372183134495768;2.285695209203288;0.7573179554714208;0.5735304856794128;2.285695209203288;1.9125007623701287;-0.962577750586316;0.0018777309798079433;0.11318446007953487;0.0428265524625267;0.00022320767357359187;0.0382379932701132;30.0;53.725486079999996;86.83021312000001
-0.8436563393301503;1.6185491566588963;2.1868428771792585;0.0372183134495768;0.03673961721148194;0.0372183134495768;0.8590365154504086;0.9059112890555855;0.8206752636383525;2.285695209203288;1.9125007623701287;-0.962577750586316;0.0017949151363229657;0.11318446007953487;0.0428265524625267;0.0008651474321125356;0.081574385642908;30.0;53.725128319999996;86.83009088
-0.2730743617578868;1.7111126179303648;2.1868428771792585;-0.0183542367696543;0.042608099445023494;0.0372183134495768;0.37319444683315933;0.8530028347278786;0.7276138360537966;2.285695209203288;1.9125007623701287;-0.962577750586316;0.001643527982381803;0.11318446007953487;0.0428265524625267;0.0009670426318806219;0.081574385642908;0.0;53.724682900000005;86.83004994
2.1868428771792585;1.1874240756063879;2.1868428771792585;-0.0662791883348628;0.04538949842361887;0.0372183134495768;2.2018109638132284;0.6748483231492862;0.4554202592574034;2.2018109638132284;1.828616516980069;-0.962577750586316;0.0006422516826198854;0.0672988681553992;0.014785357397777;0.00043947503634667474;0.0535331905781583;0.0;53.72423614;86.83005374
0.9782898363590404;0.8806687549547387;2.1868428771792585;0.0336494340776996;0.04136055650585228;0.0336494340776996;1.0120353297097144;0.6664700635907386;0.4441823456626431;2.2018109638132284;1.828616516980069;-0.962577750586316;0.0006459947715909588;0.0672988681553992;0.0045885591924135;0.0002402335296572942;0.0433363923727948;0.0;53.7237887;86.83011318
0.9638098166328096;0.7559026966424518;2.621321643114243;0.0326297542571632;0.04103118618116619;0.0336494340776996;0.9783985078841015;0.75534049453535;0.5705392626849071;2.648013522043198;1.6696150141590966;-0.979912307535434;0.0003313673486335833;0.0499643112062812;-0.0173345569491179;0.0001645919400335393;0.0275313551544815;30.0;53.72334558;86.83018718
1.2730137897389175;0.977705434108153;3.025056431535367;-0.0050983991026817;0.01640385647165505;0.0336494340776996;1.2947119422530662;0.9790885220837777;0.958614334076196;3.0506595914176446;2.072261083533543;-0.979912307535434;0.00044781900551139474;0.0499643112062812;-0.0173345569491179;0.00027002227938541733;0.034669113898236;30.0;53.72291024;86.83025871999999
2.621321643114243;1.0048427119221335;3.090658472973735;0.0112164780258998;0.013699427799066296;0.0326297542571632;2.648013522043198;1.0086629683564763;1.017400983733698;3.1137129395501937;2.1353144316660924;-0.9442235138166616;0.0010504563298540715;0.08565310492505362;-0.0173345569491179;0.0002700222793854181;0.034669113898236;30.0;53.722568079999995;86.83030056
3.025056431535367;0.7635668307329926;3.090658472973735;0.0112164780258998;0.028492707978501786;0.0112164780258998;3.0506595914176446;0.7637623116159967;0.5833328686450109;3.1137129395501937;1.8190009972971275;-0.9442235138166616;0.0005908881839612678;0.06525950851432649;-0.0224329560517997;0.00016043295228790558;0.029570714795554197;0.0;53.7222356;86.83033672
3.090658472973735;0.2244266216215375;3.090658472973735;0.0061180789232181;0.028532820596784317;0.0112164780258998;3.1137129395501937;0.22755257751410612;0.05178017553331327;3.1137129395501937;0.4684159983635121;-0.9442235138166616;0.0007139942212321005;0.07341694707861735;-0.0448659121035994;1.070939344500394e-05;0.0071377587437544965;0.0;53.72190676;86.83033556000001
2.9864891889554053;0.8590029436006869;3.090658472973735;-0.0560823901294993;0.03399221632126049;0.0112164780258998;3.0033535938789435;0.8673227683188005;0.7522487844441876;3.1137129395501937;2.0566417295553805;-0.9442235138166616;0.0007280308048736247;0.07341694707861735;-0.0183542367696543;0.00021075670401010313;0.033649434077699596;0.0;53.72158746;86.83028762000001
2.63900792755032;1.1517001788734769;4.254298580521719;-0.003059039461609;0.031067621104109558;0.0061180789232181;2.6452969411866816;1.1529301953949815;1.3292480354535101;4.254851724371259;3.197780514376446;-0.9442235138166616;0.0008877359343060521;0.07341694707861735;-0.0183542367696543;0.0003628716808067477;0.0530233506678903;0.0;53.72128678;86.83018150000001
1.0548301820302797;1.1913668604820002;4.254298580521719;-0.0571020699500356;0.03311526979854787;0.0142755174875089;1.0570712099948132;1.1909712435760862;1.418412503025169;4.254851724371259;3.197780514376446;-0.9595187111247068;0.00044417989123396006;0.05812174977057216;-0.0183542367696543;0.0003992628235810644;0.0530233506678903;0.0;53.7210026;86.83000996000001
4.254298580521719;1.1911924821280993;4.254298580521719;-0.0040787192821454;0.030325833298588782;0.0193739165901906;4.254851724371259;1.1906087527317837;1.4175492020815335;4.254851724371259;3.197780514376446;-0.9595187111247068;0.0004769319197308421;0.05812174977057216;-0.0183542367696543;0.0003984310260319371;0.0530233506678903;0.0;53.720731;86.8297998
3.5031750864873485;1.2224230905875837;4.254298580521719;0.0142755174875089;0.030920014683504155;0.0193739165901906;3.5052424218117983;1.2201770908267506;1.4888321329784324;4.254851724371259;3.197780514376446;-0.9595187111247068;0.0003584007689802118;0.04792495156520893;-0.0183542367696543;0.00041881006598555397;0.0530233506678903;30.0;53.72047502;86.82958477999999
2.9777834554823883;0.7625516487152251;4.254298580521719;0.0193739165901906;0.010130302198037873;0.0193739165901906;2.9866744745014255;0.7544974916595975;0.5692664649206244;4.254851724371259;1.9745962725235353;-0.9595187111247068;0.00036214385795128325;0.04792495156520893;-0.0397675130009177;0.00015388254658853023;0.0316100744366269;0.0;53.72022176;86.82939808
2.2604452363436134;0.5040155281321242;3.5031750864873485;0.0071377587437544;0.014140132102334023;0.0193739165901906;2.280255451847724;0.5059448781391984;0.2559802197152883;3.5052424218117983;1.2249869699640743;-0.9768532680738248;0.00018954586650738126;0.03059039461609092;-0.0397675130009177;7.413395656595563e-05;0.021413276231263302;0.0;53.719954740000006;86.82926418
2.749036921324618;0.43810642766767166;3.393950781809852;-0.0020393596410727;0.020609139320289273;0.037728153359845;2.7660576231233196;0.4278537554885834;0.18305883608568452;3.442477787301424;1.1622223354536998;-0.9584990313041704;0.0003059975233851959;0.04894463138574534;-0.0397675130009177;5.437876477418333e-05;0.0183542367696543;0.0;53.7196718;86.82919628
3.393950781809852;0.5211068089048041;3.4045289080057657;-0.0163148771285816;0.032859963381914985;0.0652595085143265;3.442477787301424;0.5553506118128381;0.3084143020408936;3.605138129379656;1.324882677531932;-0.9584990313041704;0.0003127558784718549;0.04894463138574534;-0.0397675130009177;7.69412732942599e-05;0.0183542367696543;30.0;53.71938534000001;86.82916582
2.495558214780583;0.5750131348008188;3.4045289080057657;0.037728153359845;0.033096425751233755;0.0652595085143265;2.6679494191654345;0.5016993439165336;0.25170223168628025;3.605138129379656;1.134572488797398;-0.9584990313041704;0.0008746351229073028;0.07749566636076288;-0.037728153359845;8.713079327106845e-05;0.020393596410727;30.0;53.71908382;86.82916126
3.4045289080057657;2.822770872734829;3.4045289080057657;0.0652595085143265;0.036011447713694876;0.0652595085143265;3.605138129379656;0.5532433753642152;0.30607823238438997;3.6386022476128805;1.1680366070306225;-0.9584990313041704;0.0010015882238428521;0.07749566636076288;0.0591414295911083;0.002422818311220342;0.11726317936168029;30.0;53.718770340000006;86.82917546
2.084256804575864;3.135841136435691;3.4045289080057657;0.037728153359845;0.029016117620336845;0.0652595085143265;2.470565640582258;0.5320116601469131;0.28303640653227463;3.6386022476128805;1.1680366070306225;-0.9584990313041704;0.0011101378040039621;0.07749566636076288;0.0591414295911083;0.003011834950696063;0.11726317936168029;30.0;53.718468040000005;86.8291906
-3.335725971233289;2.988170845948157;3.4045289080057657;-0.014785357397777;0.0289811589697725;0.0652595085143265;3.6386022476128805;0.6932737692990484;0.4806285191981102;3.6386022476128805;1.5742505537494655;-0.974813908432752;0.000558084168117583;0.06118078923218129;0.0591414295911083;0.0027535618116920546;0.11726317936168029;30.0;53.71816734;86.82920734
-2.620468391650775;2.1092814399847644;2.084256804575864;0.0346691138982359;0.021683485989207725;0.037728153359845;3.0238690597882476;0.8676065729469974;0.7527411654208336;3.6386022476128805;2.2569512170405677;-1.0003059039461608;0.0002254171358135091;0.03568879371877243;0.0591414295911083;0.001426324847365908;0.0968695829509533;30.0;53.71786872;86.82924152
-1.6344208884590554;0.9969579631295512;-0.6993819316973039;0.0244723156928724;0.019878526685402388;0.0346691138982359;2.064351693863415;0.8717401019816554;0.759930805402987;3.6386022476128805;2.2569512170405677;-1.0003059039461608;0.00010072548446465178;0.023962475782604242;0.0591414295911083;0.00031837051192842793;0.0469052717446721;30.0;53.71758726;86.82928774
-0.6993819316973039;0.9903971395424259;-0.6993819316973039;0.0081574385642908;0.014209815447451642;0.0346691138982359;1.381651030572313;0.7894631417295594;0.6232520521495065;3.3774105190238854;1.9957594884515724;-1.0003059039461608;0.00010873153587499934;0.023962475782604242;0.058121749770572;0.00030724521970885185;0.0458855919241358;30.0;53.71732206;86.8293451
-2.126408604755868;1.0196577250418386;-0.6993819316973039;-0.0020393596410727;0.0241472582695881;0.061180789232181;2.3292639484481388;0.8787239330693835;0.7721557505489264;3.3774105190238854;2.2231603678675267;-0.974813908432752;0.00022723669295221998;0.04129703273172225;0.058121749770572;0.0003247129682405248;0.0458855919241358;30.0;53.717059240000005;86.82941507999999
-3.3147644677548027;1.0168346383938467;-0.6993819316973039;0.0173345569491179;0.025084952579479843;0.061180789232181;3.3774105190238854;0.8864822614192442;0.7858507998109773;3.3774105190238854;2.2231603678675267;-0.974813908432752;0.0005786711574584807;0.06627918833486313;0.058121749770572;0.00032304937314227023;0.0458855919241358;30.0;53.71679884;86.82950796
-1.0765456972857868;1.0302715983236557;-1.0765456972857868;0.061180789232181;0.028792190475872597;0.061180789232181;1.154250151156359;1.0118931158592348;1.0239276779233109;3.5080844889586627;2.3538343378023034;-0.974813908432752;0.0035959647795707097;0.15703069236259826;0.0693382277964719;0.0004162106986445197;0.0509839910268176;30.0;53.716539620000006;86.82961226
-1.7940523194403717;1.3509817882348414;-0.4462931452893847;0.0367084735393086;0.030105604203665492;0.061180789232181;1.798939892548137;1.276773309276954;1.6301500832820246;3.5080844889586627;2.7942992745697905;-0.974813908432752;0.0035198553038255664;0.15703069236259826;0.0693382277964719;0.0006725083184693503;0.06118078923218111;30.0;53.7162789;86.82974066
-3.5055156824061893;1.3600888783658687;-0.4462931452893847;-0.0091771183848271;0.0412031406299166;0.061180789232181;3.5080844889586627;1.3176766104190634;1.736271649645472;3.5369061134987394;2.8231208991098673;-0.9737942286122158;0.004231458107103917;0.15805037218313445;0.0693382277964719;0.0006621108491052593;0.06118078923218111;30.0;53.716019419999995;86.82987542
-0.4462931452893847;1.2504093632384348;-0.4462931452893847;-0.0081574385642908;0.037861578166092695;0.0367084735393086;0.7137852143888721;1.2075139280956606;1.4580898865450123;3.5369061134987394;2.8231208991098673;-0.9737942286122158;0.0032785300398850267;0.15805037218313445;0.0693382277964719;0.0005521056232331818;0.06118078923218111;30.0;53.7157458;86.83002676
-3.3526762698152024;1.2411494677530313;-0.4462931452893847;-0.0428265524625267;0.022975628818704186;-0.0081574385642908;3.5369061134987394;1.1503873845991315;1.3233911346448302;3.5369061134987394;2.8231208991098673;-0.9697155093300704;0.004377542551669378;0.16212909146527976;0.0693382277964719;0.0005544970411869227;0.06118078923218111;30.0;53.71548316;86.83016860000001
-2.336485166812486;1.163963377004066;-0.4462931452893847;-0.0622004690527174;0.019605979761042846;-0.0081574385642908;2.7565226397075535;1.0525680825564965;1.1078995684166597;3.5369061134987394;2.8231208991098673;-0.9697155093300704;0.001111281525633994;0.07749566636076266;0.0571020699500356;0.0003919326076793694;0.0489446313857448;30.0;53.71519598;86.8303115
-1.8961097542498289;1.0161148439350418;-0.8612991138353611;-0.0316100744366268;0.012341917443571038;-0.0316100744366268;2.5054759553369332;0.6058169157182073;0.3670141353703215;3.5369061134987394;1.6051004272202722;-0.9697155093300704;0.0006683493307237345;0.05302335066788988;0.0571020699500356;0.00029679576299794166;0.0418068726419904;0.0;53.714892000000006;86.83044272
-0.8612991138353611;1.0151478030097973;0.2861387853093151;-0.0397675130009177;0.01582311796983441;-0.0193739165901906;1.9318056862784672;0.3106744786436888;0.09651863168052786;2.7565226397075535;0.8247169534290864;-0.9697155093300704;0.0004961672380544028;0.05302335066788988;0.0418068726419904;0.0003189943600902755;0.0469052717446721;0.0;53.714569819999994;86.83057621999998
-1.033782709472956;0.9803372008496682;0.4597487873225316;-0.0326297542571632;0.009646623803622063;-0.0193739165901906;2.2678161088223203;0.2177114838331756;0.047398290192843084;2.5054759553369332;0.5736702690584661;-0.9697155093300704;0.000458320449569115;0.0509839910268175;0.032119914346895;0.0002858784201656481;0.040277352911185796;0.0;53.71424862;86.83069534
0.2861387853093151;1.7281109806273367;3.278484117210635;-0.0193739165901906;0.022439907337217315;-0.0193739165901906;2.2242062591841125;0.8650729832936974;0.7483512664246578;4.102530458241102;2.1707247719626346;-1.011522381972061;1.0709393445028488e-05;0.009177118384827043;0.0183542367696543;0.0009392034076582741;0.0764759865402263;0.0;53.71392416;86.83081632
0.4597487873225316;1.7644564755127456;3.278484117210635;-0.0448659121035994;0.022537000209340585;-0.0193739165901906;2.403148738364111;0.8852039429403533;0.7835860205971482;4.102530458241102;1.8783241990569892;-1.009483022330988;1.9443267710864053e-05;0.011216478025899868;0.0183542367696543;0.0009760104492071563;0.0764759865402263;0.0;53.7136219;86.83092878
3.278484117210635;1.5807878386526013;3.66346694341269;-0.0795350260018354;0.022004775579080354;-0.0193739165901906;4.102530458241102;1.0631213324672837;1.1302269675470127;4.656853112618592;2.432646853434479;-0.986030386458652;0.0001785245489814467;0.034669113898235904;-0.0050983991026817;0.0007597430864340772;0.058121749770571995;0.0;53.71333440000001;86.83103552
2.543031284504918;1.2470599561573184;3.66346694341269;-0.037728153359845;0.016992284256120174;-0.037728153359845;3.6684878224716058;0.8409194045331614;0.7071454449204067;4.656853112618592;2.2537043742544807;-0.986030386458652;0.00024090936516598952;0.04282655246252676;-0.0081574385642908;0.00047433255238979504;0.0550627103089629;0.0;53.71306382;86.83113358
3.66346694341269;1.6906108845332422;3.66346694341269;-0.0520036708473539;0.018149155061720715;-0.037728153359845;4.656853112618592;0.7085287017770593;0.502012921241885;4.656853112618592;1.9200553671554603;-0.986030386458652;0.000232175490900154;0.04282655246252676;0.0101967982053635;0.0008804577057511668;0.07341694707861719;0.0;53.7127928;86.83122608
2.834801929698664;1.8800431134128768;3.66346694341269;-0.0397675130009177;0.013450500620243517;-0.0367084735393086;4.000174852586718;0.8802839374531383;0.7748998105380007;4.656853112618592;2.1069930961018812;-0.974813908432752;0.00045301774019343736;0.054043030488426846;0.0101967982053635;0.0010854958016110275;0.07341694707861719;0.0;53.71253014;86.83131158
-0.5779859887034464;2.3560405188696696;3.66346694341269;-0.0683185479759355;0.02105089414484652;-0.0112164780258998;2.7367977454631314;0.8907353210389358;0.7934094121463361;4.656853112618592;2.1069930961018812;-0.974813908432752;0.0005227847596264837;0.054043030488426846;0.0336494340776996;0.001717973863028648;0.0968695829509533;0.0;53.7122767;86.83139606
-0.0598903534433531;1.8508339433944938;2.834801929698664;-0.0367084735393086;0.02170744829731441;-0.0112164780258998;2.5498600165167105;0.5811547569316787;0.33774085150431854;4.000174852586718;1.4503148360700076;-0.974813908432752;0.0005183138477999229;0.05506271030896326;0.0336494340776996;0.0011028595754490555;0.0846334251045171;0.0;53.71202512;86.83147216
-1.888074092330781;0.7469168252258456;-0.0598903534433531;-0.0112164780258998;0.022344719261239838;-0.0112164780258998;3.131127836806346;0.213013326910796;0.04537467744160564;3.131127836806346;0.5812678202896358;-0.974813908432752;0.00044532361286400853;0.05506271030896326;0.0336494340776996;0.00017831659959413298;0.0326297542571633;0.0;53.7117659;86.83154574
-1.4176165643258851;0.707565721276957;-0.0598903534433531;-0.0214132762312633;0.01987721901663903;-0.0112164780258998;2.7418772616348415;0.29393780988718027;0.08639943608127214;3.131127836806346;0.7973768483635788;-0.974813908432752;0.00044761105612410834;0.05506271030896326;0.0336494340776996;0.00016012102820697475;0.0326297542571633;0.0;53.71150795999999;86.83161036
-1.4950012474758767;0.7750421631569537;0.11329502744835;-0.0214132762312633;0.022773356623054724;-0.0112164780258998;2.7360983429676313;0.42557336565589754;0.18111268955568827;3.131127836806346;1.108231053387096;-1.006423982869379;9.950378181435737e-05;0.023452635872336147;0.0336494340776996;0.00019162536038016837;0.0356887937187723;30.0;53.71123662;86.83165646
-0.8690316301212366;0.8893059254661969;0.4590241066201889;-0.0622004690527174;0.018994530447840427;-0.0214132762312633;2.3337509884427674;0.41812153920497613;0.1748256215471384;2.7418772616348415;0.9318994893771764;-1.006423982869379;0.00010106340221897088;0.023452635872336147;0.0265116753339451;0.00025130683453004774;0.0346691138982359;0.0;53.71093854000001;86.83167582000002
0.11329502744835;1.3724470301813396;2.082688914561457;-0.0550627103089629;0.016528173241612928;-0.0214132762312633;2.02289678341925;0.3878362335220269;0.15041694403255218;2.7360983429676313;0.9261205707099662;-0.9946976649332108;0.00017280594083119477;0.03517895380850444;0.0265116753339451;0.0005784112207243338;0.06271030896298549;0.0;53.71064004;86.83167427999999
0.4590241066201889;1.1864355523813042;2.082688914561457;-0.0336494340776996;0.01345098374736496;-0.0336494340776996;1.809977772257665;0.3052099907304893;0.09315313844170536;2.6057010003169148;0.7957232280592497;-0.9946976649332108;0.00018252757468661935;0.03517895380850444;0.0152951973080452;0.00042962343412420107;0.051493830937085594;0.0;53.71034211999999;86.83163748
2.082688914561457;0.8247372870642912;2.082688914561457;-0.0374732334047108;0.011565052811479754;-0.0336494340776996;2.6057010003169148;0.31561581729629895;0.09961334412761078;2.6057010003169148;0.7957232280592497;-0.9946976649332108;0.0002230777052065719;0.03517895380850444;-0.0020393596410727;0.00020711758973266756;0.0341592739879677;0.0;53.710056980000005;86.8315725
1.6252631866536806;0.6183408952419556;2.082688914561457;-0.061180789232181;0.025954557273486896;0.0081574385642908;2.100625614276096;0.4358992440716205;0.1900081509822102;2.6057010003169148;1.1861779689551348;-0.9941878250229428;0.00020670169095812776;0.03262975425716319;-0.0081574385642908;0.00011587979606277469;0.0280411950647496;0.0;53.709783040000005;86.831488
1.4206644398728676;1.117955638516836;3.8746042266667526;-0.0469052717446721;0.03163986958271682;0.0081574385642908;1.8666913449010787;1.0001893296731073;1.0003786951919398;4.019831554437295;2.6003085230755154;-0.9941878250229428;0.0002450683529116218;0.03262975425716319;-0.0173345569491179;0.0004059691913209018;0.05200367084735401;0.0;53.7095371;86.8313803
0.9988685011237474;1.5690861899445097;4.443913629368006;0.0081574385642908;0.03166265933375776;0.0081574385642908;1.41952303136178;1.3941015490299593;1.9435191290077318;4.538042737939104;3.1185197065773247;-0.9839910268175792;0.00034332443840227487;0.04282655246252676;-0.0173345569491179;0.0007468502244226084;0.05914142959110841;0.0;53.70930638;86.83126222000001
3.8746042266667526;1.5126749788243197;4.443913629368006;0.0061180789232181;0.022530078880352217;0.0081574385642908;4.019831554437295;1.364181612780017;1.8609914726470882;4.538042737939104;3.1185197065773247;-0.9839910268175792;0.0004000946211302068;0.04282655246252676;-0.0173345569491179;0.0006953827510703607;0.05914142959110841;0.0;53.70910146;86.8311597
4.443913629368006;1.3708703318752236;4.443913629368006;-0.0091771183848271;0.017901117445602806;0.0265116753339451;4.538042737939104;1.2526682628055235;1.569177776640208;4.538042737939104;3.1185197065773247;-0.9839910268175792;0.0002679427855126114;0.03976751300091774;-0.0173345569491179;0.0005760198027706024;0.05914142959110841;0.0;53.7089111;86.83107174
2.1817402553181946;0.966068518383757;4.45055865954777;-0.020393596410727;0.020902192772029395;0.0265116753339451;2.388620257300171;0.919259181356032;0.8450374425073622;4.540853741784425;2.1522334844842543;-0.9839910268175792;0.00029996699115401187;0.03976751300091774;-0.037728153359845;0.0002952881299401604;0.040787192821454;0.0;53.7087279;86.83099605999999
3.1392740842620324;1.194373526960774;4.45055865954777;0.0265116753339451;0.02027855797017565;0.0265116753339451;3.294232114859345;1.1464396122739369;1.3143237845908147;4.540853741784425;2.4172388999225998;-0.9839910268175792;0.0002294721488654783;0.033649434077699714;-0.0346691138982359;0.0004296234341242083;0.04384623228306311;0.0;53.708550679999995;86.83096732
4.45055865954777;1.1600213824760572;4.45055865954777;-0.0244723156928724;0.020342548529886737;0.0265116753339451;4.540853741784425;1.1177624849861025;1.249392972842307;4.540853741784425;2.7887008640238715;-0.9850107066381156;0.00020618181748991853;0.0326297542571633;-0.0275313551544814;0.00041465107823991746;0.0509839910268176;0.0;53.70836564;86.83098196
1.9510403872680149;1.2665813879349177;4.45055865954777;-0.0132558376669725;0.019158044486648162;0.0265116753339451;2.1236148418618255;1.2072139414452843;1.4573655004198582;4.540853741784425;2.7887008640238715;-0.9850107066381156;0.0001837232836634864;0.0326297542571633;-0.0265116753339451;0.000488992984193164;0.052003670847353904;0.0;53.70816962;86.83101122000001
1.5574949023942424;1.3447627426398197;4.45055865954777;-0.0040787192821454;0.015254355586793625;-0.0040787192821454;1.752152877760554;1.2429131306892098;1.5448330504396526;4.540853741784425;2.9904440713845695;-1.0084633425104517;1.902736893629754e-05;0.010196798205363455;-0.0193739165901906;0.0005596957758689783;0.05914142959110841;0.0;53.70796516;86.831073
1.4922631802581412;0.31961971221009383;1.9510403872680149;-0.0101967982053635;0.017328557794430835;0.0020393596410727;1.774247292268849;0.26807316425383654;0.07186322139306442;2.183313821683287;0.632904151283431;-0.9788926277148976;0.0002904013193390507;0.03976751300091752;-0.0193739165901906;3.067253462405417e-05;0.015295197308045298;0.0;53.70775882;86.83115338
1.088616731068076;1.146072809340644;1.730280061785702;-0.0428265524625267;0.01990857936064564;0.0020393596410727;1.5504096703998558;0.23327377375082167;0.05441665351994954;2.183313821683287;0.632904151283431;-0.9788926277148976;0.00026877458306174054;0.03976751300091752;0.0183542367696543;0.0004037337354076166;0.0479249515652084;0.0;53.70754796;86.83124972
1.730280061785702;1.3364421640708857;1.730280061785702;0.0020393596410727;0.022239775575526394;0.0020393596410727;2.183313821683287;0.2320332855936306;0.053839445623375344;2.183313821683287;0.632904151283431;-0.9788926277148976;0.00035018676818256535;0.03976751300091752;0.0183542367696543;0.0005434757236609902;0.0479249515652084;0.0;53.7073366;86.83134043999999
-1.0409764784802773;1.5084882675129145;1.730280061785702;-0.0356887937187723;0.022862213036642456;0.0020393596410727;1.7256374021955643;0.37085057516239944;0.13753014909828248;2.4607989657948064;0.9103892953949506;-0.9788926277148976;0.00029497620585924357;0.03976751300091752;0.0316100744366268;0.0006916396620992762;0.0611807892321809;0.0;53.70712118;86.83144758
-0.8884724243419729;1.331307298869348;1.730280061785702;-0.0499643112062812;0.02910467022820301;0.0061180789232181;1.7917308284328242;0.3343445076335609;0.11178624978472826;2.4607989657948064;0.7541080145371624;-0.9788926277148976;0.00025286645493467807;0.034669113898235904;0.0316100744366268;0.0005316226085859245;0.0611807892321809;0.0;53.70689384;86.83153256
-1.7925685607943895;0.5032007204775836;-0.4611146779423149;-0.0560823901294993;0.025725452863348278;0.0061180789232181;2.4607989657948064;0.32428498983895965;0.10516075463485416;2.4607989657948064;0.7541080145371624;-0.9850107066381156;0.00015180305271572637;0.030590394616090477;0.0316100744366268;7.974859002255455e-05;0.023452635872336;0.0;53.7066509;86.83160194
-0.4611146779423149;0.8733258648774425;0.468400120570587;0.0061180789232181;0.025781974642107987;0.0061180789232181;1.706690951257644;0.34163523503235704;0.11671463381561384;2.4607989657948064;0.8214456992410535;-0.9850107066381156;0.000163032319628942;0.030590394616090477;0.0316100744366268;0.0002365424280330386;0.0397675130009176;0.0;53.70639342;86.83163118000002
-1.3784773768371064;0.8724155013986915;0.468400120570587;-0.0530233506678902;0.02525226318767616;0.0061180789232181;2.109810823532502;0.35061685735356923;0.12293218066049312;2.4607989657948064;0.8214456992410535;-0.9972468644845518;5.125952396497315e-05;0.01835423676965431;0.0316100744366268;0.00023633447864575686;0.0397675130009176;0.0;53.7061324;86.83163128000001
0.468400120570587;1.5926067485903617;2.7049294442662988;-0.0336494340776996;0.0218518598875668;0.0061180789232181;1.639353266553753;0.5732988565489264;0.32867157892030646;3.007993338597982;1.368640072044229;-0.99214846538187;0.00010948535240387934;0.023452635872336147;0.0244723156928724;0.0007727399231391842;0.07137758743754449;0.0;53.705875160000005;86.83159420000001
-0.7513641999764629;1.996597263614709;3.0485747512272288;-0.023452635872336;0.01065797132679037;-0.023452635872336;1.721833477760626;0.7697894353219763;0.5925757747333271;3.340459354609654;1.7011060880559012;-0.9758335882532884;0.0002479796443335618;0.03976751300091774;0.0244723156928724;0.0011960209009513076;0.0764759865402263;30.0;53.70563422;86.83153246
2.7049294442662988;1.8145867730878824;3.385742054323486;-0.0361986336290404;0.005395638444100116;-0.023452635872336;3.007993338597982;0.9196623393967042;0.8457788185046188;3.59654816019356;1.9571948936398071;-0.9758335882532884;0.00015980910412607353;0.034669113898236126;0.0132558376669725;0.0009913987038660094;0.0723972672580808;0.0;53.70541496;86.83146168
3.0485747512272288;1.6869181758007727;3.385742054323486;-0.0346691138982359;0.010058199486617769;-0.0112164780258998;3.340459354609654;0.7213344798587246;0.5203234318330567;3.59654816019356;1.8747146824329342;-0.9758335882532884;0.0001651118135017599;0.034669113898236126;0.0132558376669725;0.0008616382862021618;0.0723972672580808;0.0;53.70521282;86.83138242
3.385742054323486;1.2067712622087938;3.385742054323486;-0.0275313551544814;0.011285787509523025;-0.0112164780258998;3.59654816019356;0.9360019669851971;0.876099682200158;3.59654816019356;2.379380778641666;-0.9758335882532884;0.00028613835689977006;0.04690527174467196;-0.0061180789232181;0.00043492614349989234;0.0530233506678902;0.0;53.7050161;86.83129834000002
2.742788130094443;1.6379312832213277;3.385742054323486;-0.0112164780258998;0.02795671246943523;0.0367084735393086;2.9827363842104484;1.1710199509805392;1.3712877255944644;3.59654816019356;2.4016633565912926;-0.9758335882532884;0.00028613835689977006;0.04690527174467196;0.0020393596410727;0.0008042442553123836;0.061180789232180996;0.0;53.704821679999995;86.83122168
0.3427040286048002;1.6616204504080248;3.385742054323486;-0.0152951973080452;0.025352939791828236;0.0367084735393086;1.217167381551894;1.1808646684340183;1.3944413651557839;3.59654816019356;2.4930906486496003;-0.99214846538187;0.00013641479805687128;0.030590394616090366;0.0020393596410727;0.000841363220942185;0.061180789232180996;0.0;53.70463424;86.83118272
-0.1176906935685725;1.2211537568027906;2.742788130094443;0.0367084735393086;0.022909916051772915;0.0367084735393086;1.1948848036022675;0.8269144919695318;0.683787577029229;2.9827363842104484;1.9373659961437175;-0.99214846538187;0.00014093769723025023;0.030590394616090366;0.0020393596410727;0.0004548892846789424;0.0499643112062812;0.0;53.704455800000005;86.83118859999999
-0.0;0.364882761323031;0.7529164950311856;-0.0193739165901906;0.02416877797644303;0.0367084735393086;1.1034575115439595;0.11292165039137408;0.012751299127111714;1.3394313624422547;0.2940609743755238;-0.99214846538187;0.00013802640580830563;0.030590394616090366;0.0020393596410727;4.1277953375423256e-05;0.015295197308045199;0.0;53.70429036;86.83126892
-0.0585522086355655;0.39534087049281524;0.7529164950311856;-0.0091771183848271;0.02507044122187051;0.0367084735393086;1.0453703880667309;0.12026252134584445;0.014463074040459692;1.3394313624422547;0.2940609743755238;-0.9768532680738248;0.00017311786491210968;0.03161007443662689;0.0020393596410727;4.7516434993877456e-05;0.015295197308045199;0.0;53.7041464;86.83143215999999
0.7529164950311856;0.35153283020902065;0.7529164950311856;-0.0214132762312633;0.005268893925874706;-0.0091771183848271;1.3394313624422547;0.13604773598066353;0.01850898646546433;1.3394313624422547;0.2940609743755238;-0.9768532680738248;0.0001689068898196536;0.03161007443662689;0.0010196798205363;3.763883909799175e-05;0.014275517487508799;0.0;53.704016880000005;86.83174808
0.5381116281194377;0.7562604394514751;0.7529164950311856;-0.0224329560517997;0.00546266757865948;-0.0091771183848271;1.274275656469284;0.21870108793326257;0.04783016586319265;1.5667170054386237;0.5213466173718928;-0.9768532680738248;0.0004249445729103825;0.05710206995003564;0.0214132762312633;0.00018174776448428377;0.0346691138982358;0.0;53.70390972;86.83214267999999
0.1750080808760258;0.7714939943475596;0.7529164950311856;-0.0183542367696543;0.005026514752264959;-0.0183542367696543;1.0483395493035474;0.23298205155456936;0.05428063634657601;1.5667170054386237;0.5770199378500714;-0.9768532680738248;0.00041558685048270197;0.05710206995003564;0.0214132762312633;0.00018970182854781322;0.0346691138982358;0.0;53.70382396;86.83259452
-1.1861751017789293;0.7601490734603215;0.6936455416743251;-0.0214132762312633;0.012425877033704319;-0.0183542367696543;1.5667170054386237;0.24410509163780372;0.05958729576350055;1.5667170054386237;0.5770199378500714;-0.9768532680738248;0.0004171984582341361;0.05710206995003564;0.0214132762312633;0.00018434713182530687;0.0336494340776995;0.0;53.70376226;86.83309602
0.4344956569014341;0.8154305029409542;0.6936455416743251;-0.0316100744366268;0.016671063436449838;-0.0040787192821454;0.9896970675885522;0.24049489291558152;0.05783779351847702;1.5667170054386237;0.5770199378500714;-1.0013255837666972;0.00015640393290933762;0.03262975425716319;0.0214132762312633;0.00021184843829332556;0.0336494340776995;0.0;53.70371719999999;86.83361928
0.6936455416743251;0.7996701085731585;0.6936455416743251;-0.0489446313857448;0.02185304939574043;-0.0040787192821454;1.0176306920852909;0.29627147185195696;0.08777678503332494;1.5667170054386237;0.8064349921382125;-1.0079535026001836;0.00013893618437766454;0.026001835423676845;0.0214132762312633;0.00020373841218933515;0.0336494340776995;0.0;53.7036939;86.83409262
-0.8040920319431434;0.6419257439289802;0.6936455416743251;-0.0040787192821454;0.023403817767626744;-0.0040787192821454;1.0825390394006338;0.12265976063397924;0.015045416878785082;1.0825390394006338;0.32225702610022255;-0.9880697460997246;0.00023251340865448547;0.04180687264199057;0.0142755174875089;0.00012768092379101438;0.0265116753339451;30.0;53.7036752;86.8345808
-0.0566351696027588;0.6036307457938294;0.6936455416743251;-0.0591414295911083;0.028984746412872128;0.0071377587437544;0.7602820133004112;0.12433045313807747;0.01545806157751968;1.0825390394006338;0.32225702610022255;-0.9880697460997246;0.0002305638831487182;0.04180687264199057;0.0142755174875089;0.00011312446668128754;0.0265116753339451;0.0;53.70365842;86.83507602
-0.5912213945669851;0.5150485202697481;0.4657850316626456;-0.0122361578464362;0.02542665225819436;0.0071377587437544;0.9996369711364322;0.12218685336264314;0.014929627134664057;1.0825390394006338;0.32225702610022255;-0.9880697460997246;0.00024272892230470423;0.04180687264199057;0.0142755174875089;8.193205858901617e-05;0.0224329560517997;0.0;53.70363932;86.83554844
-0.5781272024731576;0.44960097250330033;0.4657850316626456;0.0071377587437544;0.027753279634879488;0.0101967982053635;1.0167142830342457;0.1580925120952308;0.024993242380580698;1.0167142830342457;0.3449263462321839;-0.9880697460997246;0.00023009599702733405;0.04180687264199057;0.0101967982053635;6.165699332904007e-05;0.0183542367696543;0.0;53.70361577999999;86.83602154
0.4657850316626456;0.76997669703021;1.2401769871413373;-0.0101967982053635;0.010631109631062086;0.0101967982053635;0.9770258762107209;0.2501815032724345;0.06259078457965514;1.3770803705858568;0.7052924337837949;-0.9880697460997246;0.0001344392788777037;0.02447231569287245;0.0101967982053635;0.00017831659959413485;0.0316100744366268;0.0;53.7035948;86.83648184
0.0576967321722887;0.707415696354862;1.2401769871413373;0.0101967982053635;0.011368401127495561;0.0142755174875089;0.6717879368020618;0.2505211761244373;0.06276085968677134;1.3770803705858568;0.7052924337837949;-0.9890894259202612;9.326530019590341e-05;0.023452635872335925;0.0101967982053635;0.00015232292618390947;0.0316100744366268;0.0;53.70357428;86.83690676
1.2401769871413373;0.44162899422376667;1.2401769871413373;-0.0091771183848271;0.011062468730592767;0.0142755174875089;1.3770803705858568;0.25829892341782396;0.06671833383880688;1.3770803705858568;0.7052924337837949;-0.9890894259202612;8.702681857744994e-05;0.023452635872335925;-0.0010196798205363;5.843377782617377e-05;0.020393596410726997;0.0;53.70355318000001;86.83732086
0.8670891410583436;0.5520422856654111;1.4792155425187157;0.0142755174875089;0.010562426154851399;0.0163148771285816;1.0418243633922535;0.37026885801268894;0.1370990272140208;1.5851355815110515;0.9133476447089897;-0.9870500662791885;0.00013859826662333862;0.02549199551340864;-0.0010196798205363;9.0250034080291e-05;0.0244723156928724;0.0;53.70353116;86.83773404000002
0.6424330629821101;1.1468938911141089;1.4792155425187157;0.0010196798205363;0.010776814594159466;0.0163148771285816;0.8762618823140969;0.3047568969988415;0.0928767662683625;1.5851355815110515;0.7088736991969546;-0.9870500662791885;8.993810999939604e-05;0.023452635872336036;0.0244723156928724;0.00039697538032095717;0.0499643112062811;0.0;53.70351422;86.83814206000001
1.4792155425187157;1.300184782662639;1.4792155425187157;0.0163148771285816;0.019805164269965266;0.0163148771285816;1.5851355815110515;0.29965038545766803;0.08979035350492903;1.5851355815110515;0.7088736991969546;-0.9870500662791885;9.908788303979651e-05;0.02447231569287245;0.0244723156928724;0.0005148826829097406;0.0499643112062811;0.0;53.703498880000005;86.8385568
-1.4028808025807613;1.268259892823716;1.4792155425187157;-0.0010196798205363;0.023718243610016954;0.0163148771285816;1.5020471818108458;0.31536429346951095;0.09945463759552382;1.5851355815110515;0.7088736991969546;-0.9870500662791885;7.725319737520615e-05;0.02447231569287245;0.0244723156928724;0.0004868095156266957;0.0499643112062811;30.0;53.703484200000005;86.83896708
-1.2120834208719118;1.166390936731646;1.4792155425187157;-0.0331395941674313;0.023191832402904167;0.0163148771285816;1.2709207752724452;0.4124467098232784;0.1701122884440476;1.5851355815110515;1.002809003495611;-0.9870500662791885;8.349167899366013e-05;0.02447231569287245;0.0244723156928724;0.00041038811580063116;0.0499643112062811;30.0;53.70346878;86.8393715
-0.8789355073789182;0.45688476195439526;-0.2326029028419554;-0.0387478331803813;0.0146022636253453;-0.0010196798205363;0.9629238149726163;0.3539761281451653;0.12529909929664249;1.5020471818108458;0.9197206037954053;-0.9962271846640156;3.399972482058934e-05;0.015295197308045294;0.0244723156928724;6.415238597642013e-05;0.020393596410727;30.0;53.70345492;86.83977236000001
-0.2326029028419554;0.7351147437207259;0.5213446220422909;-0.0244723156928724;0.01066406682132743;-0.0122361578464362;0.5823265780154405;0.3035238155954847;0.09212670663364178;1.2709207752724452;0.6885941972570047;-0.9962271846640156;3.306395257782012e-05;0.015295197308045294;0.0214132762312633;0.00016708733268091535;0.0305903946160904;0.0;53.703443140000005;86.84015994
-1.1630011934644142;0.6577217922102565;0.5213446220422909;-0.0188640766799225;0.013720283628149067;-0.0020393596410727;1.2571670751141206;0.2515733804158145;0.06328916573384014;1.2571670751141206;0.6748404970986801;-0.9839910268175792;9.48249206005188e-05;0.02447231569287245;0.020393596410727;0.00013251574704531514;0.0295707147955541;0.0;53.70342884;86.84051428000001
0.5213446220422909;3.0364094465897744;0.5213446220422909;-0.0122361578464362;0.009328816568967124;-0.0020393596410727;0.7573442614684824;2.776838910318697;7.710834333859928;7.048413398590656;6.4660868205752156;-0.9839910268175792;0.00010319488343861133;0.02447231569287245;0.1244009381054349;0.00288602557139057;0.133578056490262;0.0;53.70341552;86.84087472
-0.6827656583907147;3.022868200413262;0.5213446220422909;-0.0020393596410727;0.00655298012157005;-0.0020393596410727;0.8589837342194869;2.7828792172444508;7.744416737771087;7.048413398590656;6.509813591868706;-0.9839910268175792;0.00012248218910899928;0.027531355154481685;0.1244009381054349;0.002860135872673985;0.133578056490262;60.0;53.7034101;86.84121746
-7.035737126405839;3.060149619766111;0.5213446220422909;-0.0050983991026817;0.006740692925884812;-0.0020393596410727;7.048413398590656;2.7715111770134153;7.681274204310286;7.048413398590656;6.509813591868706;-0.9839910268175792;0.0002667470765357527;0.04588559192413599;0.1244009381054349;0.002940612285552043;0.133578056490262;60.0;53.70341016;86.84153496
-0.3465315595625028;2.729199889932909;-0.3465315595625028;-0.0081574385642908;0.01067989882555403;0.0101967982053635;0.5385998067219492;2.6485891544375684;7.015024509004314;7.048413398590656;6.509813591868706;-0.9839910268175792;0.00026768284877852066;0.04588559192413599;0.1244009381054349;0.0023368832269261308;0.1182828591822168;60.0;53.703414900000006;86.84182129999999
-3.1729860678933584;2.385306078581068;-0.3465315595625028;-0.0193739165901906;0.01570770346071838;0.020393596410727;3.180341239317399;2.323413576217244;5.398250646150604;7.048413398590656;6.509813591868706;-1.0079535026001836;7.584953901104626e-05;0.02192311614153164;0.1244009381054349;0.0017747960331033989;0.1182828591822168;60.0;53.703427160000004;86.84209467999999
-4.040212871182865;1.4915313922100892;-0.3465315595625028;0.0101967982053635;0.016051457592448085;0.020393596410727;4.041478953275754;1.4091893555857147;1.9858146398960816;4.041478953275754;3.5028791465538047;-0.9656367900479248;0.0005806986639844642;0.06423982869379041;0.0713775874375446;0.0006868048388449729;0.0652595085143265;60.0;53.703457119999996;86.84235504
-3.708212160059849;1.3378055870291503;-3.1729860678933584;0.020393596410727;0.016138668085392407;0.020393596410727;3.7097514612024565;1.344243635645857;1.8069909519743912;6.534916757330096;3.3545755180126973;-0.9656367900479248;0.0006664777862382094;0.06423982869379041;0.1172631793616804;0.0006131387684003912;0.060161109411644806;60.0;53.70349354;86.84257577999999
-3.5045668766205376;1.689042379272403;-3.5045668766205376;0.0101967982053635;0.017886590852732687;0.020393596410727;3.5136840155694964;1.7037860665255113;2.902886960486474;7.112927238221364;3.599243222651868;-0.9656367900479248;0.0005439955971292224;0.061180789232181176;0.1254206179259712;0.0009649371443343902;0.0662791883348629;60.0;53.703544199999996;86.84275955999999
-6.513838265700727;2.031404315422706;-2.422616720931328;0.0193739165901906;0.018060138813185096;0.020393596410727;6.534916757330096;2.0075606277492355;4.030299674088905;7.112927238221364;4.544794430126397;-0.9656367900479248;0.0005897444623312201;0.061180789232181176;0.1254206179259712;0.0013825515013430837;0.0836137452839808;60.0;53.70360158;86.84290398
-7.073314663355474;2.6000635742590927;-1.065657953604057;-0.023452635872336;0.021929043711233297;0.0367084735393086;7.112927238221364;2.4956827444152747;6.228432360772157;7.112927238221364;5.714004648852422;-0.9656367900479248;0.0005606315481117647;0.061180789232181176;0.1254206179259712;0.0022141411010830393;0.10706638115631689;60.0;53.70366326;86.84299126
-2.422616720931328;3.088449120428336;-0.4642444189704847;0.0132558376669725;0.022800733940040604;0.0367084735393086;2.5681328080949672;2.8792142579305127;8.289874743070353;7.112927238221364;6.04077628158938;-0.986030386458652;0.00028613835689977494;0.04078719282145393;0.1254206179259712;0.003071932323620503;0.1172631793616804;60.0;53.703709100000005;86.8430115
-1.065657953604057;2.935216277342054;0.3262005245650111;0.0367084735393086;0.022686443827150925;0.0367084735393086;1.3989225893689432;2.574475150739442;6.6279223017748725;7.112927238221364;6.05439656096049;-0.9850107066381156;0.00014972355884290686;0.02549199551340886;0.1254206179259712;0.002708592756692364;0.1310288569389211;60.0;53.703746980000005;86.84299818
-0.4642444189704847;1.1769187789001578;0.4633973311046943;0.0254919955134087;0.01106246873059283;0.0367084735393086;1.0721509566319845;0.6414286140451724;0.41143066691591074;2.5681328080949672;1.5096021308340928;-0.9850107066381156;0.00013495915234589743;0.023452635872336036;0.0418068726419904;0.00041350735660986086;0.0499643112062812;60.0;53.70376652;86.84296651999999
0.3262005245650111;0.7495478027556207;0.7583264264030414;0.0091771183848271;0.010495770000935512;0.0367084735393086;1.0585306772608745;0.1553231929431343;0.024125294266050125;1.3989225893689432;0.34039191210806874;-0.9850107066381156;0.00012549745522457564;0.023452635872336036;0.0183542367696543;0.00016927080124737705;0.0316100744366268;60.0;53.70377552;86.84293968
0.4633973311046943;1.054626563692927;2.4012994943403774;0.0158050372183134;0.010877646867008931;0.037728153359845;1.13869390801047;0.6689947730493486;0.4475540063673495;2.6259812651150933;1.5674505878542189;-0.9850107066381156;8.806656551385107e-05;0.023452635872336036;0.0081574385642908;0.00033796974167974695;0.0499643112062812;60.0;53.703776059999996;86.84291973999999
0.7583264264030414;0.8506779347827039;2.4012994943403774;0.0183542367696543;0.012249958228387378;0.037728153359845;1.3296704352036202;0.6544566321299417;0.42831348333886576;2.6259812651150933;1.5674505878542189;-0.9850107066381156;7.933269124801477e-05;0.023452635872336036;-0.0056082390129499;0.00021912666684819387;0.0361986336290405;60.0;53.70377836;86.84289644
2.4012994943403774;1.5012047055985767;3.91061779973014;0.037728153359845;0.01148781440935212;0.037728153359845;2.6259812651150933;1.2584830272514098;1.5837795298798725;4.0288404395466;2.8901465315361294;-0.9962271846640156;2.1106862809110468e-05;0.012236157846436058;-0.0081574385642908;0.0006859210539490361;0.06016110941164471;60.0;53.70377936;86.84288719999999
0.5822414357386779;1.704700999270811;3.91061779973014;0.0066279188334862;0.01156224296357732;0.037728153359845;1.1903442771702277;1.27481519144253;1.6251537723326543;4.0288404395466;2.976473881013379;-0.9962271846640156;5.219529620774273e-05;0.018864076679922404;0.0071377587437544;0.0008871120861441849;0.0754563067196899;60.0;53.703781590000006;86.84287407000001
3.91061779973014;1.6935696187652907;3.91061779973014;0.0152951973080452;0.012230845861012704;0.037728153359845;4.0288404395466;1.2780802890240737;1.6334892251918598;4.0288404395466;2.976473881013379;-0.9962271846640156;5.328703049097205e-05;0.018864076679922404;0.0071377587437544;0.0008756748698436854;0.0754563067196899;60.0;53.70378663;86.84285351000001
-0.4028340642012807;1.638816038157143;3.91061779973014;0.014785357397777;0.00765609127035847;0.0275313551544814;1.0523665585332205;1.2816561857911197;1.642642578576641;4.0288404395466;2.976473881013379;-0.9992862241256244;4.158987745637208e-05;0.01580503721831361;0.0071377587437544;0.0008208802062949277;0.0754563067196899;60.0;53.70379657000001;86.84282761
0.8756824335982771;1.6373655689057827;3.91061779973014;0.0275313551544814;0.006154086622619041;0.0275313551544814;1.3066750771358693;1.2491726630968099;1.5604323422283761;4.0288404395466;2.976473881013379;-0.9992862241256244;4.4631137245368906e-05;0.01580503721831361;0.0071377587437544;0.0008208802062949278;0.0754563067196899;60.0;53.70380762;86.84280794
0.5833963556782348;0.8500197550693689;1.882922470736408;0.0122361578464362;0.006128691383792784;0.0275313551544814;1.1324878083425236;0.4349610743413429;0.18919113619217523;2.134457148071257;1.0820905895380364;-1.0003059039461608;3.516944012404781e-05;0.014785357397777199;0.0071377587437544;0.00022432540153023679;0.0402773529111857;60.0;53.70381866;86.84278314000001
1.882922470736408;0.5424398311832334;1.882922470736408;0.0137656775772407;0.006438936953357263;0.0275313551544814;2.134457148071257;0.4125307399878516;0.1701816114349244;2.134457148071257;1.0019693397287333;-1.0003059039461608;1.0657406098201951e-05;0.007647598654022314;-0.0101967982053635;9.144574305716279e-05;0.0229427959620678;60.0;53.70382995;86.84276883
1.2767407597073817;0.5016891833772846;1.882922470736408;0.0158050372183134;0.0017880776911133247;0.0158050372183134;1.5496082505319155;0.38956634427749137;0.15176193659372894;2.134457148071257;1.0019693397287333;-1.0013255837666972;8.110026104001387e-06;0.006627918833485902;-0.0101967982053635;7.803300757748624e-05;0.0229427959620678;60.0;53.70383859;86.84275699
1.6879810519362866;0.28397780465848177;1.882922470736408;0.0122361578464362;0.0017880776911133247;0.0158050372183134;1.896672757034722;0.28030958330870176;0.07857346249469802;2.134457148071257;0.670653649039056;-1.00336494340777;3.1972218294693926e-06;0.0045885591924130775;-0.0214132762312633;2.4901939126984706e-05;0.011726317936168;60.0;53.70384311;86.84275127000001
1.2175664893900215;0.1811807779593882;1.6879810519362866;0.0112164780258998;0.0017661372566214876;0.0158050372183134;1.4638034990322009;0.1644773214392453;0.02705278926782882;1.896672757034722;0.4328692580025211;-1.00336494340777;2.6513546878544654e-06;0.004078719282145649;-0.0214132762312633;9.877595895874022e-06;0.008157438564290801;60.0;53.70384482000001;86.84274786
1.3935386175283608;0.5835358426013434;1.6879810519362866;0.0122361578464362;0.0013294998277152074;0.0122361578464362;1.5900931931905171;0.4192952117617792;0.17580847460635526;1.896672757034722;1.1301101101920743;-1.00336494340777;3.1192408092380652e-06;0.004078719282145649;-0.003059039461609;0.00010470251649637856;0.0265116753339451;60.0;53.703846320000004;86.84274424
1.39565960428323;0.5394076264036242;1.39565960428323;0.0122361578464362;0.007852196719966701;0.0285510349750178;1.5814788841360892;0.3740748423225928;0.13993198765867265;1.5900931931905171;0.8235305463478695;-1.00336494340777;2.3914179537520313e-06;0.004078719282145649;-0.003059039461609;8.973016061208813e-05;0.0214132762312634;60.0;53.70384752;86.84274032
0.1746744073437787;0.64277675712618;1.744150565479256;0.0091771183848271;0.007911558984917192;0.0285510349750178;0.7665626468426476;0.4821300884597238;0.2324494221981811;1.953230021907947;1.1866673750652994;-1.00336494340777;9.87759589599181e-07;0.0025491995513409194;-0.003059039461609;0.00012716105032281407;0.0275313551544815;60.0;53.7038461;86.8427389
0.6389183463128604;0.6172399717944813;1.744150565479256;0.0285510349750178;0.007644198965633213;0.0285510349750178;1.005609047204572;0.4676443426032589;0.21869123116883415;1.953230021907947;1.1866673750652994;-1.00336494340777;7.278228554969056e-07;0.0020393596410728243;-0.003059039461609;0.00011717947973328707;0.0275313551544815;60.0;53.703843889999995;86.84274693
1.744150565479256;0.5802691551635072;1.744150565479256;0.020393596410727;0.0074965540025340015;0.0285510349750178;1.953230021907947;0.44627978226932363;0.1991656440623549;1.953230021907947;1.1866673750652994;-1.00336494340777;2.4745977086547293e-05;0.012236157846436058;-0.003059039461609;0.00010345482017268742;0.0275313551544815;60.0;53.70384057;86.84275897
1.045738359338806;2.509608581024029;6.572522536329418;0.014785357397777;0.006432878676695195;0.0285510349750178;1.350686891993319;2.3889937401203816;5.70729109033437;6.679688364628483;5.67407931742391;-0.9289283165086164;0.0012619408567196575;0.0866727847455897;-0.0112164780258998;0.0016306351203702982;0.09584990313041711;60.0;53.703835389999995;86.84277426999999
0.7477303349654206;2.3893464453224142;6.572522536329418;0.0132558376669725;0.0044825338310050065;0.0244723156928724;1.2678934656650442;2.2797243188191207;5.197142969815303;6.679688364628483;5.411794898963438;-0.9289283165086164;0.0014116644155625611;0.09177118384827154;-0.0132558376669725;0.001493804423538868;0.09381054348934441;60.0;53.70382787;86.84278722999998
6.572522536329418;2.370565400812387;6.572522536329418;0.0244723156928724;0.004482533831005005;0.0244723156928724;6.679688364628483;2.2269182274288086;4.959164791654667;6.679688364628483;5.411794898963438;-0.9289283165086164;0.0014010070094643671;0.09177118384827154;-0.0132558376669725;0.0014694223578800762;0.09381054348934441;60.0;53.703822190000004;86.84279690999999
3.3156221129149186;2.232255607015312;6.572522536329418;0.0178443968593861;0.004341130408362953;0.0244723156928724;3.65872838897335;2.032122790045914;4.129523033823989;6.679688364628483;5.411794898963438;-0.9289283165086164;0.0013907135147939165;0.09177118384827154;-0.0132558376669725;0.001286478884418905;0.09381054348934441;60.0;53.7038166;86.84280668
1.9526275360957333;2.0139283778131056;6.572522536329418;0.014785357397777;0.006229651226310118;0.0244723156928724;2.5581071224901284;1.7471154160781734;3.052412277098009;6.679688364628483;4.121581242138355;-0.9289283165086164;0.0012890262644131112;0.09177118384827154;-0.0316100744366268;0.0010179122507444488;0.07545630671969011;60.0;53.70380676;86.84281732
2.0368318224603783;0.7326066974222725;3.3156221129149186;0.0163148771285816;0.017478662522927433;0.0520036708473539;2.735052359820538;0.48140551380751584;0.23175126872427831;3.65872838897335;1.1832681243962595;-1.001835423676965;0.00020202282974429324;0.03211991434689532;-0.0244723156928724;0.00017150625716066148;0.0346691138982359;60.0;53.703795219999996;86.84284162
1.804407518757752;1.0223654289378141;3.995910007923457;0.0071377587437544;0.022344719261239876;0.0540430304884266;2.649303836124187;0.8711924495652842;0.7589762841795603;4.5403431982522715;2.064882933675181;-0.9911287855613338;0.000257805252882632;0.042826552462526646;-0.0244723156928724;0.0003051137384892253;0.044865912103599505;60.0;53.703780040000005;86.84287764000001
1.3541489192799503;1.2014119421163478;3.995910007923457;0.0520036708473539;0.021249990458408415;0.0540430304884266;2.4754602645770905;0.903631349989305;0.816549616683494;4.5403431982522715;2.2029026631710296;-0.9911287855613338;0.00025910493655314213;0.042826552462526646;-0.014785357397777;0.00042759592759821115;0.05455287039869491;60.0;53.70376238;86.84292654
3.995910007923457;1.4227890724399772;3.995910007923457;0.0540430304884266;0.019008210341906046;0.0540430304884266;4.5403431982522715;1.0722038354834864;1.1496210648254994;4.5403431982522715;2.2029026631710296;-0.9911287855613338;0.00030901278950077286;0.042826552462526646;-0.014785357397777;0.0005979064757820134;0.05455287039869491;60.0;53.70374346;86.84297418000001
0.8452548055859087;1.3917388947776126;3.995910007923457;0.040787192821454;0.005352105015605515;0.0540430304884266;2.337440535081242;1.0156528593070806;1.0315507306186484;4.5403431982522715;2.2029026631710296;-0.9911287855613338;0.0003092727262348749;0.042826552462526646;-0.014785357397777;0.0005719387960451976;0.05455287039869491;60.0;53.70372987;86.84302203000001
3.70464500203067;1.237900481147982;3.995910007923457;0.0448659121035994;0.006830713269590256;0.0576119098603038;4.318169660103002;0.8702629894233865;0.7573576707601294;4.5403431982522715;2.2029026631710296;-0.9911287855613338;4.08880482742815e-05;0.012745997756704153;-0.014785357397777;0.0004579305444679462;0.05455287039869491;60.0;53.70371953;86.84305777
2.587783623508233;1.0986728893434181;3.70464500203067;0.0474151116549403;0.016806940499357045;0.0825940654634444;3.4356518243373255;0.7687468877456615;0.5909717774186407;4.318169660103002;1.9807291250217598;-0.9911287855613338;2.841108503737461e-05;0.012745997756704153;-0.014785357397777;0.0003635735099888245;0.049454471296013096;60.0;53.70371119;86.84307503
2.641778399776127;2.000513643392418;7.413328167985208;0.0576119098603038;0.01713320033798952;0.0825940654634444;3.4929724911097346;1.7964018763947163;3.2270597015144578;7.7601000830643345;4.324448258727009;-0.9911287855613338;2.976275605470682e-05;0.012745997756704153;-0.0453757520138676;0.0012486580896070288;0.08514326501478542;60.0;53.70369734999999;86.84306119
3.327566867862689;2.2439243453785176;7.413328167985208;0.0825940654634444;0.01816704905287707;0.0825940654634444;4.087041776361953;1.9971404450544943;3.988569957272463;7.7601000830643345;4.324448258727009;-0.9901091057407974;3.41296931876247e-05;0.013765677577240565;-0.0453757520138676;0.0015460257134200172;0.08514326501478542;60.0;53.70367753000001;86.84300553
7.413328167985208;2.01018990509265;7.413328167985208;0.0392576730906495;0.0355994599273019;0.0825940654634444;7.7601000830643345;1.7838103934303038;3.181979519709975;7.7601000830643345;4.2671275919545995;-0.9901091057407974;3.0620547277242785e-05;0.013765677577240565;-0.0463954318344039;0.0012434853485983953;0.08412358519424912;60.0;53.70365248;86.8429088
6.283604105049968;1.5432359322419347;7.413328167985208;0.0387478331803813;0.03438604682257565;0.0825940654634444;6.681089194826793;1.4009852818480386;1.9627597599548283;7.7601000830643345;3.673058306702382;-0.9880697460997248;3.867858603440739e-05;0.014275517487508882;-0.058121749770572;0.0007451866293243591;0.07239726725808102;0.0;53.703622700000004;86.84276638
5.588564963637238;1.0396643718874108;7.413328167985208;-0.0142755174875089;0.023650197978901676;0.040787192821454;6.005795693545569;1.0305300731879923;1.0619922317448487;7.7601000830643345;2.5627141365238826;-0.9880697460997248;3.977032031763743e-05;0.014275517487508882;-0.0825940654634444;0.00034888708451205185;0.04792495156520861;0.0;53.70359382;86.84257366
4.774274465402725;0.901655948076299;6.283604105049968;0.040787192821454;0.022891471318232316;0.040787192821454;5.197385946540452;0.9344728859439689;0.8732395745644499;6.681089194826793;2.503738191436419;-0.9880697460997248;0.0004309231177947383;0.05098399102681772;-0.0703579076170082;0.0002169951856285629;0.0387478331803814;30.0;53.7035661;86.84231042
5.167231657863171;0.6704521315954186;5.588564963637238;0.017589476904252;0.021220918806580023;0.040787192821454;5.463793837008171;0.6786464394158214;0.46056098973177206;6.005795693545569;1.8284446901551954;-0.9880697460997248;0.0004129874831416837;0.05098399102681772;-0.0703579076170082;0.00011468408708591227;0.02753135515448149;0.0;53.70354406;86.84201702
3.8717576613194953;0.704443631877057;5.336793643486739;0.0336494340776996;0.01042931092570797;0.040787192821454;4.177351003390374;0.707197207233047;0.5001278899182213;5.523378506958963;1.4505662656808758;-0.9880697460997248;0.00041491101497404025;0.05098399102681772;-0.0672988681553992;0.0001318399115366608;0.02549199551340879;0.0;53.70352864;86.84168928
5.336793643486739;0.776307764275049;5.336793643486739;0.0173345569491179;0.008785682283788045;0.0356887937187723;5.523378506958963;0.7728156847194368;0.597244082548372;5.523378506958963;1.511644356653063;-0.9829713469970428;0.00045936019650552677;0.05608239012949967;-0.0652595085143265;0.00017514537143809716;0.02753135515448149;0.0;53.70351954;86.84134226
3.851909780809966;0.9673175266565283;5.336793643486739;0.0224329560517997;0.007684895964685166;0.0356887937187723;4.072812241278087;0.9522105696660512;0.9067049689837458;5.523378506958963;2.6840939200348317;-0.9829713469970428;0.0005295431147131332;0.05608239012949967;-0.0448659121035994;0.00029081721811360445;0.047924951565208596;0.0;53.703517039999994;86.84097111999999
3.795801546036559;1.3475100976191898;5.336793643486739;0.0356887937187723;0.00917711838482718;0.0356887937187723;4.0117341503059;1.330390249286883;1.769938215397615;5.523378506958963;3.4901484473556046;-0.9829713469970428;9.378517366408695e-05;0.022432956051800068;-0.0316100744366268;0.0005476347114066397;0.0611807892321812;0.0;53.703523559999994;86.84060388
2.609767466810137;1.304342291883739;3.851909780809966;0.0254919955134087;0.008889362584971305;0.0356887937187723;2.839284586924131;1.2367783887606119;1.5296207829052952;4.072812241278087;2.837439734526319;-0.9829713469970428;9.950378181433843e-05;0.022432956051800068;-0.0142755174875089;0.0005076044543548899;0.05302335066789031;0.0;53.70353442;86.84021537999999
1.800683429623018;1.0947803870655193;3.795801546036559;0.0112164780258998;0.017637808349496967;0.0356887937187723;2.0332300596033583;1.037416591672819;1.0762331846780488;4.0117341503059;2.776361643554132;-0.9829713469970428;0.00010574226343278792;0.022432956051800068;-0.0142755174875089;0.0003496668947143549;0.05098399102681761;0.0;53.703546419999995;86.83973585999999
0.8189799988704458;0.776858908158148;2.609767466810137;0.0275313551544814;0.015423815969155874;0.0275313551544814;1.235372506751768;0.7017015510642124;0.49238506676592153;2.839284586924131;1.6757042003631508;-0.9839910268175792;9.409709774501175e-05;0.021413276231263656;-0.0142755174875089;0.0001764450551086069;0.0305903946160905;0.0;53.70356102000001;86.83922822
2.077084511564169;0.6833267446192303;2.2859870988153466;-0.0091771183848271;0.017159729962649153;0.0275313551544814;2.1928240917750075;0.5648241824433171;0.31902635707276156;2.3861648507522344;1.222584464191254;-0.9839910268175792;0.00018642662569814952;0.03772815335984514;-0.0142755174875089;0.00014608444456546278;0.026511675333945103;0.0;53.70357934;86.83870894
0.8766449379264653;1.069114137975495;2.2859870988153466;0.0244723156928724;0.017147607227146172;0.0275313551544814;1.1635803865609804;0.6681482576618848;0.44642209421661244;2.3861648507522344;1.49041499851552;-0.9839910268175792;0.00021216036237427498;0.03772815335984514;0.0061180789232181;0.0003538258824599894;0.0469052717446721;0.0;53.703598940000006;86.83817558
2.2859870988153466;1.061813224322417;2.2859870988153466;-0.0071377587437544;0.014121737230357069;0.0244723156928724;2.3861648507522344;0.677500743956723;0.4590072580619131;2.3861648507522344;1.49041499851552;-0.9839910268175792;0.0002043622603512093;0.03772815335984514;0.0061180789232181;0.000348835097165226;0.0469052717446721;0.0;53.703615760000005;86.83755751999999
-0.3460110370384625;1.3969352068284988;3.264915741745017;0.0071377587437544;0.020651977951639148;0.0479249515652085;0.8957498522367144;1.0267118564143958;1.0541372361018948;3.3002637400770194;2.404513887840305;-0.9819516671765066;0.00022609297132215634;0.03976751300091774;0.0061180789232181;0.0005879768925393066;0.0622004690527174;0.0;53.703631259999995;86.83702517999998
0.9305299966898803;1.3822292864313057;3.264915741745017;0.0132558376669725;0.020852390002257817;0.0479249515652085;1.166753616125578;0.9673178032498775;0.9357037324841687;3.3002637400770194;2.404513887840305;-0.9819516671765066;0.00028535854669746707;0.03976751300091774;0.0061180789232181;0.0005741482582850662;0.0622004690527174;0.0;53.703646500000005;86.83650281999999
3.264915741745017;1.337511307666653;3.264915741745017;0.0479249515652085;0.024112786791242867;0.0479249515652085;3.3002637400770194;0.9378150753005257;0.8794971154609307;3.3002637400770194;2.404513887840305;-0.9819516671765066;0.0002477197075994584;0.035688793718772316;0.0061180789232181;0.0005315186338922955;0.0622004690527174;30.0;53.70365686;86.8359807
2.010903454143345;0.8473168912425169;3.264915741745017;0.0265116753339451;0.025076661403388375;0.0479249515652085;2.0170507514812135;0.7883638810965672;0.6215176090176423;3.3002637400770194;2.1335101239514414;-0.9819516671765066;0.00021262824849565214;0.035688793718772316;-0.0163148771285816;0.00020763746320087882;0.0397675130009177;30.0;53.703670880000004;86.83547247999999
1.721549940526373;0.6851020729115348;3.264915741745017;-0.0173345569491179;0.030675250242666034;0.0479249515652085;1.7359794034196048;0.6894836588399538;0.47538771580732975;3.3002637400770194;1.5642843366574146;-0.9819516671765066;0.00023571063048393514;0.035688793718772316;-0.0305903946160905;0.00013849429192967747;0.0254919955134088;30.0;53.703691160000005;86.83503196
2.2360713393912386;0.5561246365316301;3.117996164607477;-0.0010196798205363;0.02041143300748631;0.0265116753339451;2.2873713226897157;0.5592056101331392;0.3127109144043764;3.1317457066791983;1.3957663032595935;-0.9870500662791885;0.0001499315082301977;0.030590394616090477;-0.0305903946160905;9.664447773921305e-05;0.024472315692872396;0.0;53.703713400000005;86.8345678
3.117996164607477;0.9553804985780715;3.9796385452359417;-0.0254919955134087;0.015604766339391169;0.0112164780258998;3.1317457066791983;0.9579255410704642;0.9176213422351417;4.004561598619664;2.268582195200059;-0.9819516671765066;0.00020659771626448968;0.035688793718772316;-0.0305903946160905;0.00025962481002133133;0.037728153359845;0.0;53.70373902;86.83409166
1.840161890156336;0.8284394607063618;3.9796385452359417;0.0061180789232181;0.021198552448598636;0.0112164780258998;1.8445703985256405;0.8274596544631252;0.6846894797642346;4.004561598619664;2.1599912000940233;-0.9819516671765066;0.00016916682655376098;0.03364943407769949;-0.0326297542571632;0.00019391280364027983;0.03568879371877231;0.0;53.703775300000004;86.83361082
3.9796385452359417;0.8525611735271144;3.9796385452359417;0.0112164780258998;0.031893328893186516;0.0428265524625267;4.004561598619664;0.868585410916873;0.7544406160576331;4.004561598619664;2.1599912000940233;-0.9819516671765066;0.00017124632042658;0.03364943407769949;-0.0326297542571632;0.00020982093176733903;0.03568879371877231;0.0;53.70381926;86.83312742000001
2.663827620195285;0.8677296665251737;3.9796385452359417;-0.037728153359845;0.028774128752449158;0.0428265524625267;2.7531809358228934;0.8927567125342525;0.7970145477749659;4.004561598619664;2.1599912000940233;-0.9819516671765066;0.00018902599303916977;0.03364943407769949;-0.0326297542571632;0.00021605941338579323;0.03568879371877231;0.0;53.70387422;86.83266526
3.702954301062781;1.0130314652394257;3.9796385452359417;0.0428265524625267;0.029257881890963428;0.0428265524625267;3.8088756675558724;0.8679097543420047;0.7532673416819988;4.004561598619664;2.093920559782074;-0.9809319873559702;0.00017135029512020732;0.026511675333945495;-0.0249821556031406;0.0003111962580672204;0.04333639237279491;0.0;53.70392842;86.8322177
3.414833044714934;1.0791140274288693;4.245048785007924;0.0010196798205363;0.03982368644543989;0.0428265524625267;3.5650824273277837;0.9677502173254463;0.9365404831334485;4.390250114966196;2.4796090761286056;-0.9809319873559702;0.00013183991153666952;0.026511675333945495;-0.0249821556031406;0.00036578297222869527;0.049454471296013006;0.0;53.703967780000006;86.83174506
1.458679037061839;1.2194672593817415;4.245048785007924;0.0163148771285816;0.04178448343126984;0.0428265524625267;1.9106410388375898;1.099047456800025;1.2079053122986028;4.390250114966196;2.4796090761286056;-0.9809319873559702;0.00010522238996459085;0.026511675333945495;-0.0249821556031406;0.0004679381087308844;0.049454471296013006;0.0;53.703986099999995;86.83124626
4.245048785007924;1.1706767281979185;4.245048785007924;-0.0550627103089629;0.03966672457952389;0.0356887937187723;4.390250114966196;1.0587278679092973;1.1209046982877666;4.390250114966196;2.4796090761286056;-0.9809319873559702;7.278228554861735e-05;0.020393596410727022;-0.0249821556031406;0.0004234369398525766;0.049454471296013006;30.0;53.70399658;86.83069354
1.824674538983317;1.1737049463623626;4.245048785007924;-0.0469052717446721;0.05240201960856358;0.0652595085143264;2.0771624030254596;1.0655807482160726;1.135462330968725;4.390250114966196;2.4796090761286056;-0.9666564698684612;0.00016760720614911564;0.034669113898236015;-0.0249821556031406;0.0004299353582051327;0.049454471296013006;30.0;53.70398941999999;86.83011294
3.3293476849845187;1.913433381120073;4.245048785007924;0.0356887937187723;0.08129157154179616;0.1396961354134801;3.4782033596571313;1.17698367442371;1.3852905698599383;4.390250114966196;2.9326550329641803;-0.9666564698684612;0.00024335277046652083;0.038237993270113124;0.0142755174875089;0.001118455779495201;0.0887121443866625;30.0;53.70396346;86.8295033
1.989144192368293;2.280001883478172;3.3293476849845187;0.0652595085143264;0.07830516974047794;0.1396961354134801;2.3052690879890902;0.7328968709718655;0.5371378234803512;3.4782033596571313;2.020608277655116;-0.9666564698684612;0.0004980387825399245;0.05812174977057216;0.040787192821454;0.001588421394752086;0.0978892627714896;30.0;53.70390152;86.82893448
-0.8061372017390491;2.313391653347935;3.3293476849845187;0.1396961354134801;0.055647805893018494;0.1396961354134801;1.4575950820020152;0.7224616148382492;0.5219507849146907;3.4782033596571313;2.020608277655116;-0.9666564698684612;0.0005058368845629956;0.05812174977057216;0.040787192821454;0.0016398888681043342;0.0978892627714896;30.0;53.70379158000001;86.82846614
-2.258361299682035;1.8739599828900626;2.0988898772457207;0.1396961354134801;0.07674538729250326;0.1396961354134801;2.4049921625120305;0.6825117571994125;0.46582229871542985;2.4049921625120305;1.5825143599127716;-0.9666564698684612;0.00045780057610090707;0.05812174977057216;0.040787192821454;0.0010899667134375913;0.0774956663607626;30.0;53.7036207;86.82816213999999
2.0988898772457207;1.8103669021768023;2.0988898772457207;0.0244723156928724;0.08812712262128705;0.1396961354134801;2.222157021668571;0.6319061694922855;0.3993054070424131;2.4049921625120305;1.5825143599127716;-1.0013255837666972;8.052840022489436e-05;0.023452635872336147;0.040787192821454;0.0010363157715188832;0.0774956663607626;0.0;53.7033866;86.82799972000001
0.7517720497586613;1.8238559007395658;2.0988898772457207;-0.0387478331803813;0.07652355680348205;0.1396961354134801;0.822477802599259;0.7231487258982761;0.5229440797682999;2.4049921625120305;1.5825143599127716;-0.9809319873559702;0.00025401017656473754;0.04384623228306317;0.040787192821454;0.0010462973421084094;0.0774956663607626;0.0;53.7030981;86.82799281999999
1.6788052424655129;1.2675806162904417;2.0988898772457207;-0.0305903946160905;0.026417383362432982;0.0244723156928724;1.6816874014300975;0.6217930714457715;0.3866266236979663;2.222157021668571;1.3996792190693121;-0.9809319873559702;0.00015804153433417984;0.0305903946160907;0.0152951973080452;0.000489512857661367;0.0520036708473538;0.0;53.702718700000005;86.82811518
-0.8926169388661012;1.00857154958176;1.6788052424655129;-0.0387478331803813;0.012008867560262959;-0.0193739165901906;0.9319642113002612;0.3613138739601754;0.13054771551610952;1.6816874014300975;0.8592095988308386;-0.962577750586316;0.00047807564136087566;0.0489446313857449;0.0152951973080452;0.0003110922833735746;0.044865912103599304;0.0;53.7023247;86.82826902
-0.288733811066358;1.2966969020613284;1.6788052424655129;-0.0193739165901906;0.019727576594653164;-0.0193739165901906;0.8674467679444922;0.6338754768891338;0.4017981202014268;2.4047313600953837;1.5372845921508915;-0.962577750586316;0.000426608168008626;0.0489446313857449;0.0326297542571632;0.0005169621767825653;0.0622004690527173;0.0;53.701923740000005;86.82839542
-0.1818182864645359;0.6874541103919969;-0.1818182864645359;-0.0520036708473539;0.022141379372497695;-0.0183542367696543;1.2589903835626377;0.6395024390208655;0.40896336951363577;2.4047313600953837;1.5372845921508915;-0.962577750586316;0.0013467842067306443;0.09686958295095338;0.0326297542571632;0.00014379700130536085;0.029570714795554197;90.0;53.70146294;86.82850294
-1.863711868876512;1.3099082438399368;-0.1818182864645359;-0.0703579076170082;0.02632472854782419;-0.0081574385642908;2.4047313600953837;1.1846143806459914;1.4033112308332858;3.8845215337053074;3.0170747657608152;-0.962577750586316;0.0017150625716067448;0.09686958295095338;0.0591414295911083;0.0005819463603081316;0.056082390129499296;90.0;53.70100868000001;86.82858116
-0.4410860561832688;1.217529843717942;-0.1818182864645359;-0.0183542367696543;0.026771207728953056;-0.0081574385642908;1.734051728418681;1.0853252991974753;1.1779310050780891;3.8845215337053074;2.6255311501426695;-0.962577750586316;0.001713295001814853;0.09686958295095338;0.0591414295911083;0.0005035494413028891;0.056082390129499296;90.0;53.70063474;86.8286117
-3.195006338412763;1.4174316595362302;0.4876135383939818;-0.0081574385642908;0.03108435021043429;-0.0081574385642908;3.8845215337053074;0.8332466293798126;0.6942999453728189;3.8845215337053074;2.1504698052866265;-0.9554399918425616;0.0019360087955936712;0.10400734169470782;0.0591414295911083;0.0006625267478798313;0.0672988681553991;90.0;53.70027758;86.82864878000001
-1.7569731463559544;1.421412444723257;0.4876135383939818;-0.058121749770572;0.03569898906070826;-0.0081574385642908;3.3128826254372568;0.8659235044653975;0.7498235155856352;3.8845215337053074;2.1504698052866265;-0.9554399918425616;0.003969545853822501;0.17436524931171604;0.0591414295911083;0.0006880005478218531;0.0672988681553991;90.0;53.69985728;86.82868416
0.4876135383939818;2.055237144668045;0.4876135383939818;-0.0764759865402263;0.04192235974527446;0.0050983991026817;3.0843415461078876;1.1658382286312812;1.3591787753381235;6.01882720664428;2.9344856605363927;-0.9554399918425616;0.0040723768258333504;0.17436524931171604;0.0907515040277353;0.001328068761875263;0.0989089425920261;90.0;53.69948933999999;86.82871558
-1.906596580107299;2.560814116416065;1.5257542347327264;-0.0897318242071989;0.038577063004877205;0.0050983991026817;3.8018716983583314;1.2350094797729843;1.5252484151291374;6.01882720664428;2.9344856605363927;-0.9534006322014889;0.00517534037597604;0.17640460895278876;0.0907515040277353;0.0020443504263674534;0.11624349954114399;90.0;53.699114959999996;86.82873032
-5.106177720166575;2.8141037186062454;1.5257542347327264;0.0050983991026817;0.04040236011442129;0.0050983991026817;6.01882720664428;1.2848875813764746;1.6509360967754867;6.01882720664428;3.065115497274366;-0.9534006322014889;0.00543678474313608;0.17640460895278876;0.0907515040277353;0.002486346849034939;0.11624349954114399;90.0;53.69874648;86.8287356
1.5257542347327264;3.0582431603021556;2.052788701935904;-0.0836137452839808;0.03970536855804533;0.0050983991026817;3.1275318273588226;1.2580423314939133;1.5826705078306411;6.01882720664428;3.065115497274366;-0.9534006322014889;0.004649436375540353;0.17640460895278876;0.0907515040277353;0.002968165579366891;0.12745997756704391;90.0;53.69836232;86.82870471999999
1.408009581995349;3.1163642550207133;2.275812918917702;-0.0341592739879677;0.03498928450647184;0.0050983991026817;2.953711709369914;1.2796670596120077;1.6375477834560417;6.01882720664428;3.065115497274366;-0.9534006322014889;0.0010488967094494314;0.07239726725808093;0.0907515040277353;0.003052229119175564;0.13153869684918928;90.0;53.69804428;86.82866315999999
2.052788701935904;1.2565098534199224;2.275812918917702;-0.0703579076170082;0.02643410540596563;-0.023452635872336;3.3025741759502867;0.35035215266399505;0.12274663087629528;3.324574928442636;0.8555856651895986;-0.9330070357907616;0.0016931758985952753;0.09279086366880818;0.0142755174875089;0.00047495640055164265;0.0550627103089629;90.0;53.69774168;86.82860631999999
2.275812918917702;1.2704016240871785;2.275812918917702;-0.0326297542571632;0.035172303094046606;0.0275313551544814;3.324574928442636;0.5242719716925314;0.2748611003023744;3.324574928442636;1.191778989659995;-0.9330070357907616;0.0015388774532321939;0.09279086366880818;0.0142755174875089;0.0004905006172509578;0.0550627103089629;90.0;53.6974146;86.82854548
-0.87631157340756;1.6883591942251577;3.550655779466087;-0.023452635872336;0.03629974232017607;0.0275313551544814;2.4689892632530372;0.798987209996283;0.6383805617376445;4.163350514984525;2.030554576201884;-0.9330070357907616;0.0014314196073543278;0.09279086366880818;0.0142755174875089;0.0008609104633466806;0.0764759865402263;90.0;53.69709752;86.82848951999999
0.6935022679643806;1.684780680257242;3.550655779466087;0.0275313551544814;0.03718267743645025;0.0275313551544814;2.1327959387826407;0.8228474692547872;0.677077957659008;4.163350514984525;2.030554576201884;-0.9330070357907616;0.0012667236926271256;0.09279086366880818;0.0142755174875089;0.0008586230200865806;0.0764759865402263;90.0;53.69680351999999;86.82845152
3.550655779466087;2.2644496663239346;4.646105566479723;-0.0469052717446721;0.037858145285962534;0.0275313551544814;4.163350514984525;1.3149906711828059;1.7292004652978066;5.1657137012670535;3.032917762484413;-0.9330070357907616;0.0016908884553352042;0.1136942999898034;0.0142755174875089;0.0016456074762545873;0.09941878250229419;90.0;53.69652284;86.82843708
0.8179157729561075;1.8684530618840705;4.646105566479723;-0.0734169470786173;0.03753405269202134;0.0275313551544814;2.5009211424796085;1.323316919923178;1.751167670554967;5.1657137012670535;3.032917762484413;-0.986030386458652;0.0005365614065338952;0.06067094932191297;-0.0122361578464362;0.0011234985521367871;0.0729071071683491;90.0;53.69623934;86.8284403
4.646105566479723;1.4716804825126515;4.646105566479723;-0.0453757520138676;0.01651125818120634;-0.0336494340776996;5.1657137012670535;1.0071815362159675;1.0144146468943562;5.1657137012670535;2.664792558787445;-0.9574793514836342;0.0010420863670159573;0.08922198429693085;-0.0142755174875089;0.0007119147273592671;0.0708677475272764;90.0;53.69599476;86.82845172
4.079039521079134;1.8792362966447698;4.646105566479723;-0.0336494340776996;0.02201068115756069;-0.0214132762312633;4.5648085873196775;1.2828294531253495;1.6456514058058833;5.1657137012670535;2.9759391185835864;-0.9574793514836342;0.01265689144425421;0.2804119506474967;-0.0112164780258998;0.0010940217264895915;0.0739267869888855;90.0;53.69572782;86.8284715
3.1012206847459107;1.8937240051777937;4.646105566479723;-0.0672988681553992;0.025257409464031967;0.0;3.673248479028221;1.3206596244680868;1.7441418437001883;5.1657137012670535;2.9759391185835864;-0.9574793514836342;0.012562690371815552;0.2804119506474967;-0.0112164780258998;0.0011107096648189576;0.0739267869888855;90.0;53.695451219999995;86.82851234
0.5190626538040343;1.519432056905632;4.079039521079134;-0.0214132762312633;0.026537155085461745;0.0;2.189774582683467;0.9946579374596287;0.9893444125514426;4.5648085873196775;2.3750340046362104;-0.9574793514836342;0.013092805347343722;0.2804119506474967;-0.0112164780258998;0.0006417318091516567;0.05914142959110841;90.0;53.695176579999995;86.82856025999999
0.7584537946065406;1.1477587859594816;3.1012206847459107;0.0;0.02797251431306505;0.0;2.3346212781831945;0.6572536946772347;0.43198241916687574;3.673248479028221;1.6065872524538225;-0.9574793514836342;0.012187081791037849;0.2804119506474967;-0.0091771183848271;0.0003672386179396681;0.0428265524625268;90.0;53.69491004;86.82860092000001
1.967049123383656;0.6115299736393418;1.967049123383656;-0.0540430304884266;0.019694608262857006;0.0;2.834193943982598;0.31174229595071073;0.09718325908462051;2.834193943982598;0.7675327174081992;-1.0013255837666972;0.007263204211632404;0.23656571836443363;-0.0091771183848271;0.00013433530418404115;0.028551034975017903;90.0;53.69463654;86.82866022
0.4655532039170261;0.8031840947446827;2.3325694987265684;-0.0158050372183134;0.026800320588966257;0.0;2.0666612265743987;0.42865336000427867;0.18374370304295776;3.0105952696864486;0.94393404311205;-1.0013255837666972;0.0026640396004673924;0.12796981747731206;-0.0091771183848271;0.0002545300500329276;0.0367084735393087;90.0;53.69438032000001;86.82874192
1.017117154682648;0.8094626357102602;2.3325694987265684;-0.020393596410727;0.02206022560143605;-0.0158050372183134;2.1107035290221017;0.441914514172602;0.1952884378364069;3.0105952696864486;0.94393404311205;-1.0217191801774244;0.0018561562308775695;0.10757622106658493;-0.0091771183848271;0.00023373511130474675;0.0367084735393087;90.0;53.694132839999995;86.82883236
2.3325694987265684;1.4018964757658738;2.3325694987265684;-0.0632201488732537;0.034080042771624075;-0.0158050372183134;3.0105952696864486;0.4804971644668097;0.23087752506064435;3.0105952696864486;1.0534956914554459;-0.9982665443050882;0.003595912792223959;0.13102885693892108;0.0193739165901906;0.0006704288245965427;0.0652595085143264;90.0;53.69387556;86.82892324000001
2.1685916833088714;1.398030585560168;2.3325694987265684;-0.0560823901294993;0.04068829143005764;0.0066279188334862;2.800388230410724;0.6719499535080579;0.45151674001948106;3.0105952696864486;1.6659024528695623;-0.9982665443050882;0.002751898216593872;0.12644029774650756;0.0193739165901906;0.0006704288245965427;0.0652595085143264;90.0;53.69362122;86.82903242
-1.1064154173289924;1.4207422798634002;2.3325694987265684;-0.0989089425920261;0.04733280797953349;0.0101967982053635;1.9570995782310028;0.8257122061758114;0.6818006474277257;3.0105952696864486;1.8184365559762616;-0.9982665443050882;0.0026963757301895924;0.12644029774650756;0.0193739165901906;0.0006966304473940508;0.0652595085143264;90.0;53.693393379999996;86.82912714
0.5095235041863235;1.3099110014526203;2.1685916833088714;0.0066279188334862;0.04613361021514028;0.0101967982053635;1.3446928168168863;0.6443577650497451;0.4151969293799025;2.800388230410724;1.6082295167005372;-0.9982665443050882;0.0003082849666452591;0.03772815335984503;0.0193739165901906;0.0005456591922274574;0.0581217497705719;90.0;53.6931831;86.82920358
0.4088102085818169;1.0508388317208346;1.8600392676176567;0.0101967982053635;0.044011323033774294;0.0101967982053635;1.192158713710187;0.500603290209892;0.25060365416896935;2.099220794544754;1.1611088516836265;-0.9360660752523708;0.0016008983579889422;0.0999286224125624;0.0193739165901906;0.00035226626205537496;0.0530233506678902;90.0;53.69299278;86.82926414
1.8600392676176567;0.634746995807422;1.8600392676176567;-0.0183542367696543;0.017739938105236077;0.0101967982053635;2.099220794544754;0.43279514093914806;0.18731163402053705;2.099220794544754;1.1611088516836265;-0.9360660752523708;0.0016256443350754835;0.0999286224125624;-0.0071377587437544;0.00013485517765224545;0.026511675333945203;90.0;53.692811819999996;86.82932894000001
0.4991403568191763;1.2187525145589948;3.3886508384083056;-0.023452635872336;0.023068213672804153;0.0244723156928724;0.9381119428611273;1.0048596391505058;1.0097428943936848;3.425875074322482;2.487763131461355;-0.9360660752523708;0.0017036253553061288;0.0999286224125624;-0.0071377587437544;0.0004201097496560679;0.0494544712960131;90.0;53.69264045999999;86.82938798
1.2686990059698942;1.1273617557920268;3.3886508384083056;-0.0280411950647496;0.021798264837801493;0.0244723156928724;1.3598940343920414;0.9931516591609214;0.986350218094091;3.425875074322482;2.487763131461355;-0.9360660752523708;0.0017400164980804495;0.0999286224125624;-0.0081574385642908;0.00036281969345992946;0.048434791475476704;90.0;53.692463020000005;86.8294563
3.3886508384083056;1.6199445741871215;3.3886508384083056;0.0244723156928724;0.02544198214097025;0.0254919955134087;3.425875074322482;1.1725351680674694;1.3748387203550088;3.425875074322482;2.729015534827606;-0.9360660752523708;0.007026921720333185;0.21413276231263345;0.0132558376669725;0.000795666343087013;0.06984806770674;90.0;53.69226734;86.82953710000001
2.6131002908611314;1.677105739993785;3.3886508384083056;0.0020393596410727;0.02454761367212423;0.0254919955134087;2.638525163875771;1.182033542476452;1.3972032955394302;3.425875074322482;2.729015534827606;-0.9554399918425616;0.0052751560818712585;0.19475884572244273;0.0132558376669725;0.0008762987180055345;0.06984806770674;90.0;53.692049080000004;86.82962092
-0.6601323717755853;2.0821575916739365;3.3886508384083056;0.0254919955134087;0.021690677461183444;0.0254919955134087;0.6968595394948758;1.3101906652033286;1.716599579185941;3.425875074322482;2.729015534827606;-0.9177118384827164;0.0077989338206169035;0.23248699908228787;0.0132558376669725;0.0013093533170199013;0.06984806770674;90.0;53.69183344;86.82970736000001
