acc_X;acc_X_std;acc_X_max;acc_Z;acc_Z_std;acc_Z_max;acc;acc_std;acc_var;acc_max;acc_range;fb_tilt_max;fb_tilt_var;fb_tilt_range;tilt_max;tilt_var;tilt_range;class;lat;lon
7.493048132623383;1.2768426978436294;7.493048132623383;-0.0173345569491179;0.05600354126015499;0.0938105434893443;7.49439226314795;1.2752893939724972;1.626363038378739;7.49439226314795;3.573161319346237;-0.9534006322014889;0.0009111302403752424;0.06322014887325345;-0.0693382277964719;0.00040934836886424104;0.056082390129499296;0.0;53.72325632;86.84282112000001
3.9154043008842514;1.2768426978436294;7.493048132623383;-0.0560823901294993;0.05600354126015499;0.0938105434893443;3.921230943801713;1.2752893939724972;1.626363038378739;7.49439226314795;3.573161319346237;-0.9534006322014889;0.0009111302403752424;0.06322014887325345;-0.0693382277964719;0.00040934836886424104;0.056082390129499296;30.0;53.72325632;86.84282112000001
5.612490753593505;1.2768426978436294;7.493048132623383;0.0224329560517997;0.05600354126015499;0.0938105434893443;5.617253572397387;1.2752893939724972;1.626363038378739;7.49439226314795;3.573161319346237;-0.9534006322014889;0.0009111302403752424;0.06322014887325345;-0.0693382277964719;0.00040934836886424104;0.056082390129499296;0.0;53.72325632;86.84282112000001
5.791189736854791;0.7396952450231988;5.791189736854791;0.0285510349750178;0.05321908167920824;0.0938105434893443;5.7953139825682864;0.7391104788551633;0.5462842999535089;5.7953139825682864;1.8740830387665732;-0.9493219129193432;0.0009735150565597889;0.0672988681553991;-0.0693382277964719;0.0001556501163804341;0.03059039461609049;0.0;53.72330342;86.84300134
5.339768433309636;0.38161169378466026;5.791189736854791;0.0938105434893443;0.038087464153943075;0.0938105434893443;5.343289258632385;0.3835537819878583;0.14711350367718953;5.7953139825682864;0.9486126943408557;-0.9493219129193432;0.0007213764244805918;0.0672988681553991;-0.0836137452839808;5.957749945623863e-05;0.016314877128581595;30.0;53.723374680000006;86.8430982
5.092242853654746;0.37321869598892976;5.791189736854791;0.0285510349750178;0.04317714970886124;0.0938105434893443;5.093174449165343;0.37477616074583797;0.1404571706633902;5.7953139825682864;0.9486126943408557;-0.9493219129193432;0.0003948958864481568;0.046905271744672405;-0.0836137452839808;3.7950763178930636e-05;0.015295197308045294;0.0;53.7234784;86.84314048000002
4.846679570070962;0.19063299563133407;5.339768433309636;-0.0112164780258998;0.045158118499103325;0.0938105434893443;4.846701288227431;0.1925022748553993;0.037057125824503705;5.343289258632385;0.4965879704049545;-0.9493219129193432;0.0008923108208262437;0.07239726725808115;-0.0836137452839808;1.4244533028804308e-05;0.009177118384827196;30.0;53.723610859999994;86.84312958000001
4.971898213115942;0.16392008151290682;5.252425035369955;-0.0122361578464362;0.01680771378332986;0.0285510349750178;4.97370149051989;0.16995999837231446;0.02888640104671713;5.270122796125242;0.4234215078978112;-0.9493219129193432;0.0006957986498449334;0.07239726725808115;-0.0836137452839808;1.736377383803145e-05;0.009177118384827196;0.0;53.72375832;86.84308247999999
5.189208910767366;0.1643375419349712;5.252425035369955;-0.0050983991026817;0.02038594737761027;-0.0040787192821454;5.1965160054872035;0.16973523972871593;0.028810051605764664;5.270122796125242;0.4234215078978112;-0.986030386458652;0.00023623050395212814;0.035688793718772316;-0.0836137452839808;1.4244533028804261e-05;0.009177118384827196;0.0;53.723910679999996;86.84301980000001
5.252425035369955;0.17481838205438355;5.252425035369955;-0.0040787192821454;0.029311139410722234;-0.0040787192821454;5.270122796125242;0.1601806948338771;0.02565785499746366;5.270122796125242;0.3935960206366431;-0.9962271846640156;0.00019879961424139984;0.030590394616090366;-0.0866727847455898;8.006051410350094e-06;0.006118078923218195;0.0;53.72406444000001;86.84297388
5.027310851681729;0.2421437350971097;5.458477068206579;-0.0530233506678902;0.02904745494696464;-0.0040787192821454;5.062996006509899;0.24660838612793465;0.06081569610862451;5.539869029789785;0.6633422543011864;-0.9911287855613338;0.0002450683529116032;0.035688793718772205;-0.0866727847455898;9.669646508604608e-06;0.008157438564290895;30.0;53.72421558;86.84296118
4.81487724750607;0.9317923561623506;5.458477068206579;-0.0662791883348628;0.023666678572278634;-0.0040787192821454;4.876526775488599;0.8707849193121229;0.7582663757014203;5.539869029789785;2.219931645748131;-0.9911287855613338;0.0002696063806108565;0.035688793718772205;-0.0560823901294993;0.0002492273406572486;0.03874783318038139;30.0;53.72435926000001;86.84298197999999
5.458477068206579;1.438183786475227;5.458477068206579;-0.0499643112062812;0.022793892693517705;-0.0061180789232181;5.539869029789785;1.3240351606701375;1.753069106690797;5.539869029789785;3.14204561572105;-0.971754868971143;0.0005940074247704801;0.055062710308962926;-0.0351789538085041;0.0006647102164463029;0.05965126950137659;0.0;53.724498419999996;86.84303922
3.12565943696136;1.7435920951630077;5.458477068206579;-0.0499643112062812;0.028077324074514985;-0.0050983991026817;3.3199373840416544;1.509625048584045;2.27896778731238;5.539869029789785;3.4270783842859838;-0.971754868971143;0.0005881848419265906;0.055062710308962926;-0.0244723156928724;0.000954175763542581;0.0703579076170083;0.0;53.72463846000001;86.84312806
2.0732449384532363;1.6167990147959284;5.458477068206579;-0.0061180789232181;0.022309792882476753;-0.0050983991026817;2.397823414068735;1.3855911978728193;1.919862967622634;5.539869029789785;3.4270783842859838;-0.971754868971143;0.0005339100518460388;0.054043030488426735;-0.0244723156928724;0.0007871404182084685;0.0703579076170083;0.0;53.724767;86.84322588
1.3775716178893476;0.6721373512150121;3.12565943696136;-0.0050983991026817;0.0208349309082314;0.0020393596410727;2.1127906455038015;0.5299205408226205;0.28081577958573867;3.3199373840416544;1.207146738537853;-0.971754868971143;0.0005201853922854401;0.054043030488426735;-0.0244723156928724;0.00014582450783136774;0.0316100744366269;0.0;53.724882920000006;86.84331108
1.9448932003353827;0.48693067425725495;2.6452489590739705;-0.0224329560517997;0.012227657562085234;0.0020393596410727;2.59601851802451;0.44918442038427625;0.2017666435159582;3.24584667620585;1.1330560307020487;-0.971754868971143;0.00041829019251735463;0.0489446313857449;-0.0244723156928724;6.945509535212312e-05;0.0214132762312634;0.0;53.724983480000006;86.84338604
2.6452489590739705;0.5880781044362954;2.835566356318312;0.0020393596410727;0.012898042868026408;0.0020393596410727;3.24584667620585;0.49903578035329;0.24903671007281708;3.3177720312635364;1.204981385759735;-0.9931681452024064;0.00011509998586047049;0.027531355154481574;-0.0244723156928724;0.00010262302262357192;0.025491995513408798;0.0;53.725067280000005;86.84344424
2.4235501551666783;0.39861876249873335;2.954221964535554;-0.0265116753339451;0.011750676285011034;0.0020393596410727;2.962701281594452;0.3469031957856667;0.1203418272463086;3.4765345992126537;0.8805160811881438;-0.9931681452024064;9.846403487792693e-05;0.027531355154481574;-0.0346691138982359;4.647668805748372e-05;0.017334556949118;0.0;53.72512202;86.8434785
2.835566356318312;1.0283229218405714;2.954221964535554;-0.0244723156928724;0.012065014343019476;0.0020393596410727;3.3177720312635364;0.6909664452643035;0.4774346284811877;3.4765345992126537;1.7138027121692176;-0.9931681452024064;7.64213998260548e-05;0.023452635872335925;-0.0081574385642908;0.00032492091762782564;0.0438462322830631;0.0;53.7251644;86.8435004
2.954221964535554;1.2620425597046014;2.954221964535554;-0.0224329560517997;0.005128898272645791;-0.0224329560517997;3.4765345992126537;0.8213875468443982;0.6746775021110584;3.4765345992126537;1.7138027121692176;-1.006423982869379;1.694787506345436e-05;0.010196798205363233;-0.0081574385642908;0.0004941917188752178;0.0438462322830631;0.0;53.7251991;86.84351974
0.4595911469313234;1.266382844345809;2.954221964535554;-0.0254919955134087;0.008009518460958697;-0.0224329560517997;1.762731887043436;0.8287888467569473;0.6868909525087107;3.4765345992126537;1.7138027121692176;-0.9962271846640156;5.281914436956667e-05;0.02039359641072669;-0.0081574385642908;0.0004941917188752178;0.0438462322830631;0.0;53.725226320000004;86.84353159999999
0.4641016165167794;1.1532334672209512;2.954221964535554;-0.0356887937187723;0.007472242667711338;-0.0224329560517997;1.821584459777032;0.7616208834574907;0.5800663701185685;3.4765345992126537;1.7138027121692176;-0.9962271846640156;5.229927090136233e-05;0.02039359641072669;-0.0081574385642908;0.00040830862192783055;0.0438462322830631;0.0;53.7252431;86.84353302
2.4594998950127405;2.270424041161436;6.009904449483008;-0.040787192821454;0.006631839519326671;-0.0254919955134087;3.037966887307099;1.911271313418963;3.652958033498248;6.438385659106866;4.675653772063431;-0.9962271846640156;5.2195296207721434e-05;0.02039359641072669;-0.0081574385642908;0.0016041215734918736;0.0978892627714897;0.0;53.725259619999996;86.84353417999999
2.0277979356660696;2.2404396132857545;6.009904449483008;-0.0326297542571632;0.005990347748070857;-0.0272764351993473;2.832654557019831;1.9481849467252246;3.7954245866467664;6.438385659106866;4.616801199329834;-0.9962271846640156;2.131481219637589e-05;0.01121647802590009;-0.0081574385642908;0.0015646111899083309;0.0978892627714897;0.0;53.72528506;86.84353913999999
6.009904449483008;1.655691945628617;6.009904449483008;-0.0418068726419904;0.021842639002831052;-0.0272764351993473;6.438385659106866;1.5620418095392634;2.4399746147486967;6.438385659106866;3.6057311020870353;-0.9962271846640156;3.8782560728046415e-05;0.017334556949117896;-0.0356887937187723;0.0008605985392657669;0.07035790761700819;0.0;53.72533522;86.84354834
4.867641893975357;1.5042952887413399;6.009904449483008;-0.0272764351993473;0.02172091547868805;-0.0272764351993473;5.4934985801989615;1.3388237833270342;1.7924491228021138;6.438385659106866;3.6057311020870353;-0.9992862241256244;2.5993673410215323e-05;0.014275517487509104;-0.0356887937187723;0.0007075477902263555;0.07035790761700819;0.0;53.72541952;86.84357632
3.957825246133388;1.1680754772245645;6.009904449483008;-0.0825940654634444;0.02233686558746744;-0.0272764351993473;4.817521193149503;0.8675236623104837;0.7525973046685942;6.438385659106866;2.074303780492854;-0.9992862241256244;0.00010272699731720116;0.026511675333945384;-0.0571020699500356;0.00041714647088731034;0.0489446313857449;0.0;53.72554414;86.84362414
3.3836230584062883;0.7106982758284374;4.867641893975357;-0.0448659121035994;0.022470872320191525;-0.0272764351993473;4.434150151004395;0.4791446809364476;0.22957962526969017;5.4934985801989615;1.1294167015849492;-0.9931681452024064;0.00016220052207980003;0.03262975425716341;-0.0560823901294993;0.0001573137114786896;0.029570714795554197;0.0;53.72570399999999;86.8436816
3.1788998341346475;0.7004236611165978;4.8420701972458255;-0.0693382277964719;0.017593540376199836;-0.040787192821454;4.364081878614012;0.5548348520342049;0.30784171303181807;5.67455163304026;1.310469754426248;-0.9615580707657796;0.0005914080574294541;0.06423982869379019;-0.0560823901294993;0.00011988282176796393;0.025491995513408798;0.0;53.725892480000006;86.84375744
3.2292394400861024;0.7445220534226622;4.8420701972458255;-0.040787192821454;0.014449262432073744;-0.0305903946160905;4.39774194884482;0.586352868445072;0.3438096863337639;5.67455163304026;1.310469754426248;-0.9615580707657796;0.0005268397726784529;0.06423982869379019;-0.0560823901294993;0.00013443927887769053;0.025491995513408798;0.0;53.72607802;86.84385594
4.8420701972458255;0.7156084793185746;4.8420701972458255;-0.0520036708473539;0.017083821734319896;-0.0275313551544814;5.67455163304026;0.5490144335710782;0.30141684826937176;5.67455163304026;1.310469754426248;-0.9615580707657796;0.0005892245888629965;0.06423982869379019;-0.0560823901294993;0.00012632925277369976;0.025491995513408798;0.0;53.72625872;86.84395984
4.297378772021994;0.7665510468073474;4.8420701972458255;-0.0305903946160905;0.033331210622374166;-0.0275313551544814;5.153312291498082;0.637364955867859;0.4062340869684378;5.67455163304026;1.6238285108171207;-0.9615580707657796;0.0003870977844250802;0.04996431120628131;-0.0530233506678902;0.00015253087557120777;0.028551034975017903;0.0;53.7264359;86.84407046
4.092315559936188;0.854649187587242;4.8420701972458255;-0.0275313551544814;0.03297840650310237;-0.0275313551544814;4.94896374921588;0.7608561660530248;0.578902105420908;5.67455163304026;1.8020919225138585;-0.9615580707657796;0.00038751368319964375;0.04996431120628131;-0.0499643112062812;0.00019495255057669684;0.0316100744366269;0.0;53.7266299;86.84420814
2.995305212436836;0.6568762123380025;4.297378772021994;-0.1091057407973896;0.033006769608209176;-0.0275313551544814;4.05072312222314;0.593676209893718;0.35245144219376995;5.153312291498082;1.2808525809716804;-0.9901091057407974;0.0003875136831996455;0.04996431120628153;-0.0499643112062812;0.00012560142991821337;0.024472315692872407;30.0;53.72682264;86.84435992
2.874005322618462;0.7041501864503869;4.092315559936188;-0.0458855919241358;0.03170532034407266;-0.0275313551544814;3.872459710526402;0.6250171123534348;0.39064639073462615;4.94896374921588;1.751696709090782;-0.9941878250229428;0.0002800038499749475;0.045885591924136104;-0.037728153359845;0.00015928923065786638;0.034669113898235904;0.0;53.72703082;86.8445169
3.1948196009292698;0.434420086698323;3.1948196009292698;-0.0499643112062812;0.03574992215703415;-0.0112164780258998;4.024278261928066;0.4328409836893985;0.18735131716120612;4.05072312222314;0.8534560820980421;-0.9941878250229428;0.0002824992426223295;0.045885591924136104;-0.037728153359845;6.581598107469355e-05;0.020393596410727;0.0;53.72725476000001;86.84469476000001
2.132258503838553;0.4623935171122957;3.1948196009292698;-0.0397675130009177;0.01570439343993352;-0.0112164780258998;3.1972670401250975;0.380567315233862;0.1448314814243097;4.024278261928066;0.8270112218029682;-0.9941878250229428;0.00028000384997494765;0.045885591924136104;-0.037728153359845;7.486177942145235e-05;0.020393596410727;0.0;53.7274908;86.8448796
2.429123561854224;0.5400563844311221;3.3670635596498606;-0.0112164780258998;0.014958393654240676;-0.0112164780258998;3.2068842259459993;0.3561001647733674;0.12680732735161943;4.024278261928066;0.8270112218029682;-0.9870500662791885;0.00036515912406684837;0.053023350667890434;-0.037728153359845;9.232952795312427e-05;0.020393596410727;0.0;53.727717559999995;86.84507052000001
3.1469515510571253;0.9272543765904541;4.507282383122048;-0.0275313551544814;0.012998418256329126;-0.0112164780258998;3.6914197454504745;0.613397500393057;0.37625649348845036;4.704503499454192;1.5072364593290941;-0.9870500662791885;0.00019110548691197302;0.034669113898235904;-0.037728153359845;0.00027761243202121573;0.0428265524625267;0.0;53.727941279999996;86.8452584
3.3670635596498606;1.120676705105435;5.231918277395021;-0.040787192821454;0.01794462666666207;0.0071377587437544;3.694837098955694;0.8686718790057842;0.7545908333754399;5.33602664399881;2.129142418052811;-0.979912307535434;0.0003641193771304373;0.041806872641990345;-0.0428265524625267;0.00036775849140788025;0.0469052717446722;0.0;53.72815894;86.84544534
4.507282383122048;0.891608726878825;5.231918277395021;-0.0183542367696543;0.0184249117972801;0.0071377587437544;4.704503499454192;0.7834376554467076;0.6137745599718342;5.33602664399881;1.765451685609786;-0.979912307535434;0.00035351395837906536;0.041806872641990345;-0.0560823901294993;0.00022947214886547668;0.033649434077699596;0.0;53.7283652;86.84561576
5.231918277395021;0.8080891384915022;5.231918277395021;0.0071377587437544;0.02095187716057673;0.0071377587437544;5.33602664399881;0.7885441852591929;0.6218019321060844;5.33602664399881;1.765451685609786;-0.979912307535434;0.00029341658545462365;0.041806872641990345;-0.058121749770572;0.00019734396853043716;0.031610074436626896;0.0;53.728560040000005;86.84577988000001
3.4584942703550388;0.7170248929514073;5.231918277395021;-0.0326297542571632;0.02023235944877015;0.0071377587437544;3.5705749583890243;0.7407237636918151;0.5486716940977681;5.33602664399881;1.765451685609786;-0.979912307535434;0.00032315334783592316;0.041806872641990345;-0.0606709493219129;0.00015133516659433693;0.029060874885285998;0.0;53.72874992;86.84592368
3.6132511674359296;0.7235147247969664;5.231918277395021;0.0020393596410727;0.020324651481275425;0.0071377587437544;3.660568560603363;0.7411563855519908;0.5493127878444912;5.33602664399881;1.765451685609786;-0.979912307535434;0.00020119103219514025;0.03364943407769949;-0.0606709493219129;0.00014551258375044643;0.029060874885285998;0.0;53.72893944;86.84606712
4.140026787451728;0.46975386287421167;4.6001429302154495;-0.0382379932701131;0.02145450928705389;0.0112164780258998;4.167654856743059;0.45083350742065303;0.203250851413208;4.624243513727012;1.0536685553379876;-0.9850107066381156;0.00011416421361770592;0.028551034975017875;-0.0606709493219129;7.525168452260502e-05;0.020393596410726994;0.0;53.72912778;86.84620426000001
3.659430259427069;0.7184569272396693;5.335232524911951;-0.0101967982053635;0.01977758320617259;0.0112164780258998;3.6598405864326713;0.7259740569045441;0.5270383312984422;5.380203133516071;1.7203625470833996;-0.971754868971143;0.0003043339282869206;0.041806872641990456;-0.0622004690527174;0.00014119763396434952;0.028551034975017896;0.0;53.72931606000001;86.84634134000001
4.6001429302154495;1.0693879908205668;6.38568179671261;0.0112164780258998;0.020260604396075854;0.0112164780258998;4.624243513727012;1.0873767523714089;1.182388201597792;6.436020699942106;2.776180113509435;-0.971754868971143;0.0003103644605180934;0.041806872641990456;-0.0642398286937901;0.00030979259970307624;0.04588559192413581;0.0;53.72950082;86.8464749
5.335232524911951;1.5536377235485301;7.656359394307065;0.0061180789232181;0.020679649778104027;0.0458855919241358;5.380203133516071;1.577912672062314;2.4898084006548316;7.721792337047445;4.0619517506147735;-0.971754868971143;0.0002259370092816787;0.03568879371877265;-0.0642398286937901;0.0006987619286137018;0.0683185479759356;0.0;53.72971304;86.84664616
6.38568179671261;1.1513748572951852;7.656359394307065;0.0061180789232181;0.01796778850484962;0.0458855919241358;6.436020699942106;1.1648056217625398;1.3567721364896168;7.721792337047445;3.097548823320433;-0.971754868971143;0.0002575453161485135;0.03670847353930862;-0.0810645457326399;0.0003885534301360629;0.0514938309370858;0.0;53.72990406;86.84681158000001
7.656359394307065;0.9168537674943347;7.656359394307065;0.0458855919241358;0.023155938657418787;0.0479249515652085;7.721792337047445;0.9223265966848181;0.850686350952199;7.721792337047445;2.341589203531374;-0.971754868971143;0.00020046320933965424;0.03670847353930862;-0.0907515040277353;0.00026773483612533184;0.0418068726419904;0.0;53.73007854;86.84698605999999
5.888339735464555;0.8262107766412998;7.832490262253493;0.0020393596410727;0.024206391428986587;0.0479249515652085;5.988921560866333;0.8198308389211076;0.6721226044460871;7.903864867121029;1.9149433062546954;-0.9839910268175792;0.00010396169680419033;0.02447231569287245;-0.1040073416947078;0.00020150295627607617;0.033139594167431397;0.0;53.73023104;86.84716416
7.037744972219312;0.8408419512880244;7.902202799863334;0.0479249515652085;0.022892890671494;0.0479249515652085;7.1289595683195985;0.8214053890519347;0.6747068131635602;7.944315125451615;1.9553935645852816;-0.9768532680738248;0.00015181604955241603;0.03161007443662689;-0.1040073416947078;0.00018720643590045192;0.033139594167431397;0.0;53.73036384000001;86.84735328
7.832490262253493;0.9405844353938361;7.902202799863334;0.0005098399102681;0.01912545351694176;0.0479249515652085;7.903864867121029;0.9282927415406793;0.8617274139971105;7.944315125451615;1.9553935645852816;-0.9768532680738248;0.00013892318754094504;0.03161007443662689;-0.1040073416947078;0.00024049346639141495;0.033139594167431397;0.0;53.73043788;86.84751948
7.902202799863334;1.6180955941531163;7.902202799863334;0.020393596410727;0.018779833887176575;0.0479249515652085;7.944315125451615;1.581128341603043;2.499966832620389;7.944315125451615;3.8012871639066494;-0.9768532680738248;0.00013892318754094504;0.03161007443662689;-0.0703579076170082;0.0007603149472491175;0.06678902824513099;0.0;53.730502460000004;86.84769158
6.102338631331359;2.150296023484727;7.902202799863334;0.0163148771285816;0.013756232857379362;0.0387478331803813;6.161807423993465;2.0839765958133545;4.342958451897818;7.944315125451615;4.498615459674411;-0.9768532680738248;0.00017466448848000693;0.0326297542571633;-0.0571020699500356;0.0013516710173317632;0.0800448659121036;0.0;53.730556899999996;86.84788426
3.9879799620160266;2.13036415909065;7.902202799863334;0.0387478331803813;0.025721410840719293;0.0790251860915672;4.143027961544965;2.042814307330643;4.173090294234775;7.944315125451615;4.823169574121461;-0.9768532680738248;0.0001785245489814254;0.0326297542571633;-0.0499643112062812;0.0013161116721065742;0.08565310492505351;0.0;53.73062132;86.8481074
3.2366518208872272;1.2538634609250312;6.102338631331359;0.023452635872336;0.027565323526629007;0.0790251860915672;3.4456996657772043;1.1824530121035124;1.398195125832669;6.161807423993465;3.0406618726633106;-0.9901091057407974;7.30942096295487e-05;0.01937391659019072;-0.0499643112062812;0.0004845220723666191;0.05710206995003571;0.0;53.73070252;86.84834732
2.8680286624916267;1.3084639129077944;6.236812667060632;0.0790251860915672;0.03935752768991201;0.0790251860915672;3.1211455513301543;1.2367239619238515;1.529486157996628;6.294722347436349;3.173576796106195;-0.9901091057407974;0.00012456168298179563;0.02651167533394494;-0.0499643112062812;0.0005606315481117613;0.06118078923218111;0.0;53.73080904;86.84858696
4.181832079031492;1.6326927553140351;6.319083033342976;0.0101967982053635;0.0499429766143196;0.0790251860915672;4.325361605095404;1.5338866989909605;2.352808405341386;6.331489343767602;3.210343792437448;-0.9839910268175792;0.00018694649916633853;0.03262975425716308;-0.0499643112062812;0.0008253511181215052;0.06118078923218111;0.0;53.730933719999996;86.84881404000001
6.236812667060632;1.823483319912637;7.364880939167436;-0.0285510349750178;0.04929864578778325;0.0790251860915672;6.294722347436349;1.7206530337994297;2.960646862723181;7.365920281558658;4.244774730228504;-0.9839910268175792;0.00017259799144389232;0.03262975425716308;-0.0499643112062812;0.0010118817185132873;0.07749566636076269;0.0;53.73106818;86.84899970000001
6.319083033342976;1.6489639921211972;8.660142722939584;-0.0499643112062812;0.02869089837483377;0.0132558376669725;6.331489343767602;1.5980759875310002;2.5538468619231818;8.671112572679645;4.345750967584241;-0.9839910268175792;0.00017592518164040116;0.03262975425716308;-0.0723972672580809;0.0008265988144451966;0.0785153461812991;0.0;53.73119666;86.84913329999999
7.364880939167436;1.0876241276572927;8.660142722939584;0.0132558376669725;0.023811215937533534;0.0132558376669725;7.365920281558658;1.078673780424045;1.1635371245743005;8.671112572679645;2.376390225243296;-0.9839910268175792;0.00019339293017207337;0.03262975425716308;-0.1091057407973896;0.0003387495518820721;0.0418068726419904;0.0;53.731313119999996;86.84921904000001
8.660142722939584;0.8905935094819042;8.660142722939584;-0.037728153359845;0.027800070104818827;0.0132558376669725;8.671112572679645;0.8930187799967111;0.7974825414268143;8.671112572679645;2.3396232289120427;-0.9829713469970428;8.11002610398496e-06;0.007137758743754552;-0.1091057407973896;0.00024985118881909896;0.0418068726419904;0.0;53.731417799999996;86.84927252
8.194489709384294;0.7038259275954053;8.660142722939584;-0.0224329560517997;0.027075331531030127;0.0280411950647496;8.222506387092796;0.6822979816272176;0.46553053573257486;8.671112572679645;1.714525397696037;-0.9829713469970428;3.867858603441103e-05;0.015295197308045405;-0.1203222188232894;0.00014691624211460406;0.030590394616090602;0.0;53.731515439999995;86.84931895999999
7.563238478914252;1.6365858129941915;8.660142722939584;0.0081574385642908;0.04199236617294763;0.0683185479759355;7.627014650522257;1.5733562470114588;2.4754498800099825;8.671112572679645;4.011634956432851;-0.9829713469970428;5.48986382423924e-05;0.015295197308045405;-0.078515346181299;0.0007907275451390862;0.072397267258081;0.0;53.731616800000005;86.84934864
6.870088463712999;1.597535426245467;8.194489709384294;0.0280411950647496;0.03407088885183177;0.0683185479759355;6.956587174983608;1.5314986000013937;2.3454879618062288;8.222506387092796;3.5630287708460022;-0.9829713469970428;6.89352218839138e-05;0.016314877128581595;-0.078515346181299;0.0007399878946423251;0.06322014887325379;0.0;53.7317255;86.84935494
4.486699828562319;1.3293116181275788;7.563238478914252;0.0683185479759355;0.04842808259096832;0.0683185479759355;4.659477616246794;1.274314812043332;1.623878240193033;7.627014650522257;2.9675370342754634;-0.9829713469970428;5.021977702855067e-05;0.016314877128581595;-0.078515346181299;0.0005195615441236076;0.05200367084735401;0.0;53.73184282;86.84933402
5.073159973080413;0.9442883961159928;6.870088463712999;0.0010196798205363;0.06118440049163294;0.0683185479759355;5.251716716082444;0.9048737093226131;0.818796429823265;6.956587174983608;2.297109558736814;-0.9901091057407974;5.895365129438727e-05;0.021413276231263545;-0.078515346181299;0.0002708540769345626;0.0418068726419904;0.0;53.73197921999999;86.84928098
5.05066094615275;0.25128249903321087;5.073159973080413;-0.0647496686040583;0.06245528495880355;0.0683185479759355;5.230982021352491;0.2536051885908614;0.06431559168020637;5.251716716082444;0.5922390998356502;-0.9901091057407974;5.9785448843514626e-05;0.021413276231263545;-0.078515346181299;1.7415761184858056e-05;0.010196798205363497;0.0;53.73212852;86.84918964
4.7123658935640815;0.7690933174377022;6.638414719904377;-0.07545630671969;0.03671272195938412;0.0010196798205363;4.896713036103741;0.731251537387881;0.5347288109321395;6.735119775590103;1.838406739486362;-0.9901091057407974;6.72716267856595e-05;0.021413276231263545;-0.0836137452839808;0.00017706890327046676;0.032629754257163204;0.0;53.73228592;86.84907568
4.958504895177495;1.1487865162671544;7.266700422570528;-0.0713775874375446;0.012538330701694281;-0.0647496686040583;5.143432728443202;1.0963261963868995;1.2019311288841665;7.345046146035043;2.4483331099313013;-0.9901091057407974;7.413395656596008e-05;0.021413276231263545;-0.0836137452839808;0.00041428716681219134;0.0448659121035995;0.0;53.732444959999995;86.84895824
6.638414719904377;1.3651986571386798;7.746427154883158;-0.095849903130417;0.04155992794462842;0.0122361578464362;6.735119775590103;1.3103754108714554;1.7170837174165352;7.822929616570572;2.9262165804668303;-0.9941878250229428;3.9198459502616546e-05;0.01733455694911812;-0.0836137452839808;0.000576487688892003;0.053023350667890295;0.0;53.732600860000005;86.84884278
7.266700422570528;1.0890631986533157;7.746427154883158;-0.0662791883348628;0.05877372922345298;0.0397675130009177;7.345046146035043;1.0452120854817315;1.0924683036370706;7.822929616570572;2.6794968881273693;-0.9829713469970428;8.86904136756845e-05;0.022432956051800068;-0.087182624655858;0.0003654710481477874;0.0494544712960131;0.0;53.732736120000006;86.84873739999999
7.746427154883158;0.3944086044166578;7.746427154883158;0.0122361578464362;0.055675825467758316;0.0397675130009177;7.822929616570572;0.3872067632641327;0.1499290775174861;7.822929616570572;1.0878098409804684;-0.9829713469970428;8.245193205722938e-05;0.022432956051800068;-0.116243499541144;5.333901783779142e-05;0.02039359641072709;0.0;53.73285361999999;86.84863474
7.2653923061105;0.59041745959776;7.746427154883158;0.0397675130009177;0.04046985760083083;0.0397675130009177;7.357321517323886;0.5769522162717347;0.3328738598608665;7.822929616570572;1.5571966234676475;-0.9829713469970428;8.577912225373926e-05;0.022432956051800068;-0.1080860609768532;0.00010990125117844376;0.028551034975017903;0.0;53.7329505;86.8485217
7.290115214581886;1.0166505552724778;7.746427154883158;-0.0152951973080452;0.019753911643882356;0.0397675130009177;7.373935609505015;0.9979028961953204;0.9958101902350083;7.822929616570572;2.4439563077312467;-0.9829713469970428;9.856800957157001e-05;0.02549199551340886;-0.092790863668808;0.000306413422159753;0.0438462322830631;0.0;53.733026159999994;86.84839256000001
6.153892548439243;0.9828842997858825;7.290115214581886;0.0152951973080452;0.020025743266429967;0.0397675130009177;6.265732993102924;0.9672544348795233;0.9355811417941061;7.373935609505015;1.9949623006656898;-0.9829713469970428;8.941823653116948e-05;0.02549199551340886;-0.092790863668808;0.0002758448622293272;0.03466911389823589;0.0;53.733082100000004;86.84823858
5.257008102594862;0.8154243730903341;7.290115214581886;0.0061180789232181;0.013969985682311007;0.0152951973080452;5.378973308839325;0.8024007831903474;0.6438470168644828;7.373935609505015;1.9949623006656898;-0.9962271846640156;2.6201622797501358e-05;0.012236157846436058;-0.092790863668808;0.00019931948770962154;0.03466911389823589;0.0;53.73312336;86.84804944
5.379396109782133;0.36153963927042626;6.153892548439243;0.0040787192821454;0.01303037507962046;0.0152951973080452;5.494379456698735;0.35218164068496394;0.12403190803555306;6.265732993102924;0.8867596842635992;-0.9850107066381156;7.881281777979763e-05;0.023452635872336036;-0.092790863668808;3.930243419626976e-05;0.015295197308045197;0.0;53.73315032000001;86.84783576
5.807918454939876;0.6347098014102214;6.868538803979337;-0.0163148771285816;0.02052572675042087;0.0061180789232181;5.900367126923385;0.5965058620581717;0.3558192434697625;6.891704249783157;1.5127309409438316;-0.9809319873559702;0.0001333995319412693;0.027531355154481463;-0.092790863668808;0.0001048064911900394;0.025491995513408708;0.0;53.73316648;86.84761128
5.792423516476774;0.6224752048770684;6.868538803979337;-0.0112164780258998;0.018713277857782287;0.0040787192821454;5.838311484132385;0.585877602730959;0.34325256538177545;6.891704249783157;1.3973247930844215;-0.9809319873559702;8.078833695896807e-05;0.021413276231263434;-0.0938105434893443;0.00010480649119003947;0.024472315692872407;0.0;53.7331776;86.84738175999999
6.868538803979337;0.47901014045351825;6.868538803979337;-0.0448659121035994;0.014264588162833493;-0.0112164780258998;6.891704249783157;0.4569877905094239;0.2088378406746851;6.891704249783157;1.0533927656507718;-0.9809319873559702;0.00010210314915535412;0.021413276231263434;-0.0999286224125624;6.11371198608596e-05;0.01835423676965431;0.0;53.73318501999999;86.84715366
6.610301760206878;0.7153635598727438;6.868538803979337;-0.0305903946160905;0.014147483354248579;-0.0112164780258998;6.63331513257699;0.6950867344666061;0.4831455684314501;6.891704249783157;1.7610587274473604;-0.9809319873559702;0.00010210314915535412;0.021413276231263434;-0.0887121443866625;0.0001408857098834337;0.029570714795554204;0.0;53.73319002000001;86.84692826
6.2179498780151015;0.8266368770015554;6.868538803979337;-0.0132558376669725;0.014147483354248579;-0.0112164780258998;6.262420929006991;0.7892164030515519;0.6228625308456297;6.891704249783157;1.7610587274473604;-0.9809319873559702;0.00016823105431097555;0.031100234526358794;-0.0887121443866625;0.00017914839714328656;0.029570714795554204;0.0;53.73319768;86.8467004
5.057008082504533;0.722093021330324;6.610301760206878;-0.0173345569491179;0.0075483860602922745;-0.0112164780258998;5.130645522335796;0.6707002145614277;0.4498387778127451;6.63331513257699;1.5026696102411936;-0.9850107066381156;9.430504713229653e-05;0.027021515244213368;-0.0887121443866625;0.00014421290007994299;0.025491995513408805;0.0;53.733206640000006;86.84645848
5.18109954225527;0.7366494043712442;6.2179498780151015;-0.0112164780258998;0.011038946550606143;-0.0112164780258998;5.306683414098616;0.6675472374312355;0.44561931420207423;6.262420929006991;1.872396251744119;-0.9992862241256244;4.33574472482616e-05;0.014275517487509104;-0.0734169470786173;0.00016084885106248796;0.0356887937187723;0.0;53.73321522;86.84620082
5.130397550903233;0.5047097239453908;5.18109954225527;-0.0173345569491179;0.01078163751433568;-0.0112164780258998;5.328120493044896;0.44424900964468406;0.19735718257028256;5.328120493044896;0.9380958157820238;-0.9992862241256244;3.7898775832115744e-05;0.014275517487509104;-0.0734169470786173;7.506972880874158e-05;0.018354236769654295;0.0;53.7332253;86.84588321999999
4.139948087482432;0.4783553823313963;5.18109954225527;-0.0387478331803813;0.011248875595408644;-0.0112164780258998;4.390024677262872;0.4309603746867175;0.18572684455011593;5.328120493044896;0.9380958157820238;-0.9992862241256244;3.2440104415968786e-05;0.014275517487509104;-0.0734169470786173;6.841534841572395e-05;0.018354236769654295;0.0;53.73323714000001;86.84555202
4.278581370914581;0.47926063803294205;5.184429728646224;-0.0152951973080452;0.019122735095562605;-0.0152951973080452;4.5331316157648365;0.4755751651857929;0.22617173774149418;5.473923072453212;1.0838983951903405;-0.9982665443050882;4.086205460087852e-05;0.015295197308045294;-0.0734169470786173;6.373648720188347e-05;0.017334556949117993;0.0;53.73324720000001;86.84520368
4.5790118852628;0.4065313001396361;5.184429728646224;-0.0285510349750178;0.017283497760300696;-0.0152951973080452;4.891556863053755;0.4272341815662654;0.18252904589859664;5.473923072453212;1.0838983951903405;-0.9982665443050882;3.0724521970891686e-05;0.015295197308045294;-0.0734169470786173;4.626873867021159e-05;0.017334556949117993;0.0;53.73325678;86.84486509999999
5.184429728646224;0.4388526131200395;5.338504265938535;-0.0622004690527174;0.01898631778025997;-0.0152951973080452;5.473923072453212;0.44340362058422084;0.19660677074719568;5.624566526987667;1.09143491122283;-0.9819516671765066;0.00011936294829975319;0.02651167533394505;-0.07545630671969;4.8140283155747645e-05;0.016314877128581595;0.0;53.733266459999996;86.84452662
4.6869081105998;0.3615028249241464;5.338504265938535;-0.0316100744366268;0.017904021349822743;-0.0163148771285816;5.016538879684423;0.33911008088004674;0.11499564695447186;5.624566526987667;0.7330096639339114;-0.9819516671765066;9.859400324498005e-05;0.024982155603140543;-0.0800448659121036;3.223215502868919e-05;0.011726317936168004;0.0;53.733275019999994;86.84424846
5.338504265938535;0.393740091794984;5.453324142562795;-0.0163148771285816;0.01865484654496271;-0.0163148771285816;5.624566526987667;0.3768855101032805;0.1420426877258099;5.7795917073396685;0.8568948870351765;-0.971754868971143;0.00020839127972976468;0.03517895380850411;-0.0800448659121036;3.41036995142253e-05;0.012745997756704402;0.0;53.73328042000001;86.84398250000001
4.576360018754013;0.6706607334068747;6.239700775442511;-0.0214132762312633;0.011109363678976084;-0.0163148771285816;4.922696820304492;0.6680375285511196;0.446274139552688;6.576905231365866;1.654208411061374;-0.971754868971143;0.00032505088599486397;0.04384623228306306;-0.0800448659121036;0.0001495156094556293;0.03110023452635871;0.0;53.7332842;86.8437354
5.453324142562795;0.7594405154329231;6.239700775442511;-0.020393596410727;0.014409630918274251;-0.0040787192821454;5.7795917073396685;0.707780151715992;0.5009527431631126;6.576905231365866;1.7322387093394003;-0.971754868971143;0.0002852025846569844;0.04384623228306306;-0.07545630671969;0.00019209324650157952;0.0356887937187723;0.0;53.73328584000001;86.84347592
6.239700775442511;0.7804039267902815;6.239700775442511;-0.0438462322830631;0.016589786438272008;-0.0040787192821454;6.576905231365866;0.7234609997729151;0.5233958181924259;6.576905231365866;1.7322387093394003;-0.971754868971143;0.0002550499235011275;0.04384623228306306;-0.07545630671969;0.0002019188550506453;0.0356887937187723;0.0;53.73328728;86.84320600000001
4.331394334497773;0.8894551844803037;6.239700775442511;-0.0040787192821454;0.01873271445995087;-0.0040787192821454;4.844666522026466;0.8114010540154273;0.6583716704573463;6.576905231365866;2.043052042584443;-0.971754868971143;0.0002726216467264419;0.04384623228306306;-0.0713775874375446;0.0002531783790156113;0.0397675130009177;0.0;53.733286680000006;86.84291868
4.706503020959517;1.0031885549077906;6.239700775442511;-0.0418068726419904;0.018514982174824307;-0.0040787192821454;5.183148153119845;0.9476541352816837;0.8980483601164757;6.576905231365866;2.4936600598115906;-0.9962271846640156;6.207289210361504e-05;0.0193739165901905;-0.0632201488732537;0.0003376058302520265;0.04792495156520861;0.0;53.73328504;86.84260472
4.052161497197363;0.3966183067905736;4.706503020959517;-0.0479249515652085;0.023688634861045964;-0.0040787192821454;4.533853188781423;0.41656338216983996;0.17352505136477614;5.183148153119845;1.0999029815655694;-0.9890894259202612;4.3149497860966445e-05;0.017334556949117896;-0.0632201488732537;4.969990356036132e-05;0.019373916590190707;0.0;53.73328300000001;86.84226988
3.62339855478042;0.40851794435049926;4.706503020959517;-0.0469052717446721;0.014409630918274343;-0.0295707147955541;4.0832451715542755;0.44220708632290623;0.19554710719419424;5.183148153119845;1.0999029815655694;-0.9890894259202612;5.3546967225058535e-05;0.017334556949117896;-0.0632201488732537;5.219529620774291e-05;0.019373916590190707;0.0;53.73328633999999;86.84191994
4.11752132341489;0.20942075020538078;4.11752132341489;-0.0693382277964719;0.021469043222978774;-0.0122361578464362;4.44396869247467;0.19623300507647576;0.03850739228134416;4.533853188781423;0.4506080172271476;-0.9890894259202612;5.3546967225058535e-05;0.017334556949117896;-0.0632201488732537;1.3308760786044902e-05;0.008157438564290909;0.0;53.733297459999996;86.84156242
3.823988024915864;0.21675882849184644;4.11752132341489;-0.0295707147955541;0.02159940856520705;-0.0122361578464362;4.124537530993801;0.21275865127829868;0.045266243693760706;4.44396869247467;0.5715813107822867;-0.9890894259202612;4.606078928291297e-05;0.017334556949117896;-0.0632201488732537;1.3308760786044855e-05;0.008157438564290909;0.0;53.73332036000001;86.84120644
4.072887545893781;0.16752081051925594;4.11752132341489;-0.0122361578464362;0.02130862471230443;-0.0122361578464362;4.262909652126831;0.21677706995338922;0.046992298057576605;4.44396869247467;0.5715813107822867;-0.9890894259202612;4.606078928291389e-05;0.017334556949117896;-0.0652595085143265;7.070279167590345e-06;0.006118078923218098;0.0;53.73335556000001;86.84085764
3.719702737821428;0.23776408199562854;4.324712876051666;-0.0295707147955541;0.008048368414671556;-0.0122361578464362;3.8723873816923837;0.22003672877549604;0.048416162010221205;4.453522014319206;0.5811346326268221;-0.9972468644845518;1.112529221957203e-05;0.009177118384827265;-0.0652595085143265;1.5804153433426303e-05;0.010196798205363497;0.0;53.73340752;86.84052048
3.8938699447943184;0.2625065026100161;4.324712876051666;-0.0265116753339451;0.007832309317700173;-0.0122361578464362;4.04470826017106;0.2393784748115803;0.057302054203118395;4.453522014319206;0.5811346326268221;-0.9972468644845518;4.0238206439027084e-05;0.01733455694911812;-0.0652595085143265;2.2354559132803123e-05;0.011216478025899798;0.0;53.73347467999999;86.84020876
4.324712876051666;0.3601197973080911;4.324712876051666;-0.0326297542571632;0.01762601442751654;0.0101967982053635;4.453522014319206;0.35260549564258087;0.1243306355573501;4.453522014319206;0.8519532524098321;-0.9972468644845518;5.011580233491238e-05;0.01733455694911812;-0.061180789232181;4.3149497860984416e-05;0.015295197308045301;0.0;53.73355742;86.83992286
4.309160447997895;0.33718224930045987;4.324712876051666;-0.0265116753339451;0.021369530983876332;0.0101967982053635;4.371864607043058;0.3351546487598374;0.11232863858532997;4.453522014319206;0.8519532524098321;-0.9972468644845518;8.661091980287133e-05;0.0193739165901905;-0.061180789232181;3.878256072806645e-05;0.015295197308045301;0.0;53.73365632;86.83964288
3.510495383597125;0.3806551299669135;4.324712876051666;0.0101967982053635;0.022077893101212293;0.0112164780258998;3.6015687619093737;0.3789363685810245;0.143592771433374;4.453522014319206;0.8519532524098321;-0.9809319873559702;0.00021470774236846072;0.035688793718772094;-0.061180789232181;5.3754916612356757e-05;0.015295197308045301;0.0;53.733793219999995;86.8393241
4.073160302166567;0.4987784234307098;4.309160447997895;0.0101967982053635;0.017400411141186036;0.0163148771285816;4.134477123842918;0.473801424489049;0.224487789847852;4.371864607043058;1.216272888743263;-0.9809319873559702;0.0002696063806108632;0.03874783318038133;-0.0540430304884266;8.214000797632365e-05;0.022432956051799707;0.0;53.733926659999995;86.83900186
3.628006251083548;0.49802984153085966;4.306661923021242;0.0112164780258998;0.01469895960215542;0.0163148771285816;3.733578627267825;0.4981674436518933;0.2481708019146623;4.4503078109219745;1.2947160926221795;-0.9809319873559702;0.0003729572260899261;0.047924951565208596;-0.0540430304884266;8.806656551385546e-05;0.023452635872336106;0.0;53.73404402;86.83865842
3.03345022399296;0.6341279110540038;4.306661923021242;0.0163148771285816;0.01604821847273141;0.0163148771285816;3.155591718299795;0.5641498652096718;0.3182650704160909;4.4503078109219745;1.2947160926221795;-0.9809319873559702;0.00034238866615950186;0.047924951565208596;-0.0499643112062812;0.00013724659560600334;0.027531355154481504;0.0;53.734139920000004;86.83827304
4.306661923021242;0.6070183600627242;4.306661923021242;-0.020393596410727;0.02078996877018427;0.0163148771285816;4.4503078109219745;0.6043263572863327;0.3652103461109682;4.4503078109219745;1.2947160926221795;-0.9809319873559702;0.000396455506852775;0.047924951565208596;-0.0499643112062812;0.00012872067072744922;0.027531355154481504;0.0;53.73421893999999;86.83775814
2.8477219546984034;0.8151124248271135;4.306661923021242;-0.0112164780258998;0.019658940364710404;0.0163148771285816;3.2190908989572407;0.6667260865251512;0.44452367445314345;4.4503078109219745;1.2947160926221795;-1.0043846232283062;0.00010314289609179045;0.02447231569287256;-0.040787192821454;0.00022697675621810467;0.0367084735393087;0.0;53.7342651;86.83724622
3.917828942892968;1.0341270090362629;4.306661923021242;-0.0326297542571632;0.02132325808340922;-0.0112164780258998;4.332165127835895;0.6829405435258237;0.4664077859913475;4.4503078109219745;1.3758138174941204;-1.0043846232283062;0.00010272699731722665;0.02447231569287256;-0.0336494340776996;0.00035590537633282634;0.0438462322830631;0.0;53.73433586;86.83669746000001
2.305757944268972;1.1363090991498994;3.917828942892968;-0.0295707147955541;0.023146956524164965;-0.0112164780258998;3.1570940812319765;0.5867790386188598;0.34430964016247345;4.332165127835895;1.5179000403094327;-1.0043846232283062;9.274542672769882e-05;0.022432956051799735;-0.0152951973080452;0.00041298748314168434;0.05506271030896301;0.0;53.734453699999996;86.83614458
1.887852912492418;1.1381236240829578;3.917828942892968;-0.0672988681553992;0.01655841982590933;-0.0295707147955541;3.074493993427854;0.5877105893003883;0.3454037367758097;4.332165127835895;1.5179000403094327;-0.99214846538187;0.00020503809585987353;0.034669113898236015;-0.0152951973080452;0.00042192930679480254;0.05506271030896301;0.0;53.734617639999996;86.83560708
0.8519385538545617;0.5873906543337303;2.305757944268972;-0.0601611094116447;0.014681264929071914;-0.0295707147955541;2.814265087526462;0.5367553327658177;0.2881062872525436;4.205967889028456;1.3917028015019945;-0.99214846538187;0.0002393497447613642;0.034669113898236015;-0.0152951973080452;0.00010444257976230091;0.0254919955134088;0.0;53.73482388;86.83516308
1.61719788376212;0.8744063842549488;2.2319518772862854;-0.0458855919241358;0.04413341065423189;-0.0448659121035994;3.4901035854814677;0.5873207915002798;0.3449457121285151;4.205967889028456;1.3917028015019945;-0.99214846538187;0.00032419309477234694;0.03670847353930884;-0.0010196798205363;0.00023217549090015307;0.037728153359845;0.0;53.735084400000005;86.83472216
2.2319518772862854;0.8391315533867489;2.2319518772862854;-0.0448659121035994;0.045673233720829;-0.0448659121035994;4.205967889028456;0.6080755867761104;0.369755919233111;4.274305621529922;1.46004053400346;-0.99214846538187;0.00032980772822895223;0.03670847353930884;-0.0010196798205363;0.00021034080523556317;0.037728153359845;0.0;53.73537426;86.83432594
0.0561835213525953;0.8282695642792319;2.2319518772862854;-0.15091261343938;0.0497714484016143;-0.0448659121035994;3.9804784817328636;0.3679050306815355;0.1353541116007816;4.440453404860165;0.950349819378697;-0.99214846538187;0.0009399312305137936;0.07137758743754485;-0.0010196798205363;0.00020742951381361765;0.037728153359845;30.0;53.73567784000001;86.83397416
0.7583570832542281;0.8023891499881455;2.2319518772862854;-0.0479249515652085;0.0464788361491236;-0.0448659121035994;4.274305621529922;0.1761106301363698;0.031014954047029242;4.440453404860165;0.45997492312730115;-0.9931681452024064;0.0008045561793933438;0.07035790761700844;-0.0010196798205363;0.0001962002469004001;0.037728153359845;30.0;53.73600308;86.83366964000001
1.2555301354726334;0.45058265063230557;1.2555301354726334;-0.1182828591822167;0.040265089071584444;-0.0479249515652085;4.440453404860165;0.17632668882126787;0.031091101190672234;4.440453404860165;0.45997492312730115;-1.0003059039461608;0.0005643746370828567;0.063220148873254;-0.0010196798205363;7.0494842288547e-05;0.0224329560517997;30.0;53.73634826;86.83343626000001
0.7884170687938582;0.35173048335263;1.2555301354726334;-0.0703579076170082;0.02857469630918282;-0.0479249515652085;4.362487223696055;0.07350177911457086;0.005402511533007164;4.444185258889996;0.16987963736007394;-1.0003059039461608;0.0005731085113486908;0.063220148873254;-0.0071377587437544;4.34614219419114e-05;0.016314877128581602;30.0;53.73669884000001;86.8332902
0.4011383215971619;0.35017605128036416;1.2555301354726334;-0.0999286224125624;0.03362934347756615;-0.0316100744366269;4.326064716480964;0.10390244186692574;0.010795717425909884;4.444185258889996;0.25368093259515767;-1.006423982869379;0.0004988705800890848;0.05710206995003575;-0.0071377587437544;4.1901801537297754e-05;0.016314877128581602;0.0;53.73706422;86.83318966
1.1983428137265884;0.31722789295255266;1.1983428137265884;-0.0632201488732537;0.02664273322102027;-0.0316100744366269;4.444185258889996;0.17382952440056595;0.03021670355332695;4.444185258889996;0.4437179162890068;-1.0023452635872336;0.00016823105431099426;0.03262975425716319;-0.0071377587437544;3.114042074546439e-05;0.0142755174875089;0.0;53.73753318;86.83312102000001
1.0442771746718549;0.7440950353569359;1.1983428137265884;-0.0316100744366269;0.030414845870448362;-0.0316100744366269;4.190504326294838;0.2908937004381945;0.08461914495462605;4.444185258889996;0.7395482175670192;-1.0003059039461608;7.985256471622197e-05;0.021413276231263545;0.0101967982053635;0.00017213010532253086;0.0316100744366268;0.0;53.738014539999995;86.83308525999999
1.0772394131706409;0.7343865570389913;1.1983428137265884;-0.0418068726419904;0.02757475175946171;-0.0316100744366269;4.000467342600989;0.3620027090722093;0.13104596137561864;4.444185258889996;0.8980049131092702;-1.0003059039461608;0.00019266510731660554;0.032119914346895095;0.0101967982053635;0.0001675812124757412;0.0316100744366268;0.0;53.73850474000001;86.83309418
-0.58148329915394;0.9461060051352103;1.0772394131706409;-0.0938105434893443;0.028672772844959275;-0.0316100744366269;3.7046370413229766;0.25478676388787863;0.06491629505245762;4.190504326294838;0.6443239805141125;-1.0003059039461608;0.0002781323054894305;0.0336494340776996;0.0173345569491179;0.0002821613248680179;0.0361986336290404;0.0;53.73899504;86.83316976
0.5919759727328272;0.8605479567572564;1.0772394131706409;-0.0887121443866625;0.025149116513659576;-0.0418068726419904;3.5461803457807255;0.232587848161385;0.05409710711234348;4.000467342600989;0.6184491526874534;-0.9850107066381156;0.00046263539935521055;0.048944631385744786;0.0173345569491179;0.00023350116824407465;0.0361986336290404;30.0;53.73947558;86.83331749999999
-0.9575153020311544;1.4666128376499996;2.802770724823352;-0.0815743856429081;0.03650254373339198;-0.0081574385642908;3.759939975395882;0.25731764909140176;0.06621237253392578;4.0697872079260184;0.6877690180124829;-0.9788926277148976;0.0006718844703075238;0.055062710308962814;0.0173345569491179;0.0006439152777181345;0.0652595085143264;30.0;53.739855;86.83354331999999
0.5332681363092542;1.3572217575113508;2.802770724823352;-0.0438462322830631;0.037050315690882386;-0.0081574385642908;3.3820181899135355;0.542191506524882;0.2939716297477212;4.0697872079260184;1.44755737860695;-0.9788926277148976;0.0007042985810500838;0.055062710308962814;0.0173345569491179;0.0005511178636436274;0.0652595085143264;30.0;53.740219839999995;86.83383648
2.802770724823352;1.5958672801177693;2.802770724823352;-0.0081574385642908;0.030329261689679917;-0.0081574385642908;4.0697872079260184;0.5498224573823038;0.3023047346419154;4.0697872079260184;1.44755737860695;-0.9788926277148976;0.0006880005478218727;0.055062710308962814;0.0173345569491179;0.0007914553679945777;0.0652595085143264;30.0;53.740574800000005;86.83416584
0.2857322309610082;1.2606198047321249;2.802770724823352;-0.014785357397777;0.02620497785061756;-0.0081574385642908;2.6222298293190685;0.7649929843248491;0.5852142660662387;4.0697872079260184;1.8630896552127965;-0.9788926277148976;0.0008633018813004424;0.0672988681553991;-0.0050983991026817;0.00048535386991575586;0.0428265524625268;30.0;53.74092584;86.83451688
2.544679504634429;1.259638535612229;2.802770724823352;-0.0571020699500356;0.02687103012519737;-0.0081574385642908;3.6806524256567155;0.8853285925601143;0.7838067168044729;4.0697872079260184;1.949257376968332;-0.9727745487916796;0.0010623094449291248;0.07341694707861712;-0.0050983991026817;0.0004853538699157559;0.0428265524625268;30.0;53.74126966;86.83485558
0.3343471033318985;1.184060661147767;2.544679504634429;-0.0683185479759355;0.021396274818316074;-0.014785357397777;2.206697552713222;0.689357957100667;0.47521439301800505;3.6806524256567155;1.695074507297264;-0.9727745487916796;0.0007588073141913416;0.07341694707861712;0.0122361578464362;0.0004546813352916893;0.058121749770571995;30.0;53.741609340000004;86.83516965999999
0.5397395283592152;1.4560342653449616;2.544679504634429;-0.0520036708473539;0.026102608441089744;-0.0020393596410727;2.1205298309576865;0.7089419341562297;0.502598666005176;3.6806524256567155;1.695074507297264;-0.9727745487916796;0.0007675411884571787;0.07341694707861712;0.0224329560517997;0.0006848813070126517;0.0683185479759355;30.0;53.7419395;86.83545886
-0.6858160872674398;0.9996544201139326;1.249460214496385;-0.0316100744366268;0.029628674260083927;-0.0020393596410727;1.9855779183594515;0.08625207072070264;0.007439419703609089;2.206697552713222;0.22111963435377047;-0.9727745487916796;0.0007436270089197686;0.07341694707861712;0.0224329560517997;0.00031899436009030877;0.0448659121035994;30.0;53.74226456;86.83574296000002
-1.2527870515179127;1.0306951348415943;1.249460214496385;-0.0020393596410727;0.0269868623890907;-0.0020393596410727;2.1081542300968468;0.2892807786896119;0.0836833689192682;2.1205298309576865;0.694773109716468;-0.9727745487916796;0.0005040693147711104;0.05302335066789021;0.0224329560517997;0.00033822967841387575;0.0448659121035994;30.0;53.74257334;86.83601078000001
1.249460214496385;1.0007952661857822;1.249460214496385;-0.0749464668094218;0.026526378177482577;-0.0020393596410727;2.026955478760816;0.42453230048104285;0.18022767415172647;2.1081542300968468;0.9546457994250213;-0.9768532680738248;0.00042920753534966317;0.04894463138574501;0.0224329560517997;0.00032055398049492235;0.0448659121035994;30.0;53.74293478;86.8363415
0.6359075519445115;0.9504210914835116;1.249460214496385;-0.0469052717446721;0.02896321508905425;-0.0020393596410727;1.4257567212412185;0.48600967797513256;0.23620540708549204;2.1081542300968468;1.0412205231299563;-0.9758335882532884;0.0006257197063309565;0.04996431120628142;0.0224329560517997;0.00028852977485352356;0.0448659121035994;30.0;53.74329728;86.83667328
-0.0597418090373714;0.8154350501894967;1.249460214496385;-0.0458855919241358;0.05862449582685789;0.0764759865402263;1.1535084306718255;0.37624924163053924;0.14156349182755593;2.026955478760816;0.9600217717939254;-0.9758335882532884;0.0005408763563199562;0.04996431120628142;0.0142755174875089;0.00020618181748992715;0.0367084735393086;30.0;53.743668879999994;86.83700392
-0.2993162404836904;0.9622894831695442;0.6359075519445115;-0.0142755174875089;0.05086863670908816;0.0764759865402263;1.0669337069668905;0.5222470135630135;0.2727419431754864;2.373259801259399;1.3063260942925083;-0.9758335882532884;0.00022177802153600475;0.033649434077699714;0.0336494340776996;0.0002805237234431757;0.0448659121035994;0.0;53.74405310000001;86.83731646000001
-0.8346945821369239;0.7237827735531563;-0.0597418090373714;0.0764759865402263;0.048835105692948265;0.0764759865402263;1.3662786545026049;0.5356167199337027;0.28688527067253855;2.373259801259399;1.3063260942925083;-0.9758335882532884;5.957749945618132e-05;0.01835423676965442;0.0336494340776996;0.00015835345841511427;0.0326297542571633;30.0;53.744462340000005;86.83758746000001
-1.9379151980573324;0.6819263782616387;-0.2993162404836904;-0.0244723156928724;0.04425104976539151;0.0764759865402263;2.373259801259399;0.5665064745715895;0.3209295857315311;2.373259801259399;1.3063260942925083;-0.9758335882532884;5.957749945618589e-05;0.01835423676965442;0.0336494340776996;0.0001408857098834423;0.028551034975017903;30.0;53.74490479999999;86.83775344
-0.8315508732332569;0.561803127008826;-0.8315508732332569;-0.0336494340776996;0.04413812223860038;0.0764759865402263;1.7635700247600827;0.46193359697457126;0.2133826480138656;2.4317896309677383;1.0655109764651334;-0.9768532680738248;0.0008793139841211029;0.07341694707861712;0.0346691138982359;0.00010470251649640778;0.020393596410726997;30.0;53.74537996;86.8378702
-1.7141780002595772;0.4588070780866021;-0.8315508732332569;-0.0071377587437544;0.030373795559260414;0.0183542367696543;2.282311019631876;0.3037568895338305;0.09226824793926772;2.4317896309677383;0.6682196062076555;-0.9829713469970428;0.0007969660267575256;0.0672988681553991;0.0346691138982359;6.93511206585005e-05;0.020393596410726997;30.0;53.7458649;86.83795066
-1.890342065550925;0.4909680745989428;-0.8273355366923493;0.0183542367696543;0.03065066629605945;0.0183542367696543;2.4317896309677383;0.4075925712299949;0.16613170412187847;2.4317896309677383;1.013213208587632;-0.9829713469970428;0.0008450023352196225;0.0672988681553991;0.0346691138982359;8.317975491274013e-05;0.020393596410726997;30.0;53.74634058;86.83801162
-1.3694735231886297;0.5473954748129958;-0.6282305790934817;-0.0632201488732537;0.030111647512142365;0.0183542367696543;1.8796976151350984;0.5050986592972373;0.25512465562386655;2.4317896309677383;1.137452853163565;-0.9880697460997246;0.0006990218653478028;0.062200469052717255;0.0346691138982359;9.908788303979871e-05;0.0234526358723361;30.0;53.746822540000004;86.83809934
-0.8273355366923493;1.0543163265358828;0.9059295060123126;-0.0311002345263587;0.03384277231258376;0.0183542367696543;1.4185764223801063;0.47458592571361696;0.22523180088545078;2.4317896309677383;1.137452853163565;-0.9880697460997246;0.0005029255931410742;0.062200469052717255;0.0346691138982359;0.0003657829722287173;0.0509839910268175;30.0;53.74722326;86.83822358
-0.6282305790934817;1.2316774418128928;0.9059295060123126;-0.0193739165901906;0.02179051243510818;-0.0193739165901906;1.2943367778041732;0.5814722679356908;0.3381099983782758;2.696465123803636;1.402128345999463;-0.9880697460997246;0.0002677348361253361;0.04180687264199057;0.0438462322830631;0.000479011413603663;0.060161109411644695;0.0;53.74759512000001;86.83842136000001
0.9059295060123126;1.2037931892608724;0.9059295060123126;-0.0622004690527174;0.020981011872695358;-0.0193739165901906;1.399121616324021;0.5781083280148619;0.3342092389201391;2.696465123803636;1.402128345999463;-0.92790863668808;0.0016930199365548177;0.10196798205363522;0.0438462322830631;0.0004546813352916912;0.060161109411644695;0.0;53.747954019999995;86.8386881
-2.484004147464886;1.4738389789382862;0.9059295060123126;-0.0209034363209952;0.023355454106345257;-0.0158050372183134;2.696465123803636;0.872039395776043;0.760452707785446;3.3094135128725037;2.0150767350683303;-0.92790863668808;0.0017616432343578103;0.10196798205363522;0.0458855919241358;0.0006641903429781148;0.062200469052717394;0.0;53.7483114;86.83903011999999
-0.9423721614992402;1.4727098540311576;0.9059295060123126;-0.0601611094116447;0.030038614899645148;-0.0158050372183134;1.8117983257525399;0.7500914159087074;0.5626371322199295;3.3094135128725037;1.9102918965484827;-0.92790863668808;0.0015296756928449467;0.10196798205363522;0.0458855919241358;0.0006641903429781148;0.062200469052717394;30.0;53.74864594;86.83940562000001
-2.689018390401308;0.9989070053352728;-0.6406837010343928;-0.0158050372183134;0.029313356374217007;-0.0158050372183134;3.3094135128725037;0.7037529428137437;0.49526820451900433;3.5961713336086696;1.7843730078561297;-0.92790863668808;0.0011218869443852873;0.0825940654634445;0.0458855919241358;0.0002961199274893151;0.034669113898236;0.0;53.7489742;86.83980556
-0.6406837010343928;1.064565731692092;-0.6406837010343928;-0.0866727847455898;0.038597272060171314;0.0112164780258998;2.4795425432714713;0.805110855748031;0.6482034900433267;3.6797070623153467;1.8679087365628069;-0.92790863668808;0.0007839691900523357;0.07137758743754441;0.0489446313857448;0.0003314713233272224;0.037728153359845;0.0;53.74930257999999;86.84020561999999
-2.6262844074249445;1.1745376586685594;-0.5228821476275365;-0.0530233506678902;0.04434083298047843;0.0183542367696543;3.5961713336086696;0.48717725752927066;0.23734168025374128;3.6797070623153467;1.2001645190438754;-0.954420312022025;0.0004046695076503478;0.05098399102681783;0.0489446313857448;0.00039323229134991954;0.0397675130009177;0.0;53.749636280000004;86.84059564
-2.8444714958948767;1.1196557416482587;-0.5228821476275365;0.0112164780258998;0.04526161054145932;0.0183542367696543;3.6797070623153467;0.6374590637556156;0.406354057964186;4.120193173786188;1.6406506305147164;-0.954420312022025;0.0004884731107249282;0.054043030488426624;0.0489446313857448;0.0003625597567258523;0.0397675130009177;0.0;53.74997618;86.84096626
-0.5228821476275365;0.9418236927842598;-0.5228821476275365;0.0183542367696543;0.03347595029363122;0.0346691138982359;3.0192263570698246;0.39276641776330956;0.1542654589226226;4.120193173786188;1.100966816716363;-0.954420312022025;0.000715553841636674;0.06933822779647192;0.0489446313857448;0.0002529704296283391;0.0397675130009177;0.0;53.75043766;86.8414175
-2.3160404859336032;0.870640356566219;-0.5228821476275365;-0.0040787192821454;0.05019580411747621;0.0346691138982359;4.120193173786188;0.39716084255760115;0.15773673486106363;4.120193173786188;1.100966816716363;-0.9839910268175792;0.0002843707871078546;0.03976751300091774;0.0489446313857448;0.00022437738887708984;0.0397675130009177;0.0;53.75093776;86.84185615999999
-1.5965614595712545;0.6729225383109959;-0.5228821476275365;0.0346691138982359;0.066241527918923;0.0346691138982359;3.6635478595094346;0.3943280626550242;0.15549462099726466;4.120193173786188;1.100966816716363;-0.9839910268175792;0.00020202282974426632;0.03976751300091774;0.040787192821454;0.0001395340388661115;0.0316100744366269;30.0;53.7514456;86.84227184
-1.8908850232238823;0.3360476961721011;-1.5965614595712545;-0.092790863668808;0.06506803766103321;0.0346691138982359;3.486666760951205;0.24409020335124185;0.0595800273720506;4.120193173786188;0.6335264128349825;-0.971754868971143;0.00043534204227444633;0.05200367084735391;0.040787192821454;2.994471176859862e-05;0.012236157846436203;30.0;53.75203338;86.8427521
-1.8441079484610965;0.6032246260490749;-1.5965614595712545;-0.1101254206179259;0.06439905748731703;0.0346691138982359;3.5897983060253553;0.2524860511087177;0.063749206004474;4.141043366587986;0.6543766056367812;-0.971754868971143;0.00043534204227443967;0.05200367084735391;0.0540430304884266;0.00010293494670451413;0.025491995513408798;30.0;53.752612320000004;86.84323888
-2.3913605336493093;0.5181967931094019;-1.8441079484610965;-0.0978892627714897;0.012682620039348568;-0.092790863668808;3.7828725859096592;0.25577623073317146;0.06542148020806855;4.141043366587986;0.6543766056367812;-0.971754868971143;0.00017103837103924936;0.03568879371877265;0.0540430304884266;7.881281777982447e-05;0.0214132762312634;30.0;53.753067339999994;86.84366318
-3.115306563683262;0.4739615239918249;-1.8441079484610965;-0.1254206179259712;0.038366257803886646;-0.0265116753339451;4.141043366587986;0.23352555066667655;0.05453418281417452;4.141043366587986;0.5512450605626311;-0.971754868971143;0.0005278795196148446;0.05710206995003575;0.0540430304884266;6.467225944466163e-05;0.0214132762312634;30.0;53.7534793;86.84412634
-2.129233515988443;1.6372624442535266;1.084513673487756;-0.1029876618741715;0.04272567958796407;-0.0265116753339451;3.6241912332432666;0.367491575103202;0.13505005777183238;4.141043366587986;1.0185608959345318;-0.968695829509534;0.0005871450949901495;0.060161109411644764;0.0540430304884266;0.0007976938496130362;0.0723972672580809;30.0;53.7538766;86.84462604000001
-2.269447373309861;2.2913685279366254;2.061875440798392;-0.0265116753339451;0.04825251614890962;-0.0183542367696543;3.5993978003720244;0.37503367515417335;0.14065025749964602;4.141043366587986;1.0185608959345318;-0.968695829509534;0.0005120753661814203;0.060161109411644764;0.0540430304884266;0.0015853021539428865;0.0897318242071989;0.0;53.754182;86.84507479999999
1.084513673487756;2.113159413555126;2.061875440798392;-0.040787192821454;0.047595132633016124;-0.0183542367696543;3.1224824706534546;0.2756283020078983;0.07597096086775718;3.6241912332432666;0.6106124226960756;-0.968695829509534;0.0005440995718228258;0.060161109411644764;0.040787192821454;0.0013721540319790288;0.0764759865402263;0.0;53.75448607999999;86.84550687999999
2.061875440798392;1.7608306911443405;2.061875440798392;-0.0183542367696543;0.044274540079056506;-0.0183542367696543;3.389502517880341;0.26131132158099246;0.06828360678640485;3.5993978003720244;0.5995441516348441;-0.968695829509534;0.0005550169146551281;0.060161109411644764;0.040787192821454;0.0009791296900164088;0.0764759865402263;0.0;53.75480692;86.8459506
1.6688145762788464;0.40798845269038675;2.063370190945575;-0.1233812582848985;0.08282474486737625;0.0948302233098807;3.013578810547191;0.17807751875713385;0.03171160268669736;3.389502517880341;0.38964886914316077;-0.968695829509534;0.0003628716808067262;0.0489446313857449;-0.0183542367696543;5.115554927133684e-05;0.017334556949118;0.0;53.755132079999996;86.84637816
1.54437904610772;0.7532683173696451;2.063370190945575;-0.0846334251045171;0.0954329887412511;0.0948302233098807;2.9998536487371803;0.39501731821742514;0.1560386816916865;3.389502517880341;0.9989790185166298;-0.986030386458652;0.00016136872453066154;0.03161007443662689;-0.0040787192821454;0.00017051849757109528;0.0316100744366269;0.0;53.75546208000001;86.84680544
2.063370190945575;0.7252661603339697;2.063370190945575;0.0948302233098807;0.09670414621643812;0.0948302233098807;3.3216295304530172;0.33776480267897563;0.11408506192876733;3.3216295304530172;0.931106031089306;-0.986030386458652;0.0005654143840192262;0.06423982869378986;-0.0040787192821454;0.00016604758574453616;0.0316100744366269;0.0;53.7557968;86.84724256000001
0.2322873985888633;1.088359696008303;2.063370190945575;0.0734169470786173;0.08991009109767965;0.0948302233098807;2.3905234993637112;0.5181249795163652;0.26845349439883387;3.3216295304530172;1.2980060465457304;-0.986030386458652;0.0005737323595105032;0.06423982869378986;0.0071377587437544;0.00037566056812459944;0.0428265524625267;30.0;53.756127719999995;86.84770660000001
1.8888299982420136;1.1213734963364355;2.063370190945575;-0.0458855919241358;0.08043393166082342;0.0948302233098807;2.9217453709523133;0.4965723912751517;0.24658413977672236;3.3216295304530172;1.2980060465457304;-0.9753237483430204;0.0009016685432539054;0.07494646680942152;0.0071377587437544;0.00039063292400888977;0.0428265524625267;0.0;53.756434420000005;86.84815666
-0.3976898138819952;1.1710327174203472;2.283403298802273;-0.0968695829509534;0.06667255865218913;0.0734169470786173;2.023623483907287;0.4609223549468145;0.21244941728971722;3.2079353635368846;1.1843118796295977;-0.9753237483430204;0.0007608348207173043;0.07494646680942152;0.0071377587437544;0.0004318069026906871;0.0474151116549402;0.0;53.7567228;86.84859864
1.7963931290788668;1.1801770266758715;2.598610438209946;-0.0081574385642908;0.035253503557657065;-0.0081574385642908;2.720909045864363;0.5702512918070177;0.3251865358075725;3.5378756904908664;1.5142522065835795;-0.9753237483430204;0.0009077510628318973;0.07494646680942152;0.0071377587437544;0.000429727408817868;0.0520036708473538;0.0;53.75698616;86.84902584
2.283403298802273;1.1805137743302183;2.598610438209946;-0.0734169470786173;0.04650790848674818;0.0050983991026817;3.2079353635368846;0.5773638953342297;0.3333490676355154;3.5378756904908664;1.5142522065835795;-0.9753237483430204;0.0036276250737843504;0.1504027735291118;0.0071377587437544;0.00041984981292198236;0.0520036708473538;0.0;53.757227279999995;86.84942056
2.598610438209946;0.5479814508876426;2.598610438209946;-0.0836137452839808;0.03960114018795126;0.0050983991026817;3.5378756904908664;0.4571307039402937;0.20896848048494845;3.922471989167015;1.2015629433026516;-0.9753237483430204;0.0036510713672003713;0.1504027735291118;-0.0244723156928724;7.595351370469118e-05;0.020393596410727;0.0;53.757454200000005;86.84980107999999
1.2453514987119174;0.5802170126295455;2.6817878417873144;0.0050983991026817;0.038941891412110415;0.0050983991026817;3.080502497312588;0.5149086506046017;0.2651309184674518;4.328195679346663;1.2476931820340753;-0.9850107066381156;0.0031897356515156877;0.14071581523401655;-0.0244723156928724;8.0112501450327e-05;0.0224329560517997;30.0;53.75767294;86.85017342
2.4182407944828954;0.9313032353446271;2.6817878417873144;-0.0560823901294993;0.04017978432199868;0.0050983991026817;3.922471989167015;0.46371124166281286;0.2150281156444676;4.328195679346663;1.2476931820340753;-0.9850107066381156;0.00318027395439437;0.14071581523401655;-0.0107066381156316;0.00024896740392315713;0.0361986336290405;30.0;53.757908199999996;86.85057764
2.6817878417873144;0.8537587631154296;2.6817878417873144;-0.0112164780258998;0.06721152069858549;0.0050983991026817;4.328195679346663;0.4551564195020448;0.20716736621392134;4.328195679346663;1.2476931820340753;-1.0003059039461608;0.0029089000039916138;0.12542061792597137;-0.0107066381156316;0.00021413588155345435;0.0361986336290405;30.0;53.75813702000001;86.85103174
0.6063912588398315;0.96607091642174;3.129494887660244;-0.0795350260018354;0.05644551830958989;-0.0112164780258998;3.6229266212119575;0.4955060013981448;0.2455261974215783;4.8494403291260175;1.22651370791406;-0.9839910268175792;0.00011957089768702463;0.028551034975017875;-0.0107066381156316;0.0002789641030385581;0.043336392372795;30.0;53.758312679999996;86.85158628
1.958488188961343;1.2148071718656088;3.772558655180109;-0.1651881309268889;0.05955139671497203;-0.0112164780258998;3.769444674037962;0.8471965675451045;0.7177420240602068;5.694755755627517;2.0718291344155593;-0.9839910268175792;9.804813610335228e-05;0.02447231569287245;-0.0107066381156316;0.00043565396635540166;0.05455287039869491;30.0;53.758411679999995;86.85216144
3.129494887660244;1.4542064759911868;4.181687640275637;-0.0938105434893443;0.046958442294611005;-0.0346691138982359;4.8494403291260175;1.0290522172323913;1.0589484657909007;5.799570070042317;2.1766434488303594;-0.9839910268175792;9.586466753689291e-05;0.02447231569287245;-0.0107066381156316;0.0006370529479378338;0.0627103089629857;30.0;53.758443279999995;86.85271015999999
3.772558655180109;1.2035962981321677;5.187792531760568;-0.0346691138982359;0.04718374868785922;-0.0346691138982359;5.694755755627517;1.0209548180759216;1.0423487405524383;6.403832902041887;2.634388228003925;-0.9839910268175792;0.00024725182147805543;0.040787192821454155;-0.0346691138982359;0.000477035894424478;0.05863158968084021;30.0;53.7583947;86.85320429999999
4.181687640275637;1.4244181069733919;6.779186206074302;-0.0876924645661262;0.027242822232815465;-0.0346691138982359;5.799570070042317;1.0661481820218817;1.1366719460285633;7.723625089383424;2.874184760257407;-0.9839910268175792;0.0002528664549346628;0.040787192821454155;-0.0540430304884266;0.0006432914295562812;0.06423982869379011;30.0;53.75829484;86.85362668
5.187792531760568;1.1898154388839606;6.779186206074302;-0.0764759865402263;0.022635973366797936;-0.0346691138982359;6.403832902041887;0.8274862718088352;0.6847335300320855;7.723625089383424;2.0288693337559076;-0.989089425920261;0.000187986246102742;0.03568879371877243;-0.0652595085143265;0.0004398649414478504;0.0530233506678902;30.0;53.75819474;86.85393106
6.779186206074302;0.9494670700114729;6.779186206074302;-0.040787192821454;0.02080996393592201;-0.040787192821454;7.723625089383424;0.729670658612677;0.5324192700402578;7.723625089383424;1.9240550193411075;-0.9941878250229428;0.00013849429192967484;0.030590394616090588;-0.0734169470786173;0.0002655773612322841;0.0448659121035994;30.0;53.75810672;86.85418096
5.579448900302085;0.7211522128352302;6.779186206074302;-0.0591414295911083;0.016228613588117075;-0.040787192821454;6.807268583687685;0.6035469847205698;0.36426896276529175;7.723625089383424;1.505013872226101;-0.9941878250229428;0.00014119763396433833;0.030590394616090588;-0.0882023044763944;0.00014538261538339832;0.0300805547058223;30.0;53.75802246000001;86.85442438
5.004271974236636;1.362656339667804;6.779186206074302;-0.0418068726419904;0.01537993589170855;-0.0326297542571632;6.218611217157323;1.0042948958961893;1.0086082379231378;7.723625089383424;2.7680590786496992;-0.9880697460997246;4.762040968751639e-05;0.01835423676965442;-0.0520036708473539;0.0005770075623602042;0.0662791883348628;30.0;53.75791196;86.85474907999999
5.176412619037535;1.2116065445096722;5.579448900302085;-0.0703579076170082;0.021690677461183635;-0.0326297542571632;6.418329773939195;0.8718849756732424;0.7601834108047305;6.807268583687685;1.8880941317480051;-0.9880697460997246;0.0003402051975930319;0.04894463138574501;-0.0520036708473539;0.0004428802075634396;0.0458855919241358;30.0;53.75779766000001;86.8550751
3.0111490447988305;1.256268959292182;5.176412619037535;-0.0326297542571632;0.03590228790852053;0.0061180789232181;4.955566010733725;0.8531881445652078;0.7279300100266218;6.418329773939195;1.8992805575219203;-0.9880697460997246;0.0003776360873037572;0.04894463138574501;-0.0418068726419904;0.0004914883768405634;0.0489446313857449;30.0;53.75767062;86.85541909999999
3.1408180923379976;1.834623887614562;5.176412619037535;-0.0866727847455898;0.03627108764068664;0.0061180789232181;4.91917445193968;1.1100651368942516;1.2322446081480534;6.418329773939195;3.1002345188303035;-0.9880697460997246;0.0004130914578353042;0.04894463138574501;-0.0010196798205363;0.0010426582278310003;0.089731824207199;30.0;53.75753624;86.85576599999999
2.412840181142436;1.698429717199397;4.747725191761751;0.0061180789232181;0.08341641578568494;0.0061180789232181;4.519049216417275;0.8913164788501605;0.7944450654698487;5.759334972694689;2.4412397175857974;-0.9880697460997246;0.0014124962131116853;0.08463342510451743;-0.0010196798205363;0.0010426582278310003;0.089731824207199;0.0;53.75738672;86.85607728
0.0589425970781198;2.0215456787773283;5.077492820480953;-0.0336494340776995;0.08086838879272905;0.0061180789232181;3.318095255108892;1.1128835790524358;1.2385098605245595;6.1543727016178185;2.8362774465089267;-0.9906189456510656;0.0013114328108927242;0.08208422555317652;-0.0010196798205363;0.0013757931462564572;0.089731824207199;120.0;53.75727096000001;86.85625848000001
4.747725191761751;2.184860728657982;5.077492820480953;-0.2080146833894157;0.08465614985685706;0.0061180789232181;5.759334972694689;1.2063745431047224;1.4553395382511278;6.1543727016178185;2.8362774465089267;-0.9906189456510656;0.0012082639211275388;0.08208422555317652;-0.0010196798205363;0.0015687701776539752;0.089731824207199;120.0;53.7571543;86.85637734
5.077492820480953;2.1395612397421506;5.077492820480953;-0.0662791883348628;0.07529560491926215;-0.0183542367696543;6.1543727016178185;1.1544073570288325;1.3326563459622942;6.1543727016178185;2.8362774465089267;-0.9906189456510656;0.0011371452306771586;0.08208422555317652;-0.0010196798205363;0.0014764406497008522;0.089731824207199;0.0;53.757030480000005;86.8564276
4.928779422473356;0.31536396066688954;5.077492820480953;-0.0183542367696543;0.0742884162509334;-0.0183542367696543;5.979102525435259;0.5471835836074572;0.29940987416949916;6.1543727016178185;1.3392585748816694;-0.9656367900479248;0.001543452339752407;0.10706638115631728;-0.0723972672580809;5.7186081502503664e-05;0.018354236769654392;0.0;53.75689112;86.85643160000001
4.531273825832914;1.4353128270440694;5.077492820480953;-0.0672988681553992;0.020714815004146684;-0.0183542367696543;5.27563559496871;1.5007502199216993;2.252251222595029;6.1543727016178185;3.729694593373521;-0.9258692770470072;0.0011167401970501292;0.07902518609156717;-0.0254919955134087;0.0006760434580531688;0.0632201488732538;0.0;53.7567396;86.85642344
4.283843757171349;1.362132065183006;4.928779422473356;-0.040787192821454;0.01960863118843517;-0.0183542367696543;4.815114126736149;1.426644955437668;2.035315828875745;5.979102525435259;3.5544244171909614;-0.9258692770470072;0.0010257103527675157;0.07902518609156717;-0.0254919955134087;0.0006069002867819678;0.0611807892321811;30.0;53.756554859999994;86.8564179
1.574031712046823;1.4464945523484238;4.531273825832914;-0.058121749770572;0.015369791929370526;-0.0326297542571632;2.4246781082442976;1.4238821317504826;2.027440325118299;5.27563559496871;3.236124410201659;-0.9258692770470072;0.0007530887060410664;0.07545630671969006;-0.0249821556031406;0.0006509335695388911;0.0545528703986948;30.0;53.75629223999999;86.85643176
3.098773743744242;1.800494506594016;4.283843757171349;-0.0326297542571632;0.018031330151020934;-0.0214132762312633;3.5018089287943313;1.3918767738726308;1.9373209536460823;4.815114126736149;3.5889197105088426;-0.9258692770470072;0.0007530887060410664;0.07545630671969006;0.0081574385642908;0.0009415428382652182;0.0805547058223717;30.0;53.75602172;86.85645308
1.4724187809031073;1.3242489324930302;3.098773743744242;-0.0652595085143265;0.022998244858060127;-0.0122361578464362;2.039511184767051;1.03345669039211;1.0680327309162136;3.5018089287943313;2.61414368528004;-0.9258692770470072;0.0007590152635785974;0.07545630671969006;0.0081574385642908;0.0005128551763837695;0.061180789232180996;0.0;53.75575310000001;86.85646606
-0.4666510491173406;1.3128310608240497;3.098773743744242;-0.0214132762312633;0.0287632862743582;0.0132558376669725;1.2261944162273062;1.0393325490764502;1.080212147569752;3.5018089287943313;2.61414368528004;-0.962577750586316;0.0008361644862601465;0.07137758743754441;0.0081574385642908;0.000509008112719056;0.061180789232180996;0.0;53.75548658;86.85648114
0.5461914600306395;1.129316564047781;2.570759417496122;-0.0122361578464362;0.0437072882510954;0.0530233506678902;0.8876652435142911;0.6944470343945491;0.48225668357938406;2.6133964177004194;1.7257311741861283;-0.9523809523809524;0.0011146087158304878;0.08157438564290798;0.0081574385642908;0.0003639634150899945;0.0509839910268175;0.0;53.75522542;86.85652206
1.299278862514038;1.2308541025057815;2.570759417496122;0.0132558376669725;0.03514124978387969;0.0530233506678902;1.3464337784008844;0.7221048157893987;0.5214353649862414;2.6133964177004194;1.7257311741861283;-0.9523809523809524;0.00118614330505543;0.08157438564290798;0.0081574385642908;0.0004297274088178664;0.0509839910268175;0.0;53.75502838;86.8566015
2.570759417496122;1.0116171928968454;2.570759417496122;0.0530233506678902;0.040999498437084635;0.058121749770572;2.6133964177004194;0.9426528793587291;0.8885944509633026;2.6133964177004194;2.3081545951949773;-0.9523809523809524;0.0014995230316891162;0.08157438564290798;-0.0040787192821454;0.000282499242622346;0.0387478331803813;90.0;53.75484368;86.85674448
2.184674082318037;0.9224780783830883;2.570759417496122;-0.0367084735393086;0.044711535811618824;0.0744366268991536;2.202108694614714;0.8978975763244733;0.8062200575693634;2.6133964177004194;2.3081545951949773;-0.9523809523809524;0.0013965880849846207;0.08157438564290798;-0.0040787192821454;0.0002315516427383027;0.0387478331803813;90.0;53.75467976;86.85698504
0.227901847095664;2.3523891566396196;2.570759417496122;0.058121749770572;0.04422049370263172;0.0744366268991536;0.3052418225054421;1.1985870204186584;1.4366108455160775;3.3909608618687654;3.0857190393633234;-0.9523809523809524;0.002570046477415878;0.12032221882328964;0.0622004690527174;0.0017774473877912697;0.1050270215152441;90.0;53.75455984;86.85730543999999
1.137635216397907;2.2054628702434234;2.184674082318037;0.0744366268991536;0.06696199417030538;0.0744366268991536;1.2707337750273653;1.1419091767250051;1.303956567888779;3.3909608618687654;3.0857190393633234;-0.9615580707657796;0.0019739595587725694;0.11114510043846249;0.0622004690527174;0.0015707456968331512;0.09890894259202601;90.0;53.754489379999995;86.85765993999999
-3.314051834407223;1.7611180698588234;1.137635216397907;0.0560823901294993;0.08449633298694088;0.0744366268991536;3.3909608618687654;1.131437145613845;1.2801500144748053;3.3909608618687654;3.0857190393633234;-0.9727745487916796;0.0014792479664291424;0.0999286224125625;0.0622004690527174;0.0010436979747674075;0.081574385642908;90.0;53.754448260000004;86.85807962
-1.6615397069975912;1.681997584060644;1.137635216397907;-0.07545630671969;0.08399649270291505;0.0744366268991536;1.8971017018178942;0.8542196903884797;0.7296912794473901;3.3909608618687654;2.1202270868414;-0.9727745487916796;0.0017371571940054038;0.0999286224125625;0.0622004690527174;0.0009482492060050575;0.081574385642908;90.0;53.75442890000001;86.8584801
-0.055117710870685;1.1667555067583464;-0.055117710870685;-0.1040073416947078;0.06559085987223916;0.0560823901294993;1.3735776189673787;0.7893973289822802;0.6231481430043583;3.3909608618687654;2.0173832429013867;-1.0166207810747423;0.0005767476256260851;0.059141429591108574;0.0622004690527174;0.0004795312870718629;0.0611807892321811;90.0;53.75442332;86.85884315999999
-1.257355306097259;0.6529042046651832;-0.055117710870685;-0.0795350260018354;0.039993033296788626;-0.0071377587437544;2.233877342632743;0.6815912341242732;0.4645666104350498;3.0401826927719364;1.6666050738045577;-1.0166207810747423;0.0005008460992682234;0.059141429591108574;0.0305903946160905;0.00014296520375625384;0.0295707147955542;90.0;53.75441054;86.85916318
-1.6287891071907683;0.7957803802848433;-0.055117710870685;-0.0071377587437544;0.04033474967567347;-0.0071377587437544;2.836880902186873;0.9453571096536904;0.8937000647727795;3.910730157797166;2.5371525388297873;-1.0196798205363515;0.00044703919530905174;0.05608239012949934;0.0397675130009177;0.00020535001994079725;0.0387478331803814;90.0;53.75438166;86.8594671
-1.2208190595175288;0.7220574495027174;-1.2208190595175288;-0.0275313551544814;0.05417465899663625;-0.0071377587437544;3.0401826927719364;0.9410764730558986;0.8856249281393295;4.624839463189048;2.3909621205563045;-1.0196798205363515;0.0004484428536732046;0.05608239012949934;0.0540430304884266;0.0001729099155248355;0.031610074436626896;90.0;53.75434652;86.85970843999999
-2.232400187024034;0.8146278502485518;-1.2208190595175288;-0.0305903946160905;0.05731380720382399;-0.0071377587437544;3.910730157797166;0.9454670746051934;0.8939079891625024;4.987479674276064;2.150598772089191;-0.9472825532782706;0.0024867627478095044;0.12847965738758027;0.0540430304884266;0.00018455508121261677;0.031610074436626896;90.0;53.75428564;86.8599138
-2.919215605515396;1.2640280681240805;-0.0880517348652634;-0.1417354950545528;0.051970670735615745;-0.0275313551544814;4.624839463189048;0.7444467223217486;0.5542009223755947;4.987479674276064;1.9472969815041274;-0.9472825532782706;0.0019081435776978765;0.10502702151524435;0.0540430304884266;0.00048680951562672604;0.052513510757622096;90.0;53.75421496;86.86004792
-3.124242637725488;2.098914677270585;1.7555215306879006;-0.1019679820536351;0.04973801248339192;-0.0305903946160905;4.987479674276064;0.4309675700003289;0.18573304639198843;4.987479674276064;1.0767495164788978;-0.9472825532782706;0.0014280924171578193;0.1029876618741713;0.0540430304884266;0.0013545823087537134;0.0846334251045171;90.0;53.754150960000004;86.86012728
-0.0880517348652634;2.042639815010703;1.7555215306879006;-0.0336494340776995;0.0482438961647135;-0.0336494340776995;4.099691884892214;0.3470489116611694;0.12044294708520217;4.987479674276064;0.8877877893838502;-0.9472825532782706;0.0016268920313992294;0.1029876618741713;0.0540430304884266;0.001277537060765803;0.0846334251045171;90.0;53.754107680000004;86.86016079999999
1.7555215306879006;1.804238243602772;1.7555215306879006;-0.040787192821454;0.03317957287654418;-0.0336494340776995;4.5548763701036314;0.34783078689327596;0.12098625631079556;4.987479674276064;0.8877877893838502;-0.9472825532782706;0.001002134090984451;0.08871214438666264;0.0520036708473539;0.0009409709774501943;0.0825940654634444;90.0;53.754085020000005;86.86014326
-0.7325631364445797;1.9549228624366735;3.2522209482568574;-0.0387478331803813;0.029491495592902282;-0.0336494340776995;4.244426019360926;0.3195041181852732;0.10208288153734903;4.91464792895345;0.814956044061236;-0.9829713469970428;0.0003980411209307946;0.053023350667890434;0.0275313551544814;0.0011558866692059414;0.0836137452839807;90.0;53.754099280000005;86.8601268
-1.5672915943527632;1.9357499811319852;3.2522209482568574;-0.0938105434893443;0.027742038179088123;-0.0387478331803813;4.309775311139534;0.5718138361726324;0.32697106323846203;4.91464792895345;1.5442654893079917;-0.9829713469970428;0.0003823149485176069;0.053023350667890434;0.0275313551544814;0.00113623545210781;0.0836137452839807;90.0;53.754134750000006;86.86013667
3.2522209482568574;1.9357499811319852;3.2522209482568574;-0.0887121443866625;0.027742038179088123;-0.0387478331803813;4.91464792895345;0.5718138361726324;0.32697106323846203;4.91464792895345;1.5442654893079917;-0.9829713469970428;0.0003823149485176069;0.053023350667890434;0.0275313551544814;0.00113623545210781;0.0836137452839807;90.0;53.754134750000006;86.86013667
1.1377150058344243;1.9357499811319852;3.2522209482568574;-0.0428265524625267;0.027742038179088123;-0.0387478331803813;3.370382439645458;0.5718138361726324;0.32697106323846203;4.91464792895345;1.5442654893079917;-0.9829713469970428;0.0003823149485176069;0.053023350667890434;0.0275313551544814;0.00113623545210781;0.0836137452839807;90.0;53.754134750000006;86.86013667
3.951223836772967;1.625652756677505;8.128381849202377;0.0305903946160905;0.03885100549001287;0.0305903946160905;4.149037272141874;1.5908352369984333;2.5307567512758613;8.198674442239254;4.0496371700973794;-0.9829713469970428;0.00044833887897958156;0.04996431120628142;-0.0713775874375446;0.0008298480236214697;0.07290710716834908;30.0;53.723111059999994;86.84201026000001
8.128381849202377;1.625652756677505;8.128381849202377;-0.0499643112062812;0.03885100549001287;0.0305903946160905;8.198674442239254;1.5908352369984333;2.5307567512758613;8.198674442239254;4.0496371700973794;-0.9829713469970428;0.00044833887897958156;0.04996431120628142;-0.0713775874375446;0.0008298480236214697;0.07290710716834908;30.0;53.723111059999994;86.84201026000001
6.131724898985161;1.625652756677505;8.128381849202377;0.003059039461609;0.03885100549001287;0.0305903946160905;6.199194752888628;1.5908352369984333;2.5307567512758613;8.198674442239254;4.0496371700973794;-0.9829713469970428;0.00044833887897958156;0.04996431120628142;-0.0713775874375446;0.0008298480236214697;0.07290710716834908;30.0;53.723111059999994;86.84201026000001
6.365408202249666;1.2338836930564656;8.128381849202377;-0.0652595085143265;0.028783161030900128;0.003059039461609;6.414436954146825;1.240452307469861;1.5387219271073025;8.198674442239254;3.492289139038654;-0.9819516671765066;0.0002585850630849253;0.03364943407769949;-0.0800448659121035;0.0005205233100397791;0.06423982869379019;30.0;53.72313726;86.84220542
4.654311890975039;0.8171927047922403;6.365408202249666;-0.0214132762312633;0.037710235811071934;0.003059039461609;4.7063853032006;0.818871072024994;0.6705498325993628;6.414436954146825;1.7080516509462251;-0.9819516671765066;0.00043357447248257026;0.04384623228306317;-0.0800448659121035;0.00019448466445531299;0.03008055470582241;30.0;53.7231754;86.84241252
6.222458813624621;1.4671583458634916;6.365408202249666;-0.0071377587437544;0.047131935347892576;0.0346691138982359;6.254929050084678;1.4581330395301826;2.126151960969529;6.414436954146825;3.613497575918937;-0.980422147445702;0.0003761804415927888;0.04537575201386779;-0.0469052717446721;0.0006479702907701193;0.0632201488732538;30.0;53.72322440000001;86.84262536
4.870095396167339;1.2646825508552981;6.222458813624621;-0.0836137452839808;0.04249141742839731;0.0346691138982359;4.907897595420047;1.2525759671292978;1.5689465534298954;6.254929050084678;3.4539896718567906;-0.980422147445702;0.0008308097895376506;0.06067094932191308;-0.0469052717446721;0.0005073965049676167;0.060161109411644806;30.0;53.7232856;86.84281968
2.737342965463367;1.2699471096487107;6.222458813624621;0.0346691138982359;0.042634324132443946;0.0346691138982359;2.8009393782278877;1.257931218939996;1.5823909515838641;6.254929050084678;3.4539896718567906;-0.980422147445702;0.0007944186467633318;0.06067094932191308;-0.0469052717446721;0.0005060448339502848;0.060161109411644806;30.0;53.723361739999994;86.84297774000001
5.14747352694608;1.0077240446691766;5.14747352694608;-0.0244723156928724;0.0502548038354302;0.0397675130009177;5.182930406564342;0.9970745318941983;0.9941576221520345;5.182930406564342;2.3819910283364543;-0.980422147445702;0.0007000616122842123;0.06067094932191308;-0.0469052717446721;0.0003527861355235911;0.0469052717446722;30.0;53.72345072;86.84307184000001
5.01788257484751;1.0116494226042778;5.14747352694608;-0.0122361578464362;0.028206636732162865;0.0397675130009177;5.058093124736984;0.9996920041495773;0.9993841031605983;5.182930406564342;2.3819910283364543;-0.980422147445702;0.0006058605398455525;0.06067094932191308;-0.0469052717446721;0.00034571585635600956;0.0469052717446722;30.0;53.7235524;86.84310184
4.866846223969015;0.7747741420716262;6.142761969455221;0.0397675130009177;0.025695122195073177;0.0397675130009177;4.914971938981594;0.7694213645181699;0.5920092361770024;6.197613224170989;2.1571688303389074;-0.9870500662791885;0.0004504183728523956;0.054043030488426624;-0.0703579076170082;0.00019983936117782023;0.0387478331803814;30.0;53.72366444000001;86.84307564000001
3.970614056038922;0.8355313620805462;6.142761969455221;0.0122361578464362;0.026330652426355673;0.0397675130009177;4.0404443938320815;0.8343361732757864;0.6961168500364829;6.197613224170989;2.1571688303389074;-0.9778729478943612;0.0002570254426803191;0.035688793718772316;-0.0703579076170082;0.00021314812196385598;0.0387478331803814;0.0;53.7237842;86.84301620000001
6.142761969455221;0.8342020112839447;6.142761969455221;0.020393596410727;0.026330652426355673;0.0397675130009177;6.197613224170989;0.8322678177854169;0.6926697205212999;6.197613224170989;2.1571688303389074;-0.9778729478943612;0.00026513546878430744;0.035688793718772316;-0.0703579076170082;0.00021034080523555146;0.0387478331803814;0.0;53.7239091;86.84295678000001
5.714422589296162;0.824339181815207;6.142761969455221;-0.0265116753339451;0.0191634709262094;0.020393596410727;5.78590891508692;0.8212253194552956;0.6744110253144524;6.197613224170989;2.1571688303389074;-0.9758335882532884;0.00040477348234404565;0.03772815335984514;-0.0703579076170082;0.00020035923464602445;0.0387478331803814;0.0;53.72403594;86.84291978
5.058906357403031;0.42195411249049225;6.142761969455221;-0.0122361578464362;0.036718385754845026;0.020393596410727;5.116554376130364;0.4184178082209367;0.17507346223641257;6.197613224170989;1.081058848040625;-0.9758335882532884;0.0005372372420425558;0.05098399102681761;-0.0897318242071989;5.562646109788477e-05;0.019373916590190707;0.0;53.724162899999996;86.84291362
5.431711472635572;0.6545357424492699;5.714422589296162;0.0071377587437544;0.030551281884961846;0.0071377587437544;5.498961194146517;0.6263537584797705;0.3923190307617347;5.78590891508692;1.640005112149363;-0.9758335882532884;0.000573108511348667;0.05098399102681761;-0.0713775874375446;0.00010948535240387317;0.026511675333945092;0.0;53.724288779999995;86.8429371
5.262767398768212;0.9684456614440576;5.431711472635572;-0.0744366268991536;0.032788692139927605;0.0071377587437544;5.344461111264796;0.9075221042192243;0.8235963696464885;5.498961194146517;2.125710349531188;-0.9758335882532884;0.00041662659741910433;0.05098399102681761;-0.0565922300397675;0.00027371338100968216;0.038237993270113194;30.0;53.72441174000001;86.84298326
4.005430744722256;1.478174870304022;5.431711472635572;-0.037728153359845;0.03100899815845528;0.0071377587437544;4.145903802937557;1.342349662160282;1.8019026155018232;5.498961194146517;3.1816653019385677;-0.9758335882532884;0.0004172504455809497;0.05098399102681761;-0.0336494340776996;0.0006597194311515407;0.06118078923218109;0.0;53.724552259999996;86.84306233999999
3.1655735844253083;1.2503977408936835;5.262767398768212;-0.0560823901294993;0.020012758927863108;-0.0254919955134087;3.373250844615329;1.145752046432802;1.3127477519049537;5.344461111264796;3.027165219056847;-0.971754868971143;0.0004931519719388077;0.055062710308962926;-0.0336494340776996;0.0005030295678346973;0.06118078923218109;0.0;53.7247389;86.84317218
1.8999203083562357;0.9479651563423439;4.138975041487591;-0.0254919955134087;0.013824090816830682;-0.020393596410727;2.3172958922079494;0.9026869390590067;0.8148437099477188;4.471195941683784;2.1539000494758347;-0.971754868971143;0.00041881006598556097;0.04996431120628131;-0.0336494340776996;0.00026222417736236197;0.037728153359845;0.0;53.72493732;86.84328868
4.138975041487591;0.9068639989153687;4.138975041487591;-0.0316100744366268;0.01959537046385854;-0.0020393596410727;4.471195941683784;0.8734581238692368;0.762929094153167;4.471195941683784;2.1539000494758347;-0.971754868971143;0.00041881006598556097;0.04996431120628131;-0.0336494340776996;0.0002294721488654771;0.0367084735393086;0.0;53.7251541;86.8434133
4.022519181817538;0.9146338107591346;4.138975041487591;-0.020393596410727;0.011558870244472894;-0.0020393596410727;4.373599133133602;0.8630416450295939;0.7448408810553875;4.471195941683784;2.1539000494758347;-0.971754868971143;0.0003353183869919128;0.04690527174467207;-0.0336494340776996;0.0002341510100793178;0.0367084735393086;0.0;53.725386920000005;86.84355908
2.979667819909837;0.6714791076949863;4.383021646101867;-0.0020393596410727;0.01883787751835132;-0.0020393596410727;3.582445608319859;0.5605239932824628;0.31418714704531847;4.97120504351431;1.388759435194451;-0.971754868971143;0.00032263347436772084;0.04690527174467207;-0.0520036708473539;0.00011905102421883714;0.023452635872336106;0.0;53.725616720000005;86.8436916
2.977903807373678;0.7177703755214688;4.383021646101867;-0.0275313551544814;0.0186826937713092;-0.0020393596410727;3.7724758686424487;0.6495114989127698;0.42186518721991306;4.97120504351431;1.388759435194451;-0.9829713469970428;0.00016043295228791255;0.035688793718772316;-0.0520036708473539;0.00014525264701634497;0.024472315692872407;0.0;53.7258163;86.84380414
4.383021646101867;0.7031298693295827;4.383021646101867;-0.0540430304884266;0.018760446102757285;-0.0020393596410727;4.97120504351431;0.6514349853931843;0.42436754019421824;4.97120504351431;1.388759435194451;-0.9829713469970428;0.000160848851062476;0.035688793718772316;-0.0520036708473539;0.00013859826662332713;0.024472315692872407;0.0;53.726010699999996;86.84392685999998
4.379492555821536;0.6170269718143074;4.383021646101867;-0.0244723156928724;0.014209815447451682;-0.0193739165901906;4.966235951232758;0.5410573166047165;0.2927430198514964;4.97120504351431;1.1987291748718611;-0.9829713469970428;0.0001421334062071121;0.03364943407769949;-0.0520036708473539;0.00010782175730561918;0.024472315692872407;0.0;53.72619946;86.84405418
3.564734002934255;0.4451317417593063;4.383021646101867;-0.0193739165901906;0.01579022847684253;-0.0193739165901906;4.200359713180954;0.4220490147156049;0.1781253708224129;4.97120504351431;0.8719526220660851;-0.9829713469970428;0.0001489957359874117;0.03364943407769949;-0.061180789232181;5.250722028865799e-05;0.015295197308045301;0.0;53.72638574;86.8441739
3.441036022494409;0.8660308816348959;4.379492555821536;-0.0418068726419904;0.01701674239653168;-0.0101967982053635;4.099252421448225;0.7931332587658514;0.6290603661605391;4.966235951232758;2.1691248251561595;-0.9737942286122158;0.0002341510100793119;0.042826552462526535;-0.0346691138982359;0.00023966166884228614;0.04180687264199041;0.0;53.72657572000001;86.84430244
3.81277139397561;0.7600742121681966;3.81277139397561;-0.0520036708473539;0.022612995010081443;-0.0101967982053635;4.344912660199285;0.6996407248379187;0.4894971438517284;4.344912660199285;1.5478015341226872;-0.9737942286122158;0.00031785063846024133;0.042826552462526535;-0.0346691138982359;0.00019162536038018835;0.03161007443662691;0.0;53.72677245999999;86.84443774
2.038876873898437;0.7609160893255865;3.81277139397561;-0.0101967982053635;0.021721812993910607;-0.0101967982053635;2.797111126076598;0.7014409731075149;0.49201943875401744;4.344912660199285;1.5478015341226872;-0.9737942286122158;0.00040810067254054626;0.042826552462526535;-0.0346691138982359;0.00018736239794091107;0.03161007443662691;0.0;53.72698768;86.84458127999999
2.510037089130195;0.6869676882473277;3.81277139397561;-0.0647496686040583;0.02325898387749615;-0.0101967982053635;3.1358144879332652;0.6169369295440004;0.38061117503517883;4.344912660199285;1.5478015341226872;-0.9737942286122158;0.0003007987887031352;0.03874783318038133;-0.0346691138982359;0.00014525264701634497;0.03161007443662691;0.0;53.727212980000004;86.84474001999999
2.331435377245894;1.2740599482394772;5.150605672164405;-0.0601611094116447;0.02316379516689541;-0.0101967982053635;2.9778694181811995;1.1105239812099656;1.233263512842432;5.46193077565392;2.664819649577322;-0.9737942286122158;0.0003017345609459034;0.03874783318038133;-0.0346691138982359;0.0004979867951931141;0.055062710308963;0.0;53.72745096;86.84490631999999
2.44067412878182;1.1855184514042496;5.150605672164405;-0.0275313551544814;0.014375315774315972;-0.0275313551544814;3.069601689514375;1.0418705812546674;1.0854943080839385;5.46193077565392;2.484061357472721;-0.974813908432752;0.00019983936117781722;0.03772815335984514;-0.0412970327317222;0.0004250485476040195;0.0484347914754767;0.0;53.72768876;86.8450622
5.150605672164405;1.151384185030419;5.150605672164405;-0.0509839910268175;0.01620938156841787;-0.0224329560517997;5.46193077565392;1.0039628194442365;1.0079413428264206;5.46193077565392;2.484061357472721;-0.9778729478943612;0.00016927080124738936;0.034669113898235904;-0.0412970327317222;0.00038959317707247103;0.0484347914754767;0.0;53.727921679999994;86.84522856
3.3417531795715933;0.9827685282320924;5.150605672164405;-0.0489446313857448;0.027578522150093772;0.0173345569491179;3.7506543025433303;0.8718802906000783;0.760175241136877;5.46193077565392;2.3923290861395454;-0.9778729478943612;0.00012269013849626554;0.027531355154481685;-0.0428265524625267;0.0002904013193390479;0.0469052717446722;0.0;53.72814068;86.84539636
3.817038921159328;0.6980007006649945;5.150605672164405;-0.0224329560517997;0.030933462553959908;0.0173345569491179;4.0862099425211635;0.6710009085101135;0.45024221922139773;5.46193077565392;1.71127647311059;-0.9778729478943612;0.00010324687078541694;0.027531355154481685;-0.058121749770572;0.00014899573598741722;0.031610074436626896;0.0;53.7283462;86.84554556
3.886772099078658;0.42968061961751786;4.489160298585816;0.0173345569491179;0.025950801350095826;0.0173345569491179;4.040355112839661;0.3597470666926669;0.12941795199397813;4.560685983947841;0.9255636056255567;-0.9778729478943612;0.0001365187727505064;0.027531355154481685;-0.058121749770572;5.583441048516698e-05;0.0193739165901907;0.0;53.72853206;86.84568022
4.489160298585816;0.33626951579160885;4.489160298585816;0.0050983991026817;0.014741340159886695;0.0173345569491179;4.560685983947841;0.32897080930750805;0.10822179337643681;4.560685983947841;0.9255636056255567;-0.9778729478943612;0.00018642662569814006;0.027531355154481685;-0.061180789232181;3.711896562980419e-05;0.0163148771285817;0.0;53.7287142;86.84582652
3.58003644252038;0.36025356309616646;4.489160298585816;-0.003059039461609;0.009356638928891063;0.0173345569491179;3.635122378322284;0.34914394076452065;0.12190149137257912;4.560685983947841;0.9255636056255567;-0.9778729478943612;0.00019308100609115918;0.0326297542571633;-0.061180789232181;4.398129541010404e-05;0.0163148771285817;0.0;53.728893760000005;86.84596512
4.006966311401917;0.4335650097868532;4.6814378102494905;-0.0071377587437544;0.009165781606707042;0.0050983991026817;4.0269371818133815;0.42387017410243305;0.17966592449362692;4.68388121602322;1.048758837700936;-0.9778729478943612;0.00020774143789452582;0.0326297542571633;-0.061180789232181;6.727162678566672e-05;0.0214132762312634;0.0;53.72907524;86.84610052
4.327923821994255;0.4145561419441067;4.6814378102494905;0.0040787192821454;0.01170635067895671;0.0137656775772407;4.328103336839999;0.39376359718272413;0.15504977046627863;4.68388121602322;1.048758837700936;-0.9778729478943612;0.0001859067522299386;0.0326297542571633;-0.061180789232181;6.550405699377124e-05;0.0214132762312634;0.0;53.729268760000004;86.84624796
4.6814378102494905;1.0476537537659203;6.619235081271973;-0.0173345569491179;0.013630949252942516;0.0137656775772407;4.68388121602322;1.05661174525978;1.1164283802209185;6.650406201336717;2.623469019523336;-0.9839910268175792;0.00011977884707432521;0.026511675333945273;-0.0703579076170082;0.00030339815604416134;0.0438462322830631;0.0;53.72946246;86.84640069999999
4.336275358004891;1.4417316920925936;7.414812629758774;0.0137656775772407;0.01718394977704968;0.0193739165901906;4.34378346116512;1.4719461013958188;2.16662532541435;7.491692606882964;3.163589270042965;-0.9839910268175792;0.00016927080124739304;0.026511675333945273;-0.0764759865402263;0.0005819463603081467;0.052003670847353994;0.0;53.7296391;86.8465415
6.619235081271973;1.4189829532802503;7.414812629758774;-0.0173345569491179;0.01943286101694143;0.020393596410727;6.650406201336717;1.4612295733908112;2.135191866151892;7.491692606882964;3.1479091457178443;-0.9839910268175792;0.00016147269922432128;0.02447231569287245;-0.0764759865402263;0.000563230915452784;0.052003670847353994;0.0;53.729796179999994;86.84667298
7.414812629758774;1.4582825040158438;8.204076852480306;0.0193739165901906;0.022578483627590067;0.0458855919241358;7.491692606882964;1.499273142543274;2.2478199559515843;8.315185453857293;3.971401992692173;-0.9839910268175792;0.00010220712384900277;0.02447231569287245;-0.0764759865402263;0.0006184414777761055;0.0662791883348629;0.0;53.7299336;86.84679504
7.079710439188091;0.5919291606954818;8.204076852480306;0.020393596410727;0.023863557929848424;0.0458855919241358;7.202092288784124;0.610003378235035;0.37210412145815525;8.315185453857293;1.6647792525205753;-0.9839910268175792;0.00015263485026484357;0.029570714795554287;-0.1142041399000713;0.00010938137771023698;0.028551034975017903;0.0;53.73004472;86.84690616
8.204076852480306;0.47414816446630503;8.204076852480306;0.0458855919241358;0.01244886665009181;0.0458855919241358;8.315185453857293;0.4677819951043021;0.2188199949437613;8.315185453857293;1.1301988950588715;-0.9850107066381156;0.00014015788702793542;0.028551034975017875;-0.1223615784643621;6.259276557183e-05;0.020393596410727105;0.0;53.73014429999999;86.84701086
7.049980359793546;0.476028855655575;8.204076852480306;0.0346691138982359;0.01392525775848643;0.0458855919241358;7.184986558798421;0.4690425450344092;0.22000090905235575;8.315185453857293;1.1301988950588715;-0.9850107066381156;0.0001308001646002554;0.028551034975017875;-0.1223615784643621;6.259276557183e-05;0.020393596410727105;0.0;53.73024242;86.84712434
7.64002065554364;0.47564434050945836;8.204076852480306;0.0168247170388497;0.01497055283357864;0.0458855919241358;7.7488201746586665;0.4679443718948217;0.21897193518803917;8.315185453857293;1.1301988950588715;-0.9875599061894564;0.00012092256870437006;0.026001835423677067;-0.1254206179259712;5.375491661235316e-05;0.017334556949118007;0.0;53.730335600000004;86.84725848000001
7.370490482768862;0.3789666122240003;8.0506893865057;0.0122361578464362;0.009486311050466456;0.0346691138982359;7.469367574279696;0.36794449259777906;0.1353831496330371;8.151669529001614;0.9666829702031929;-0.9875599061894564;0.00011255260586627927;0.026001835423677067;-0.1254206179259712;3.114042074545595e-05;0.01427551748750891;0.0;53.730419340000005;86.84739854
8.0506893865057;1.2532608597380086;8.0506893865057;0.0132558376669725;0.01310992633802398;0.0438462322830631;8.151669529001614;1.2226083519812534;1.4947711823343164;8.151669529001614;3.1072549591878422;-0.9875599061894564;0.00014171750743255054;0.02906087488528586;-0.0866727847455898;0.00043612185247677947;0.05302335066789031;0.0;53.73049332000001;86.84755444
7.317444044593131;1.7958330653408536;8.0506893865057;0.0254919955134087;0.013423417749578047;0.0438462322830631;7.43952809303473;1.74275205947848;3.037184740816483;8.151669529001614;3.99495116165144;-0.9788926277148976;0.00019646018363448444;0.037728153359844696;-0.0672988681553992;0.000978453854507736;0.0723972672580809;0.0;53.73055948;86.84773836
4.868507698075902;2.0864280730371685;8.0506893865057;0.0438462322830631;0.017168816396943724;0.0509839910268175;5.044414569813772;2.0181968229598812;4.073118416205357;8.151669529001614;4.560468889135426;-0.9788926277148976;0.00020191885505063326;0.037728153359844696;-0.058121749770572;0.001319230912915799;0.08157438564290811;0.0;53.730624479999996;86.84795696
3.93247943930913;1.5354102198577002;7.317444044593131;0.0142755174875089;0.022624487105659927;0.0723972672580809;4.156718367350174;1.4820411607206383;2.196446002070177;7.43952809303473;3.848327453168542;-0.9788926277148976;0.00019599229751310124;0.037728153359844696;-0.058121749770572;0.0007358289068966821;0.0698480677067401;0.0;53.73069922;86.8482109
3.3210724624437407;0.9306277062035733;5.771264533561887;0.0509839910268175;0.021570506578266698;0.0723972672580809;3.591200639866188;0.8990692690976608;0.8083255506358021;5.959942697883259;2.3687420580170704;-0.9788926277148976;0.00019682409506222893;0.037728153359844696;-0.058121749770572;0.0002784442295703421;0.04282655246252679;0.0;53.73082316;86.84851404000001
4.409539557670579;1.5112355156178023;7.069463646951118;0.0723972672580809;0.049516979163109355;0.0723972672580809;4.624787557110345;1.4570106273361458;2.1228799681704693;7.188066484564168;3.59686584469798;-0.9788926277148976;8.078833695897565e-05;0.021413276231263212;-0.058121749770572;0.0006896641429201197;0.06423982869379011;0.0;53.73096158;86.8487907
5.771264533561887;1.9076943205049528;8.013773030821298;0.0326297542571632;0.05711390429305366;0.0723972672580809;5.959942697883259;1.832113829306226;3.356641083535123;8.092603787813832;4.501403147947644;-0.9697155093300704;0.00015003548292381595;0.030590394616090366;-0.058121749770572;0.0010361078221316163;0.0785153461812991;0.0;53.731110439999995;86.8490266
7.069463646951118;1.3628177721213621;8.013773030821298;-0.0571020699500356;0.05524839437681451;0.0723972672580809;7.188066484564168;1.307372416159572;1.7092226345349166;8.092603787813832;3.4678162307034874;-0.9697155093300704;0.00010714592179694043;0.028551034975017764;-0.0764759865402263;0.0005195615441236033;0.06016110941164479;0.0;53.73128286;86.84920926000001
8.013773030821298;0.881473950322012;8.013773030821298;-0.0397675130009177;0.04276946089471352;0.0387478331803813;8.092603787813832;0.8408340270450421;0.7070018610367825;8.092603787813832;2.132661089930574;-0.9697155093300704;0.00011509998586046953;0.028551034975017764;-0.1009483022330988;0.00021075670401011714;0.0356887937187723;0.0;53.73145042;86.84931538000001
6.559988271265068;0.8628426426851581;8.013773030821298;0.0387478331803813;0.040752764096759916;0.0387478331803813;6.637792122652828;0.8675711682599901;0.7526797319960041;8.092603787813832;2.2100681573543586;-0.9697155093300704;0.00012170237890666593;0.029570714795553954;-0.1019679820536351;0.00020067115872694988;0.034669113898236;0.0;53.73158512;86.84933744
7.610035632123322;1.6391212412917122;8.013773030821298;0.003059039461609;0.03182806057778783;0.0387478331803813;7.66748915520185;1.6499508723833143;2.72233788127846;8.092603787813832;4.162913493569983;-0.9697155093300704;0.00019552441139171402;0.03568879371877243;-0.0683185479759355;0.0007572476937867117;0.06831854797593559;0.0;53.731722680000004;86.849347
5.824884564500576;1.5538654375376262;7.610035632123322;0.0224329560517997;0.013729753077566955;0.0387478331803813;5.882535630459474;1.5698769531999266;2.4645136481882846;7.66748915520185;3.737798860958;-0.9834811869073112;0.00017805666286005168;0.03517895380850389;-0.0683185479759355;0.0006959026245385771;0.06423982869379019;0.0;53.7318702;86.84933579999999
3.8851792818795534;1.492472660483003;7.610035632123322;0.0336494340776996;0.011558870244472936;0.0336494340776996;3.92969029424385;1.5075347020805627;2.272660877977131;7.66748915520185;3.737798860958;-0.99214846538187;9.534479406871782e-05;0.02651167533394516;-0.0683185479759355;0.0006536888989203691;0.06423982869379019;0.0;53.73201988000001;86.84930116000001
4.291982812960788;0.7880797516227447;5.824884564500576;0.0265116753339451;0.00722463121603678;0.0336494340776996;4.306650927160598;0.7909122921756743;0.6255422539145791;5.882535630459474;1.9528453362156237;-0.9992862241256244;5.479466354876761e-05;0.01937391659019072;-0.0683185479759355;0.00018434713182532435;0.03364943407769959;0.0;53.7321868;86.84925816
4.7678367595373805;0.9214145424785416;6.220570474220515;0.0163148771285816;0.011706350678956748;0.0336494340776996;4.768583339467222;0.908814165517303;0.8259431874449117;6.226451963867247;2.2967616696233972;-1.0023452635872336;6.727162678567901e-05;0.017334556949117896;-0.0683185479759355;0.0002788601283449072;0.0428265524625268;0.0;53.732352320000004;86.84920864
5.385406272698578;0.9402886540708294;6.514537454041726;0.0326297542571632;0.0112719597066874;0.0326297542571632;5.386024864142888;0.9404440733307863;0.8844350550630012;6.526775843870806;2.2201249167102075;-0.9911287855613338;0.00014296520375625525;0.028551034975017764;-0.0764759865402263;0.00026513546878430825;0.0367084735393087;0.0;53.732518860000006;86.84913454
6.220570474220515;1.191791703026249;7.89609870027113;0.0061180789232181;0.024897733300183578;0.0326297542571632;6.226451963867247;1.196685083510547;1.4320551890966449;7.907641396034153;3.139058056566931;-0.9911287855613338;0.0001093813777102412;0.028551034975017764;-0.0836137452839808;0.0004363817892108785;0.05506271030896301;0.0;53.732675699999994;86.84904562
6.514537454041726;0.9137935616101852;7.89609870027113;0.0091771183848271;0.035437358109696074;0.0326297542571632;6.526775843870806;0.9174642128465821;0.8417405818541984;7.907641396034153;2.521616531891265;-0.9911287855613338;0.00011146087158306068;0.028551034975017764;-0.0948302233098807;0.0002529704296283227;0.043846232283063113;0.0;53.7328037;86.84892785999999
7.89609870027113;0.6355384632758597;7.89609870027113;-0.0346691138982359;0.027137663036056085;0.0091771183848271;7.907641396034153;0.6368730129509881;0.4056072346252695;7.907641396034153;1.6811894321669056;-0.9911287855613338;0.00011458011239228694;0.028551034975017764;-0.1111451004384623;0.00011821922666971085;0.027531355154481504;0.0;53.73290732;86.8487806
6.800886975488585;0.6805903982178316;7.89609870027113;-0.0545528703986948;0.024884157369266205;0.0091771183848271;6.806621197950903;0.6770699292331492;0.4584236890717817;7.907641396034153;1.8276693732992504;-0.9911287855613338;5.125952396497512e-05;0.017844396859386213;-0.1070663811563168;0.0001419254568198377;0.031610074436627014;0.0;53.73299629999999;86.84860846000001
6.972275455240719;0.7780895306698431;7.89609870027113;-0.0224329560517997;0.018055820444140887;-0.0050983991026817;6.977521965202094;0.764698985438046;0.584764538329977;7.907641396034153;1.8618622919607883;-0.9992862241256244;2.0846926075012394e-05;0.009686958295095582;-0.1050270215152442;0.00018434713182532644;0.0336494340776996;0.0;53.733062919999995;86.8484242
6.057151619940805;0.4495723661854552;6.972275455240719;-0.0050983991026817;0.01792578563681981;-0.0050983991026817;6.079972022734903;0.42847158225438436;0.18358789679957566;6.977521965202094;0.9317428611287291;-1.0003059039461608;2.6461559531622224e-05;0.01121647802590009;-0.1050270215152442;6.207289210362159e-05;0.017334556949117896;0.0;53.7331119;86.84821717999999
5.990835435216169;0.713995719761164;6.972275455240719;-0.0316100744366268;0.009870374255393081;-0.0050983991026817;6.045779104073365;0.6736416997998036;0.45379313970916874;6.977521965202094;1.8824825066210584;-1.0003059039461608;2.6461559531622224e-05;0.01121647802590009;-0.0876924645661262;0.00015523421760587166;0.034669113898235904;0.0;53.733146420000004;86.84800082000001
6.211571843252679;0.5552425449731312;6.397759823659683;-0.0244723156928724;0.012000206277087552;-0.0050983991026817;6.278735564429108;0.5417238950887076;0.293464778510081;6.518445137192608;1.423405678611573;-1.0003059039461608;2.6461559531622224e-05;0.01121647802590009;-0.0876924645661262;9.492889529414712e-05;0.024472315692872407;0.0;53.73317084;86.84777948
4.973285867561634;0.9854746294435144;7.721246291267032;-0.0244723156928724;0.010338567843896387;-0.0061180789232181;5.095039458581035;0.9847978255026048;0.9698267571146588;7.825946213678395;2.73090675509736;-0.9926583052921384;5.3079081103692147e-05;0.018864076679922515;-0.0876924645661262;0.0002830191160905444;0.04690527174467221;0.0;53.733188440000006;86.84756156
6.397759823659683;0.976401247592957;7.721246291267032;-0.0061180789232181;0.010635998621723455;-0.0010196798205363;6.518445137192608;0.9712614765171503;0.9433488557662749;7.825946213678395;2.73090675509736;-0.9926583052921384;5.437876477420353e-05;0.018864076679922515;-0.0876924645661262;0.0002774044826339357;0.04690527174467221;0.0;53.73320214;86.84734485999999
7.721246291267032;0.980599860086534;7.721246291267032;-0.0122361578464362;0.010635998621723455;-0.0010196798205363;7.825946213678395;0.9726837595851374;0.9461136961606773;7.825946213678395;2.73090675509736;-0.974813908432752;0.0001535706225076252;0.032629754257163746;-0.0876924645661262;0.00028613835689977174;0.04690527174467221;0.0;53.73321496;86.84713752
6.173295653580271;0.8313987693907858;7.721246291267032;-0.0010196798205363;0.013925257758486383;0.0132558376669725;6.307541013446261;0.8143609796228862;0.6631838051323469;7.825946213678395;2.2144921350116276;-0.974813908432752;0.00019074157548424679;0.03772815335984514;-0.0968695829509534;0.00020379039953617514;0.037728153359845015;0.0;53.733230400000004;86.84692768
6.088204575851113;1.013345440037386;7.721246291267032;-0.0244723156928724;0.01743324495073598;0.0132558376669725;6.239789819989165;0.9935935464365243;0.9872281355203095;7.825946213678395;2.6028373752637624;-0.974813908432752;0.00019074157548424679;0.03772815335984514;-0.0887121443866625;0.00030183853563954847;0.04588559192413591;0.0;53.73324678;86.84670854000001
5.464371768726812;0.7642270084778554;6.173295653580271;0.0132558376669725;0.018220625587377776;0.0132558376669725;5.6114540786667675;0.7520483005144049;0.5655766463066046;6.307541013446261;1.808921306035563;-0.974813908432752;0.00022531316111985041;0.03772815335984514;-0.0764759865402263;0.00015960115473878978;0.03161007443662689;0.0;53.73326006;86.84646582
5.065816643108674;0.7979684960906228;6.088204575851113;-0.0295707147955541;0.020839920713334185;0.0132558376669725;5.223108838414633;0.7765729579630705;0.6030655590395129;6.239789819989165;1.8581717470436638;-0.974813908432752;0.00026461559531611406;0.03874783318038155;-0.0739267869888855;0.00016656745921272983;0.0300805547058223;0.0;53.7332682;86.84619748
4.326896909966425;0.5738047810260162;5.464371768726812;-0.0224329560517997;0.020839920713334185;0.0132558376669725;4.498619707410698;0.5648909370888077;0.3191017708050713;5.6114540786667675;1.2298360057212667;-1.0003059039461608;3.067253462407847e-05;0.013255837666972692;-0.0739267869888855;0.00010020561099642267;0.0229427959620679;0.0;53.733271560000006;86.845909
4.167925198205135;0.46473048047931675;5.242654743409784;-0.0428265524625267;0.010120033262607896;-0.0224329560517997;4.381618072945501;0.4651532095333699;0.21636750833919513;5.475634464476034;1.0940163915305332;-1.0003059039461608;2.568174932931486e-05;0.013255837666972692;-0.0739267869888855;6.194292373656948e-05;0.01835423676965431;0.0;53.733270960000006;86.8456012
5.242654743409784;0.8339113582807859;6.200852683397137;-0.0244723156928724;0.011432243432792021;-0.0224329560517997;5.475634464476034;0.8582573218023247;0.7366056304272992;6.4768001344065915;2.0951820614610908;-1.0054043030488429;1.3204786092406669e-05;0.008157438564290631;-0.0739267869888855;0.00022133612908807626;0.03619863362904041;0.0;53.733267760000004;86.84529592000001
4.571910164957809;0.7707591984806795;6.200852683397137;-0.0438462322830631;0.009635839424841369;-0.0244723156928724;4.894294795908048;0.7788923074414751;0.6066732265915054;6.4768001344065915;2.0951820614610908;-1.0013255837666972;2.630559749116011e-05;0.01223615784643628;-0.0739267869888855;0.00019014372099580485;0.03619863362904041;0.0;53.733267760000004;86.8449324
6.200852683397137;0.6048889372824852;6.200852683397137;-0.0458855919241358;0.009188441175542997;-0.0244723156928724;6.4768001344065915;0.5838070192856539;0.34083063576719985;6.4768001344065915;1.5825053384985432;-1.0013255837666972;1.6947875063478095e-05;0.011216478025899868;-0.0805547058223717;0.00012222225237488454;0.029570714795554204;0.0;53.733272920000005;86.84458428
4.944935137168027;0.6120730395909529;6.200852683397137;-0.0295707147955541;0.008604067751495425;-0.0265116753339451;5.3699925808936255;0.5948760196337398;0.3538774787352816;6.4768001344065915;1.5825053384985432;-1.0013255837666972;1.6947875063478095e-05;0.011216478025899868;-0.0805547058223717;0.00012471764502226636;0.029570714795554204;0.0;53.733280519999994;86.84424884
5.333028412170042;0.6325092962049343;6.470827889567851;-0.0336494340776996;0.008377524587108645;-0.0265116753339451;5.7679319312555375;0.590739570813591;0.34897324052502565;6.862749631745239;1.4927570508516137;-1.0013255837666972;2.1106862809114815e-05;0.011216478025899868;-0.0866727847455898;0.0001369086778516627;0.028041195064749697;0.0;53.733287940000004;86.84393370000001
5.472717243299846;0.5821778196109932;6.470827889567851;-0.0265116753339451;0.008074164533426739;-0.0265116753339451;5.924278360302468;0.5677146987288669;0.3222999791528081;6.862749631745239;1.4927570508516137;-1.0013255837666972;1.1749140381433409e-05;0.009177118384827265;-0.0866727847455898;0.00011445014402522725;0.028041195064749697;0.0;53.733294840000006;86.84361292
6.470827889567851;0.6554192413073252;6.470827889567851;-0.0428265524625267;0.008488490012549107;-0.0265116753339451;6.862749631745239;0.6094202899729578;0.37139308983072394;6.862749631745239;1.6269089310572182;-0.977363107984093;0.0001803441061201582;0.03313959416743151;-0.0805547058223717;0.00015999105983994345;0.034159273987967795;0.0;53.733298760000004;86.84335572
5.888474238971682;0.7946022842378693;6.470827889567851;-0.0448659121035994;0.01123962867597051;-0.0265116753339451;6.3162237933039656;0.7449147520825307;0.5548979878701781;6.862749631745239;1.7868931718278862;-0.977363107984093;0.00019708403179634316;0.03313959416743151;-0.0795350260018354;0.00022986205396663094;0.035178953808504096;0.0;53.733296159999995;86.84308175999999
4.709834228354987;0.9862356394156564;6.470827889567851;-0.0275313551544814;0.00902287011548034;-0.0275313551544814;5.235840700688021;0.959205671265403;0.9200755197877124;6.862749631745239;2.342321359619966;-0.977363107984093;0.0002052980325939755;0.03313959416743151;-0.0723972672580809;0.0003288199686393616;0.04231671255225859;0.0;53.73328748;86.842771
4.586388110522646;0.8677952768251851;5.888474238971682;-0.0520036708473539;0.009250468791713444;-0.0275313551544814;5.075856459917353;0.8801934097838224;0.7747404386268719;6.3162237933039656;2.354291706898152;-0.977363107984093;0.00016739925676186482;0.030080554705822715;-0.0622004690527174;0.0002377901243567489;0.04180687264199039;0.0;53.733277900000004;86.84243885999999
4.106287364397909;0.46432463340414915;4.709834228354987;-0.0448659121035994;0.009306498794008052;-0.0275313551544814;4.520428272125273;0.5288626088573167;0.2796956590473672;5.235840700688021;1.2739086142822074;-0.977363107984093;0.00013937807682563847;0.030080554705822715;-0.0622004690527174;5.5314537016961084e-05;0.0183542367696543;0.0;53.733270620000006;86.84209877999999
3.550655779466087;0.4096133340944432;4.586388110522646;-0.0469052717446721;0.007012847502416345;-0.0336494340776996;3.9619320864058136;0.42106024183526014;0.17729172725436773;5.075856459917353;1.1139243735115394;-0.9901091057407974;3.919845950262883e-05;0.01733455694911834;-0.0622004690527174;4.855618193030229e-05;0.017334556949118;0.0;53.733269500000006;86.84173926
4.04922230310822;0.4164549473755742;4.611965855582837;-0.0397675130009177;0.00873003152564654;-0.0254919955134087;4.322004288693259;0.3466492259227969;0.12016568583287429;4.821735516747274;0.8598034303414601;-0.9982665443050882;1.1749140381430156e-05;0.009177118384827487;-0.0622004690527174;5.224728355455425e-05;0.0183542367696543;0.0;53.73328108;86.84137195999999
4.480949844321229;0.41566229298806767;4.611965855582837;-0.0336494340776996;0.013208691681216448;-0.0127459977567044;4.742832945403458;0.3491249435353929;0.12188822619859128;4.821735516747274;0.8598034303414601;-0.9982665443050882;1.174914038142873e-05;0.009177118384827043;-0.0622004690527174;5.2169302534323576e-05;0.0183542367696543;0.0;53.733309559999995;86.84103692
4.611965855582837;0.23367896149912332;4.611965855582837;-0.0254919955134087;0.017896760705803833;0.0050983991026817;4.821735516747274;0.22451543760163967;0.05040718172145576;4.821735516747274;0.4997312280540145;-0.9901091057407974;3.919845950262704e-05;0.017334556949117896;-0.0708677475272764;1.567418506636625e-05;0.009686958295095305;0.0;53.73335652000001;86.84069475999999
4.138859169523778;0.18161528729609303;4.611965855582837;-0.0127459977567044;0.014626275403060015;0.0050983991026817;4.352527704045191;0.19074653079595535;0.03638423901069235;4.821735516747274;0.46920781270208245;-0.9901091057407974;5.229927090138258e-05;0.01733455694911834;-0.0729071071683491;8.889836306297291e-06;0.007647598654022605;0.0;53.733454519999995;86.84028076000001
4.358034904890385;0.25824078228226965;4.611965855582837;0.0050983991026817;0.012296552290267453;0.0050983991026817;4.5564490161214914;0.250470450228562;0.06273544643769857;4.821735516747274;0.6769149402336936;-0.9901091057407974;7.974859002258089e-05;0.022432956051799735;-0.0693382277964718;1.6843900369826595e-05;0.01121647802589991;0.0;53.73357438000001;86.83988862
4.282754978941684;0.38939871120182007;4.959195835132668;-0.0173345569491179;0.010859709768782606;0.0050983991026817;4.485241335284156;0.3605361280177982;0.12998629960606617;5.110846544649668;0.9660259681360879;-0.9901091057407974;7.974859002258028e-05;0.022432956051799735;-0.0693382277964718;4.7776371727995985e-05;0.018354236769654406;0.0;53.733717160000005;86.83950404
3.9163690072614217;0.38861506065631185;4.959195835132668;-0.0239624757826041;0.010938412988512882;0.0050983991026817;4.14482057651358;0.36439051623327984;0.13278044832075617;5.110846544649668;0.9660259681360879;-0.9901091057407974;8.817054020749442e-05;0.022432956051799735;-0.0693382277964718;4.699656152568931e-05;0.018354236769654406;0.0;53.733869240000004;86.83910828
