acc_X;acc_X_std;acc_X_max;acc_Z;acc_Z_std;acc_Z_max;acc;acc_std;acc_var;acc_max;acc_range;fb_tilt_max;fb_tilt_var;fb_tilt_range;tilt_max;tilt_var;tilt_range;class;lat;lon
4.080443622496195;1.9395033954433567;6.704194698281514;-0.0224329560517997;0.022656633962377243;-0.0224329560517997;5.681971277381934;1.6300978076836725;2.6572188626151156;6.800068164745118;4.040682714414032;-0.9850107066381156;0.0001306961899066174;0.027531355154481463;-0.0356887937187723;0.0011278135019228918;0.0815743856429081;0.0;53.72804685999999;86.85262926
2.0138235620949003;1.9395033954433567;6.704194698281514;-0.0836137452839808;0.022656633962377243;-0.0224329560517997;3.6106818751901706;1.6300978076836725;2.6572188626151156;6.800068164745118;4.040682714414032;-0.9850107066381156;0.0001306961899066174;0.027531355154481463;-0.0356887937187723;0.0011278135019228918;0.0815743856429081;30.0;53.72804685999999;86.85262926
4.845004166009235;1.9395033954433567;6.704194698281514;-0.0530233506678902;0.022656633962377243;-0.0224329560517997;5.3278452989664595;1.6300978076836725;2.6572188626151156;6.800068164745118;4.040682714414032;-0.9850107066381156;0.0001306961899066174;0.027531355154481463;-0.0356887937187723;0.0011278135019228918;0.0815743856429081;0.0;53.72804685999999;86.85262926
2.247573356657179;2.1649685183494323;6.704194698281514;-0.037728153359845;0.025260496726593307;-0.0142755174875089;2.7593854503310866;1.704650798186569;2.905834343758107;6.800068164745118;4.040682714414032;-0.9814418272662384;0.0002095609950332431;0.031100234526358683;-0.0356887937187723;0.001385150868684131;0.0815743856429081;0.0;53.728094639999995;86.85250808
6.704194698281514;1.743903515759155;6.704194698281514;-0.0520036708473539;0.016646097397078098;-0.0142755174875089;6.800068164745118;1.5516079717812985;2.407487298095275;6.800068164745118;4.040682714414032;-0.9814418272662384;0.0005380170522448592;0.05659223003976743;-0.0397675130009177;0.0009323410778779916;0.0774956663607627;0.0;53.728157579999994;86.85239693999999
6.107505739596681;1.8795505185046149;6.799394656399288;-0.0142755174875089;0.049544268765160646;0.0662791883348628;6.1611581615404605;1.6820386944543786;2.82925416964179;6.81971115030774;4.060325699976653;-0.9641072703171204;0.0008097809077487727;0.07392678698888544;-0.0397675130009177;0.0010322607584669014;0.0774956663607627;60.0;53.72822862;86.85230926
5.714618657329516;2.68635482843771;6.799394656399288;-0.0520036708473539;0.04854254301109304;0.0662791883348628;5.747391223496022;2.5945002664981907;6.731431632859183;6.81971115030774;6.150318261005018;-0.9641072703171204;0.0007656956376450286;0.07392678698888544;-0.0071377587437544;0.002166832615476454;0.110125420617926;60.0;53.728307380000004;86.8522037
6.799394656399288;4.044746743623844;6.799394656399288;0.0662791883348628;0.05956579919004735;0.0922810237585398;6.81971115030774;2.6841519078777294;7.204671464563654;6.81971115030774;6.150318261005018;-0.9641072703171204;0.0008779883067772064;0.07392678698888544;0.040787192821454;0.004987146180485986;0.1560110125420617;60.0;53.72838555999999;86.85208732
0.407170434750194;4.020190345802785;6.799394656399288;-0.0020393596410727;0.06459532833848217;0.0922810237585398;0.669392889302722;2.6599509353599577;7.075338978522313;6.81971115030774;6.150318261005018;-0.9641072703171204;0.0007762230753761707;0.07392678698888544;0.040787192821454;0.004963439950335859;0.1560110125420617;60.0;53.728440060000004;86.8519575
-2.2790386621876606;4.343638191416993;6.799394656399288;0.0922810237585398;0.0769229993419202;0.0922810237585398;2.365212611299956;2.6499013781040732;7.0219773136778665;6.81971115030774;6.150318261005018;-0.9641072703171204;0.000561073440559733;0.058121749770572495;0.040787192821454;0.005663969448741449;0.1560110125420617;60.0;53.72846306;86.8518269
5.960743764388964;3.500605832843649;5.960743764388964;-0.0428265524625267;0.07385255922661672;0.0922810237585398;6.013302520194751;1.9680353658146126;3.8731632010970563;6.013302520194751;5.343909630892028;-0.9839910268175792;0.00027012625407907173;0.03823799327011368;0.040787192821454;0.0037610765930724322;0.1447945345161618;60.0;53.728466600000004;86.85162564
-2.019416791737678;3.5258813853301643;5.960743764388964;-0.0948302233098807;0.07911526129537609;0.0922810237585398;2.2629905913697654;1.693409632264114;2.8676361826448815;6.013302520194751;4.048640244531156;-0.9839910268175792;0.0008734394139304224;0.07647598654022636;0.040787192821454;0.003820758067222311;0.1447945345161618;60.0;53.72847652;86.85141028000001
-2.0122880250772397;4.044256199427921;5.960743764388964;-0.0734169470786173;0.05114383020388904;0.0254919955134087;2.3896771311340226;1.972521556169119;3.890841289551843;6.013302520194751;4.048640244531156;-0.9839910268175792;0.0010662084959406582;0.07647598654022636;0.0361986336290404;0.004980959686214346;0.14020597532374818;60.0;53.72850504;86.85118279999999
-1.151779262674201;3.619480321583676;5.267609833266556;-0.0989089425920261;0.05709114376376667;0.0254919955134087;1.964662275663595;1.679466198465493;2.820606711788135;5.5543215256463165;3.589659249982722;-0.971754868971143;0.0013400258516439792;0.08871214438666253;0.0361986336290404;0.003921093646585786;0.1269501376567757;60.0;53.72856504;86.8509356
5.267609833266556;3.6435044080613768;5.379261654809323;0.0254919955134087;0.052494202590046946;0.0254919955134087;5.5543215256463165;1.8501961958549544;3.4232259631561446;5.959570802173332;3.994908526509737;-0.971754868971143;0.0012445770828816217;0.08871214438666253;0.0346691138982359;0.00400063428722108;0.1284796573875802;60.0;53.72866944;86.85066624
4.380312396765325;2.7737206037493793;5.379261654809323;-0.0010196798205363;0.05434711696361797;0.040787192821454;4.906254427770237;1.639510669144989;2.6879952342402498;5.959570802173332;3.994908526509737;-0.962577750586316;0.0015000429051573213;0.09788926277148957;0.0214132762312633;0.002343381645278705;0.11522381972060759;60.0;53.7288109;86.85046466
5.379261654809323;1.3204203311987681;5.379261654809323;-0.0081574385642908;0.04351895040863314;0.040787192821454;5.959570802173332;0.8713400470415724;0.7592334775784096;5.959570802173332;2.1780835294762713;-0.962577750586316;0.0011294770970211427;0.08565310492505351;-0.0397675130009177;0.00047495640055165474;0.0540430304884266;60.0;53.7289711;86.85026134
4.929979075274424;1.8439392427828911;5.379261654809323;0.040787192821454;0.06340326158990789;0.040787192821454;5.688264293637275;1.1269977136998528;1.2701238466846954;5.959570802173332;2.541735940318965;-0.962577750586316;0.001971672115512471;0.09788926277148957;-0.0214132762312633;0.0009380596860282431;0.072397267258081;60.0;53.729149840000005;86.85007144
2.1674721606379204;1.8190073900219914;5.379261654809323;-0.0723972672580809;0.06948278167883117;0.040787192821454;3.7814872726970603;1.1389238660531678;1.297147572665494;5.959570802173332;2.541735940318965;-0.962577750586316;0.0017547809045775447;0.09788926277148957;-0.0214132762312633;0.0009254267607508728;0.072397267258081;60.0;53.72935462;86.84990758
1.1495272930461726;1.7310898555715541;5.065148226943604;-0.1193025390027531;0.06501768312819407;0.040787192821454;3.4178348618543666;1.1070122288744197;1.2254760748775109;5.84813949851698;2.4303046366626138;-0.893239522789844;0.004621675132338214;0.1672274905679616;-0.0214132762312633;0.0007034407898275415;0.0616906291424493;60.0;53.729580039999995;86.84975924
2.705437082309045;1.4685466282066166;5.065148226943604;-0.1142041399000713;0.026716778844853503;-0.0571020699500356;4.295934389535538;0.9272070408014101;0.8597128965117078;5.84813949851698;2.4303046366626138;-0.893239522789844;0.00444315058335678;0.1672274905679616;-0.0214132762312633;0.0004713172862742214;0.058121749770572106;0.0;53.72982715999999;86.84961724
5.065148226943604;1.7604964855118799;5.451770964273663;-0.0856531049250535;0.027060926948515508;-0.0571020699500356;5.84813949851698;1.0607519910435093;1.125194786502769;5.84813949851698;2.4303046366626138;-0.893239522789844;0.0037226059564253095;0.1672274905679616;-0.0214132762312633;0.000849785171127117;0.0754563067196901;0.0;53.730091;86.84950732
3.447993293461973;1.2845568599278527;5.451770964273663;-0.0571020699500356;0.04876372877013698;0.0163148771285816;4.3503823930748995;1.0771088546122503;1.1601634846841136;5.84813949851698;2.4821014689348897;-0.893239522789844;0.0022003124668288246;0.11930253900275312;-0.0458855919241358;0.0004879532372567685;0.050983991026817596;0.0;53.73036674;86.84942466
5.451770964273663;1.2654814594758443;5.59427656481979;-0.0703579076170082;0.039804100061427115;0.0163148771285816;5.824416288327234;1.1442509559185732;1.3093102501205687;5.871781104669057;2.5057430750869663;-0.893239522789844;0.0023615772166658672;0.11930253900275312;-0.0458855919241358;0.0005295431147131311;0.0520036708473539;0.0;53.73064982000001;86.84936981999999
2.802897311981485;1.4391973718292448;6.026639260762535;0.0163148771285816;0.03524170420880073;0.0163148771285816;3.3660380295820906;1.22381238971504;1.4977167652200365;6.243128487657221;2.87709045807513;-0.9370857550729071;0.000797693849613026;0.07545630671968995;-0.0458855919241358;0.0006942390294403242;0.058121749770571995;30.0;53.73092024;86.8493484
5.59427656481979;1.4200169413409032;6.396810698425505;-0.0652595085143265;0.03612747333089146;0.0163148771285816;5.871781104669057;1.28079363516736;1.6404323358852202;6.617105484335388;3.2510674547532976;-0.9370857550729071;0.0008579991719247517;0.07545630671968995;-0.0458855919241358;0.0006834256613016702;0.0662791883348628;0.0;53.73116542;86.84934782
6.026639260762535;1.6538669260124537;7.116950256807896;-0.0479249515652085;0.036604943340351366;0.0163148771285816;6.243128487657221;1.487093144638585;2.211446020831076;7.2406164905885175;3.874578461006427;-0.9370857550729071;0.0006558723674868317;0.06322014887325367;-0.0458855919241358;0.0008969896820400888;0.0774956663607627;0.0;53.7313805;86.84935809999999
6.396810698425505;0.5606120483256988;7.116950256807896;-0.0183542367696543;0.037919889579307656;0.0214132762312633;6.617105484335388;0.5186732564353955;0.26902194694129755;7.2406164905885175;1.3688353859194606;-0.9839910268175792;8.910631245026791e-05;0.02345263587233648;-0.0978892627714897;9.11858063230802e-05;0.025491995513408805;0.0;53.73157162;86.84937002000001
7.116950256807896;0.5614084248171195;7.116950256807896;0.014785357397777;0.03166676385138998;0.0265116753339451;7.2406164905885175;0.6017203852280578;0.3620674219990023;7.2406164905885175;1.642787630352709;-0.9839910268175792;9.492889529415817e-05;0.02345263587233648;-0.0968695829509534;9.721633855425231e-05;0.026511675333945106;0.0;53.73173455999999;86.849364
6.179634576532002;0.7384510967433826;7.116950256807896;0.0214132762312633;0.018220625587377734;0.0265116753339451;6.23478168681806;0.7978725074694872;0.636600538175647;7.2406164905885175;2.0033052907998714;-0.9880697460997246;8.577912225375854e-05;0.019373916590191054;-0.0917711838482716;0.00015835345841510397;0.0316100744366269;0.0;53.731894239999995;86.84934448
5.59160786780733;0.7332184800887178;7.116950256807896;0.0265116753339451;0.00659252773539065;0.0326297542571632;5.597828860235809;0.7712573293035472;0.5948378680044402;7.2406164905885175;2.0033052907998714;-0.9880697460997246;8.494732470463133e-05;0.019373916590191054;-0.0917711838482716;0.00015461036944403137;0.0316100744366269;0.0;53.73206584;86.84931128
5.208843998700955;0.4573825749209485;6.339803598768873;0.0224329560517997;0.007852196719966535;0.0326297542571632;5.237311199788646;0.4860504520424201;0.2362450419306409;6.44589958315554;1.2085883833668936;-0.9890894259202612;6.966304473941771e-05;0.02039359641072691;-0.0917711838482716;7.226241208043462e-05;0.020393596410727008;0.0;53.732280519999996;86.84921364
5.707571278215949;0.8465049472689856;7.371951155429953;0.0326297542571632;0.019738114830764982;0.0326297542571632;5.790902056770107;0.8779074629873034;0.7707215135688035;7.468068101874089;2.230756902085443;-0.9850107066381156;0.00011312446668131494;0.02447231569287245;-0.0917711838482716;0.00020514207055351085;0.03568879371877229;0.0;53.73248160000001;86.84908704
6.339803598768873;1.1293680725563118;7.92175903455406;0.0112164780258998;0.023423801107912607;0.0326297542571632;6.44589958315554;1.1462394985279372;1.3138649879855766;8.002576516170794;2.7652653163821483;-0.9850107066381156;0.00011312446668131494;0.02447231569287245;-0.0917711838482716;0.0003590246171420508;0.0458855919241358;0.0;53.732666359999996;86.84894412
7.371951155429953;0.9011846837506723;7.92175903455406;-0.0173345569491179;0.02152949568037179;0.0326297542571632;7.468068101874089;0.898951172973817;0.8081132113910013;8.002576516170794;2.2116744594006876;-0.9850107066381156;0.00011312446668131441;0.02447231569287245;-0.0999286224125624;0.00023259138967471143;0.037728153359845;0.0;53.73284192;86.8487408
7.92175903455406;0.9570985536773847;7.92175903455406;-0.0193739165901906;0.022270143436159313;0.0346691138982359;8.002576516170794;0.9606071377360615;0.9227660730694687;8.002576516170794;2.419225098018517;-0.9850107066381156;0.00012372988543268726;0.02447231569287245;-0.0968695829509534;0.000260664556957755;0.040787192821454;0.0;53.73298552;86.8485004
6.262057857256406;1.1156098110074777;7.92175903455406;0.0010196798205363;0.023739057258739177;0.0346691138982359;6.356053758047672;1.118399055988732;1.250816448436487;8.002576516170794;2.493784983257062;-0.9850107066381156;5.094759988405352e-05;0.017334556949118007;-0.0938105434893443;0.0003673425926333225;0.0438462322830631;0.0;53.733064660000004;86.84827234
5.516810376073467;1.0437934222320246;7.92175903455406;0.0346691138982359;0.020507989559619303;0.0346691138982359;5.583351418152278;1.0473870034432888;1.0970195349819118;8.002576516170794;2.493784983257062;-0.9850107066381156;6.914317127121062e-05;0.01784439685938588;-0.0938105434893443;0.0003207619298821963;0.0438462322830631;0.0;53.73312502;86.84802038000001
5.416769726991062;0.5671318605851331;6.739341013399949;0.0214132762312633;0.019806476695947966;0.0499643112062812;5.508791532913732;0.5523071564293667;0.30504319504309296;6.764307209707502;1.2555156767937694;-0.9737942286122158;0.00015102324251342248;0.029060874885285748;-0.0938105434893443;7.829294431160649e-05;0.021413276231263406;0.0;53.73317194;86.84775498
5.632529168679124;0.8747131837039305;7.377895173099501;0.0081574385642908;0.019806476695947955;0.0560823901294993;5.689737979890843;0.8443593211330837;0.7129426631843219;7.389854689486108;1.8810631565723757;-0.9737942286122158;0.00018268353672707923;0.0326297542571633;-0.0938105434893443;0.0002407014157787007;0.036708473539308714;0.0;53.73319664;86.84751856
6.739341013399949;0.993201740124414;7.598149750857946;0.0499643112062812;0.022681860244150896;0.0560823901294993;6.764307209707502;0.9582705078678634;0.9182823662493329;7.601681425914651;2.092889893000919;-0.9737942286122158;0.00017909640979646776;0.0326297542571633;-0.0938105434893443;0.000323049373142298;0.0397675130009177;0.0;53.73321426;86.84729042000001
7.377895173099501;0.8992901788407864;7.598149750857946;0.0560823901294993;0.02858379160696187;0.0560823901294993;7.389854689486108;0.8876751996967271;0.7879672601566244;7.601681425914651;1.911943446023808;-0.9737942286122158;0.0001821636632588747;0.0326297542571633;-0.0989089425920261;0.0002675268867380551;0.034669113898235904;0.0;53.733228399999994;86.84705879999999
7.598149750857946;1.061607138349736;7.598149750857946;0.0091771183848271;0.035924001690665;0.0560823901294993;7.601681425914651;1.0659849179616723;1.136323845321753;7.601681425914651;2.497919093043829;-0.9737942286122158;0.00018902599303917539;0.0326297542571633;-0.0897318242071989;0.0003611041110148692;0.0438462322830631;0.0;53.733243;86.84683276
5.774736153470654;1.2247547882702459;7.598149750857946;-0.0091771183848271;0.03355350924633234;0.0560823901294993;5.776055982411401;1.2285153696486022;1.5092500134628417;7.601681425914651;2.531170436484901;-0.9880697460997246;7.985256471622709e-05;0.01835423676965442;-0.0876924645661262;0.0004930479972451761;0.0458855919241358;0.0;53.7332574;86.84659116
5.103621873237203;1.2061774800483431;7.598149750857946;-0.0254919955134087;0.014599593212273134;0.0091771183848271;5.103762332870822;1.2075701028406574;1.4582255532745958;7.601681425914651;3.1280468528660945;-0.9880697460997246;6.831137372208643e-05;0.016314877128581595;-0.078515346181299;0.00045592903161537074;0.055062710308962995;0.0;53.733269840000006;86.84633735999999
5.070365087949974;0.6628725126246788;5.774736153470654;-0.023452635872336;0.006432878676695156;-0.0091771183848271;5.07051098942975;0.6616950695686579;0.43784036509147095;5.776055982411401;1.7314532141598464;-0.9880697460997246;0.00010480649119004527;0.022432956051799846;-0.0713775874375446;0.00011977884707432368;0.02855103497501779;0.0;53.73328067999999;86.84604612000001
4.473279916990268;0.44343867023706157;5.103621873237203;-0.0224329560517997;0.005585016391405722;-0.0112164780258998;4.473634573048557;0.4422024441702908;0.19554300163017915;5.103762332870822;1.059159564619268;-0.9880697460997246;6.93511206584978e-05;0.022432956051799846;-0.0713775874375446;5.437876477419417e-05;0.018354236769654295;0.0;53.73329226;86.84574538000001
4.039677941904495;0.46623300444302324;5.194256435793755;-0.0193739165901906;0.006862983040874325;-0.0081574385642908;4.044602768251554;0.48155325016461087;0.2318935327441003;5.25603145738613;1.2114286891345758;-0.9880697460997246;6.685572801111543e-05;0.022432956051799846;-0.0713775874375446;5.853775251983059e-05;0.019373916590190693;0.0;53.733304499999996;86.84542481999999
4.72463533187872;0.536023590153832;5.358666485176193;-0.0112164780258998;0.015707703460718356;0.0173345569491179;4.743583709330269;0.5815347036865713;0.3381826115918284;5.481501043524781;1.4368982752732267;-0.9890894259202612;6.1033145167224226e-05;0.021413276231263323;-0.0713775874375446;7.777307084339834e-05;0.021413276231263392;0.0;53.73331874;86.84511138
5.194256435793755;0.7652317187238776;6.101334289521246;-0.0081574385642908;0.016170848911138583;0.0173345569491179;5.25603145738613;0.8257645271535046;0.6818870543050509;6.25431689057718;2.209714122325626;-0.9890894259202612;5.8537752519842215e-05;0.021413276231263323;-0.0713775874375446;0.00017384568776759537;0.0356887937187723;0.0;53.73333133999999;86.84479630000001
5.358666485176193;0.4969462451382866;6.101334289521246;0.0173345569491179;0.016015791245271294;0.0173345569491179;5.481501043524781;0.5543475559725874;0.307301212812781;6.25431689057718;1.510733181246911;-0.9890894259202612;0.0001999433358714726;0.03772815335984481;-0.0825940654634444;8.193205858903683e-05;0.024472315692872504;0.0;53.73334478;86.84449742
6.101334289521246;0.35221566411571686;6.101334289521246;-0.0244723156928724;0.016992284256120156;0.0173345569491179;6.25431689057718;0.3913216200007055;0.15313261027997652;6.25431689057718;0.9982854331910502;-0.962577750586316;0.0005368213432679983;0.06423982869378997;-0.0907515040277353;4.0030257051752464e-05;0.01631487712858161;0.0;53.73335324;86.84420892
5.444837538391603;0.3180918665427492;6.101334289521246;-0.0183542367696543;0.02052825938375155;0.0173345569491179;5.672817803447352;0.3128664192688629;0.09788539630611989;6.25431689057718;0.7728158470523994;-0.962577750586316;0.0005440995718228609;0.06423982869378997;-0.092790863668808;3.2544079109607596e-05;0.01427551748750891;0.0;53.7333528;86.84393712
5.685157305918304;0.45426194331506586;6.423640405219166;-0.0214132762312633;0.010709065649528777;-0.0081574385642908;5.949568535124917;0.4212281191137244;0.17743312833208597;6.6041614877576365;1.0181041400209585;-0.962577750586316;0.000528451380429906;0.06423982869378997;-0.0938105434893443;6.217686679726612e-05;0.01835423676965431;0.0;53.73334406;86.84366725999999
5.345734852505563;0.4236674826270034;6.423640405219166;-0.037728153359845;0.010863299557796708;-0.0081574385642908;5.586057347736678;0.40478557180361424;0.16385135914037893;6.6041614877576365;1.0181041400209585;-0.962577750586316;0.0005310507477709274;0.06423982869378997;-0.0938105434893443;5.281914436958421e-05;0.01835423676965431;0.0;53.73333274;86.84339994
6.423640405219166;0.5830919854815362;6.423640405219166;-0.0081574385642908;0.010709065649528782;-0.0081574385642908;6.6041614877576365;0.5937429975503733;0.3525307471401026;6.6041614877576365;1.6390428391065868;-0.962577750586316;0.00038179507504940727;0.0530233506678901;-0.0856531049250535;9.274542672769095e-05;0.026511675333945106;0.0;53.73331757999999;86.84311854
5.638545585673473;1.0587971824792763;6.423640405219166;-0.0265116753339451;0.013914053311647322;-0.0081574385642908;5.802181525369877;1.0682604890477194;1.1411804724604728;6.6041614877576365;2.8616362496071712;-0.9911287855613338;0.00010080346548486759;0.024472315692872337;-0.0632201488732537;0.00032564874048331664;0.04894463138574491;0.0;53.73330122;86.84282058000001
4.819132117240918;1.1566941850697974;6.423640405219166;-0.0265116753339451;0.016686648242542363;-0.0081574385642908;4.96511864865105;1.1650689295173187;1.357385610526631;6.6041614877576365;2.8616362496071712;-0.9911287855613338;0.00010366276955999262;0.024472315692872337;-0.0632201488732537;0.00038969715176611253;0.04894463138574491;0.0;53.733289639999995;86.84250691999999
3.5764195612524388;0.8025342303592699;5.638545585673473;-0.0448659121035994;0.010709065649528813;-0.0265116753339451;3.7425252381504652;0.8008491167744511;0.6413593078384185;5.802181525369877;2.059656287219412;-0.9911287855613338;0.00010366276955999262;0.024472315692872337;-0.0632201488732537;0.00018424315713168424;0.034669113898236;0.0;53.7332859;86.84217550000001
4.047687159536146;0.6325223675509921;4.911275104956378;-0.0499643112062812;0.009901925878503302;-0.0265116753339451;4.194236965053916;0.617398863019823;0.3811813560581703;5.046980650601483;1.3044554124510181;-0.9890894259202612;0.00011780332789515479;0.02651167533394494;-0.0632201488732537;0.0001276809237910311;0.022432956051799804;0.0;53.733291359999996;86.84181744
4.911275104956378;0.5305515757441023;4.911275104956378;-0.0336494340776996;0.015839537106730844;-0.0112164780258998;5.046980650601483;0.5161090882882644;0.26636859101374355;5.046980650601483;1.3044554124510181;-0.9890894259202612;8.910631245026602e-05;0.021413276231263323;-0.0632201488732537;8.442745123641409e-05;0.022432956051799804;0.0;53.733313380000006;86.84145034000001
3.6531350580227215;0.4590372318302683;4.911275104956378;-0.0469052717446721;0.022839462296569427;0.0025491995513408;3.832810137171005;0.44791729582486484;0.2006299038990595;5.046980650601483;1.2141705134304783;-0.9890894259202612;6.966304473941698e-05;0.02039359641072691;-0.0632201488732537;6.529610760648775e-05;0.022432956051799804;0.0;53.73335926;86.84107637999999
4.101815757266907;0.4643615601762725;4.911275104956378;-0.0112164780258998;0.024714354893330508;0.0124910778015702;4.275042022976444;0.4645531912249252;0.21580966747726193;5.046980650601483;1.2141705134304783;-0.9890894259202612;8.888536622627823e-05;0.022687876006933783;-0.0632201488732537;6.623187984925588e-05;0.022432956051799804;0.0;53.733424639999996;86.84070656
4.085603531063359;0.2202989676920853;4.101815757266907;0.0025491995513408;0.027209406573280037;0.023452635872336;4.1790749795703634;0.2391005764959893;0.057169085680714424;4.275042022976444;0.5790243788303555;-0.9890894259202612;0.00012163739472316176;0.02753135515448113;-0.0632201488732537;1.632402690162062e-05;0.00917711838482721;0.0;53.73351365999999;86.8403143
3.977581219345992;0.36224154082120147;4.101815757266907;0.0124910778015702;0.012998418256328935;0.023452635872336;4.024791686148661;0.40921640559630973;0.16745806660916346;4.275042022976444;1.0032772531988496;-0.9992862241256244;4.165486163989776e-05;0.017334556949117896;-0.0571020699500356;4.003025705174674e-05;0.015295197308045308;0.0;53.733618420000006;86.83994802
3.671950040763996;0.3960526681898962;4.250646066533128;0.023452635872336;0.01613222421686418;0.023452635872336;3.6960176441460884;0.40572642303913764;0.1646139303521333;4.260061515340985;0.9882967455633911;-0.9992862241256244;5.184438161670578e-05;0.017334556949117896;-0.0571020699500356;4.606078928291927e-05;0.017334556949118007;0.0;53.7337682;86.83957043999999
3.247103322127617;0.37475757250320163;4.250646066533128;0.0122361578464362;0.018989740156728354;0.0300805547058223;3.2717647697775942;0.3728667479871505;0.13902961175451323;4.260061515340985;0.9882967455633911;-0.9788926277148976;0.0002145647771647174;0.037728153359844696;-0.0571020699500356;4.190180153728279e-05;0.017334556949118007;0.0;53.73392356000001;86.83915236
4.250646066533128;0.7706458525270807;5.28167408065493;-0.0193739165901906;0.022233930847146102;0.0300805547058223;4.260061515340985;0.7621123153994007;0.5808151812834357;5.285912093977864;2.01414732420027;-0.9595187111247068;0.0005316226085859437;0.05710206995003553;-0.0571020699500356;0.00014296520375624245;0.0316100744366269;0.0;53.734057299999996;86.83870754
3.8716677452725263;0.9454357386666814;5.28167408065493;0.0300805547058223;0.025696133794144215;0.0300805547058223;3.8904439701989624;0.9431483719807605;0.8895288515699591;5.285912093977864;2.44114134074435;-0.9595187111247068;0.00042182533210115123;0.046905271744672294;-0.0499643112062812;0.000228744326009988;0.0387478331803813;0.0;53.73416094;86.83826846
5.28167408065493;0.9883804048584565;5.28167408065493;-0.0142755174875089;0.026005833860640967;0.0300805547058223;5.285912093977864;0.9899353960788656;0.9799720884098205;5.285912093977864;2.44114134074435;-0.9595187111247068;0.0009640533594384718;0.0825940654634445;-0.0499643112062812;0.00023997359292320564;0.0387478331803813;0.0;53.73424824;86.83779768
2.8434261796625644;1.077536219540131;5.28167408065493;-0.0336494340776996;0.025992836691646305;0.0300805547058223;2.8447707532335142;1.0779925046950019;1.1620678401786035;5.285912093977864;2.6004680509162474;-0.9595187111247068;0.0011312446668130505;0.0825940654634445;-0.0479249515652085;0.00028052372344315724;0.040787192821454;0.0;53.73428285999999;86.83732542
3.023078602313231;1.0947552205240558;5.28167408065493;-0.0326297542571632;0.022805293630905124;0.0219231161415315;3.026328673819229;1.0933612492718503;1.1954388214093012;5.285912093977864;2.6004680509162474;-0.9595187111247068;0.0011081622848247686;0.0825940654634445;-0.0479249515652085;0.0002999669911540059;0.040787192821454;0.0;53.734307220000005;86.83688898
2.6748480295275203;0.3894509310339554;3.023078602313231;-0.0061180789232181;0.02577189055886461;0.0219231161415315;2.685444043061617;0.38476556392202005;0.1480445391802301;3.026328673819229;0.9871462157461486;-0.9809319873559704;0.0006540008230013039;0.06118078923218084;-0.0367084735393086;4.543694112107014e-05;0.018354236769654295;0.0;53.734349380000005;86.83644986
2.855752205861528;0.5175951687529193;3.023078602313231;0.0219231161415315;0.03197066195493778;0.0530233506678902;2.8676477848096895;0.5171985813749415;0.2674943725762519;3.026328673819229;1.167538968503391;-0.9809319873559704;0.0006540008230013039;0.06118078923218084;-0.0326297542571632;8.60910463346632e-05;0.0224329560517997;0.0;53.73439548;86.83600444
2.0231561907013185;0.9386735314880179;4.227521691218449;0.0142755174875089;0.04002486842292213;0.0530233506678902;2.0391824580730806;0.9355541270224161;0.8752615245886752;4.228014288270766;2.369224582954928;-0.9778729478943612;0.0007260552856944495;0.06118078923218129;-0.0326297542571632;0.00023986961822956187;0.03976751300091771;30.0;53.73441708;86.83554988
1.8562676193134076;1.036036151844256;4.227521691218449;0.0530233506678902;0.04072500867942782;0.0530233506678902;1.8587897053158382;1.0320042770885653;1.0650328279290924;4.228014288270766;2.369224582954928;-0.9778729478943612;0.0006391324418106522;0.06118078923218129;-0.0326297542571632;0.0002947682564719601;0.03976751300091771;30.0;53.734393579999995;86.83509117999999
4.227521691218449;1.0888931926327363;4.227521691218449;-0.0550627103089629;0.042357234637315756;0.0530233506678902;4.228014288270766;1.0856266612363452;1.178585247587174;4.228014288270766;2.369224582954928;-0.9778729478943612;0.0005526254967014215;0.06118078923218129;-0.0326297542571632;0.00032596066456423115;0.03976751300091771;0.0;53.73431304;86.83462664
3.723348157283836;1.0042303366292162;4.227521691218449;-0.0137656775772407;0.044223432703020545;0.0530233506678902;3.724534087409801;1.003469271858962;1.0069505795651552;4.228014288270766;2.369224582954928;-0.9778729478943612;0.0001911054869119939;0.02957071479555451;-0.0326297542571632;0.00028249924262233376;0.03976751300091771;0.0;53.73416896;86.83417536
2.201296386204344;0.8562599508268942;4.227521691218449;-0.0346691138982359;0.031150342348098495;0.0265116753339451;2.2031673344315785;0.8556440949571357;0.7321268172350158;4.228014288270766;2.024846953839188;-0.9778729478943612;0.0002500591382063849;0.034669113898235904;-0.0387478331803813;0.00020035923464601954;0.0336494340776996;0.0;53.73396764;86.83374876
3.2709922165472847;0.6370827575497553;3.723348157283836;0.0265116753339451;0.03584504535730806;0.0571020699500356;3.2719147956594243;0.6365212959175488;0.4051593601565557;3.724534087409801;1.5213667529782224;-0.9809319873559702;0.00017800467551323787;0.03161007443662689;-0.0387478331803813;0.00011052509934027702;0.02549199551340879;0.0;53.7337213;86.8333693
2.4219379752881904;0.491711128758854;3.2709922165472847;-0.0020393596410727;0.0339906868971153;0.0571020699500356;2.424041883717094;0.49183153987043177;0.24189826361132014;3.2719147956594243;1.2949910188885427;-0.974813908432752;0.0002715818997900541;0.03772815335984514;-0.0336494340776996;6.997496882032283e-05;0.0224329560517997;0.0;53.73343831999999;86.83306072
2.566555842819992;0.49486981732472873;3.2709922165472847;0.0571020699500356;0.02258999327998029;0.0571020699500356;2.569595483555115;0.4952614855037406;0.24528393902337187;3.2719147956594243;1.2949910188885427;-0.974813908432752;0.00025442607533930243;0.03772815335984514;-0.0336494340776996;7.117067779719327e-05;0.0224329560517997;0.0;53.7331281;86.83283242
1.9768155855187732;0.38193233488450845;2.975111881215338;0.0132558376669725;0.029829774189203243;0.0571020699500356;1.9769237767708816;0.3878126632922827;0.15039866180985345;2.9907322993060963;1.0138085225352147;-0.974813908432752;0.00019911153832234292;0.03772815335984514;-0.0336494340776996;4.808829580891227e-05;0.018354236769654295;0.0;53.732793400000006;86.83268204
2.1801462083721077;0.409227386186076;2.975111881215338;0.0101967982053635;0.03368340625604164;0.0571020699500356;2.1802243746836076;0.40975376641415123;0.16789814909058282;2.9907322993060963;1.0138085225352147;-0.974813908432752;0.00021449979298119356;0.029570714795554287;-0.0336494340776996;5.645825864700472e-05;0.018354236769654295;0.0;53.732363539999994;86.83257986
2.975111881215338;0.45608195243002897;2.975111881215338;-0.0244723156928724;0.020889753210865683;0.0132558376669725;2.9907322993060963;0.44449320690753286;0.1975742109869428;2.9907322993060963;1.129188334917458;-0.974813908432752;0.00030641342215975535;0.03772815335984514;-0.0316100744366268;6.5244120259661e-05;0.020393596410727098;0.0;53.7319208;86.83251088
2.0960525696705257;0.4499896627432138;2.975111881215338;-0.0244723156928724;0.016558419825909224;0.0101967982053635;2.1335213633475263;0.441365140161325;0.19480318694962606;2.9907322993060963;1.129188334917458;-0.974813908432752;0.0002325913896747127;0.03772815335984514;-0.0316100744366268;6.1033145167204805e-05;0.020393596410727098;0.0;53.7314567;86.83245126
1.7873476944137363;0.8790008773632266;2.975111881215338;-0.0295707147955541;0.008488490012549123;-0.0081574385642908;1.8615439643886382;0.8182604971201615;0.6695502411473337;2.9907322993060963;2.1536889475000316;-0.974813908432752;0.00022427341418344035;0.03772815335984514;-0.0112164780258998;0.00023186356681921023;0.0407871928214541;0.0;53.7309666;86.83236564
2.4885822693817854;0.7183441002363501;2.4885822693817854;-0.0275313551544814;0.012764338797419018;-0.0010196798205363;2.5832357537043955;0.6765420333528028;0.45770912289314497;2.5832357537043955;1.7461924018983308;-0.974813908432752;0.0002159554386921677;0.03772815335984514;-0.0112164780258998;0.00015045138169838044;0.0316100744366269;0.0;53.73047396;86.832257
0.6411051897091291;1.086074003500432;2.4885822693817854;-0.0081574385642908;0.013125778733582904;-0.0010196798205363;0.8370433518060648;0.7875394433843987;0.6202183748862086;2.5832357537043955;1.9368359692666646;-0.9850107066381156;0.00013017631643842187;0.027531355154481463;0.0061180789232181;0.0003550735787836778;0.0489446313857448;0.0;53.73005774000001;86.83214798
1.295263869575053;1.8214210321614144;2.4885822693817854;-0.0010196798205363;0.010621324898541616;-0.0010196798205363;1.3707964020485903;0.8884733715378347;0.7893849319318073;2.5832357537043955;1.9368359692666646;-0.9850107066381156;0.0006069002867819739;0.06322014887325389;0.0428265524625267;0.0010457774686402019;0.0856531049250534;0.0;53.72964676;86.83203396
-0.3475875972174936;1.3940238993058858;1.295263869575053;-0.0061180789232181;0.006915805020011395;-0.0010196798205363;0.6463997844377309;0.7339590328450665;0.5386958618948654;2.4072298146662696;1.7608300302285387;-0.99214846538187;0.0005008460992682526;0.05608239012949956;0.0428265524625267;0.0006302945928511465;0.06525950851432641;0.0;53.72926106;86.8319145
-2.339218812384561;1.4671691444764203;1.295263869575053;-0.0183542367696543;0.010288160094323916;0.0101967982053635;2.4072298146662696;0.7308754807524203;0.5341789683650815;2.4072298146662696;1.7608300302285387;-0.99214846538187;0.0004873293890949344;0.05608239012949956;0.0428265524625267;0.000687064775579079;0.06525950851432641;30.0;53.7288985;86.83180794
0.3515027049033616;1.0983502999739285;0.3515027049033616;-0.0020393596410727;0.014958393654240579;0.0101967982053635;0.7203505580155043;0.8164912725794584;0.6666579981984234;2.4072298146662696;1.8502469939713442;-0.9972468644845518;0.00039219254441350356;0.05098399102681772;0.0428265524625267;0.00039510383583541884;0.0489446313857448;0.0;53.72854024000001;86.83170568
-1.6232494257039547;1.2057061778522231;0.3515027049033616;0.0101967982053635;0.016276594219830607;0.0101967982053635;1.7094576070313954;0.8664535778620077;0.7507418025898742;2.4072298146662696;2.014429085968655;-0.9676761496889976;0.0008330452454509482;0.0805547058223719;0.0428265524625267;0.00047173318504876527;0.0489446313857448;0.0;53.72818158;86.8315979
-0.2898395545631388;0.8287003512139308;0.3515027049033616;-0.0285510349750178;0.016730208464968793;0.0101967982053635;0.5569828206949256;0.5124164157973583;0.26257058317861115;1.7094576070313954;1.316656878333781;-0.9676761496889976;0.0002748051152929424;0.039767513000918076;0.0285510349750178;0.00020971695707368762;0.0346691138982359;0.0;53.72782492;86.83147163999999
0.3017752172693687;0.727647620980014;0.3017752172693687;-0.0244723156928724;0.028309661576643563;0.0367084735393086;0.39280072869761434;0.5734475001436427;0.32884203542099305;1.7094576070313954;1.4306621980683882;-0.9676761496889976;0.0003143154988764898;0.039767513000918076;0.0285510349750178;0.00016188859799887124;0.0336494340776995;0.0;53.72738256;86.83126480000001
-0.8275319842331555;1.5215483592473136;0.3017752172693687;-0.0224329560517997;0.028169750830764916;0.0367084735393086;0.8399154460708368;1.3777111891826035;1.8980881207989433;3.561444676251996;3.282649267288989;-0.9676761496889976;0.0004528097908061691;0.05200367084735391;0.0632201488732537;0.0007345812105729706;0.0683185479759354;0.0;53.72693936;86.83103664000001
-0.2388117639792395;1.9826935398759258;0.3017752172693687;0.0367084735393086;0.027039786346841534;0.0367084735393086;0.27879540896300725;1.8279313269272588;3.341332935962049;4.0471074535440925;3.7683120445810854;-0.9676761496889976;0.0004037337354076599;0.05200367084735391;0.0703579076170082;0.0012203509792632736;0.0754563067196899;0.0;53.72649298;86.8307797
-3.546410698431274;1.7016073005959855;-0.2388117639792395;-0.0285510349750178;0.037482076522998245;0.0571020699500356;3.561444676251996;1.6833479986457671;2.8336604845447093;4.0471074535440925;3.7683120445810854;-0.9778729478943612;0.0002508909357555255;0.041806872641990345;0.0703579076170082;0.0009040599612076428;0.0662791883348628;30.0;53.72604942;86.83052046
-4.027425468880795;1.838208546149592;-0.145294635085275;-0.003059039461609;0.04212277468284857;0.0571020699500356;4.0471074535440925;1.7365027259901435;3.0154417173712;4.0471074535440925;3.7683120445810854;-0.9778729478943612;0.00022593700928170542;0.041806872641990345;0.0703579076170082;0.0010511321653627035;0.06780870806566741;30.0;53.725598680000004;86.83028476
-1.2206157159488134;2.2863765442867705;1.4019644819000463;0.0571020699500356;0.04136558392248753;0.0571020699500356;1.368051360289087;1.5150019939357422;2.2952310416292745;4.0471074535440925;3.488646125130111;-0.9992862241256244;0.0002968477503447917;0.04180687264199068;0.0703579076170082;0.0016436319570753964;0.09584990313041691;30.0;53.72510708;86.8301874
-0.145294635085275;2.261298383962743;1.4362815567884346;-0.0418068726419903;0.03891785402957168;0.0571020699500356;0.5584613284139819;1.3171452314272765;1.7348715606716136;4.0471074535440925;3.488646125130111;-0.9992862241256244;0.000289361572402647;0.04180687264199068;0.0703579076170082;0.0015848342678214673;0.09584990313041691;30.0;53.724591;86.83014236
1.4019644819000463;1.3912806615991622;2.2205040402178144;0.0326297542571632;0.03920532994496391;0.0571020699500356;1.4728059025921607;0.6252955241910809;0.39099449257339863;2.3152931899725755;1.7568318615585936;-0.9992862241256244;0.000289361572402647;0.04180687264199068;0.0214132762312633;0.0006002459063889263;0.0601611094116446;30.0;53.72405228;86.83016172
1.4362815567884346;0.9696729606337137;2.2385716733953545;-0.0132558376669725;0.028190044049228258;0.0326297542571632;1.5655450605858099;0.7282249512394644;0.5303115796077202;2.31985767060428;1.761396342190298;-0.9992862241256244;0.00028697015444890803;0.04180687264199068;0.0025491995513408;0.0002878279456714226;0.0418068726419903;0.0;53.72351794;86.83021618000001
2.2205040402178144;0.6692647317780667;3.0149903735365644;-0.0071377587437544;0.02418812934307584;0.0326297542571632;2.3152931899725755;0.6544865616848967;0.4283526594261181;3.075774191609926;1.6029682890177654;-0.9992862241256244;0.0002858784201656723;0.04180687264199068;-0.0254919955134087;0.00014067776049613687;0.028551034975017896;0.0;53.72297014000001;86.83029814
2.2385716733953545;0.6985500553195935;3.1667018604622927;-0.0285510349750178;0.014993108005068053;-0.0071377587437544;2.31985767060428;0.666254648759618;0.44389525699380195;3.2101598142075742;1.6446147536217643;-0.9941878250229428;0.00016869894043238442;0.031610074436627;-0.0254919955134087;0.00015123119190068953;0.029570714795554197;0.0;53.722537880000004;86.83034203999999
3.0149903735365644;0.4491553627836346;3.1667018604622927;-0.023452635872336;0.014588906671952217;-0.0071377587437544;3.075774191609926;0.4331338585026952;0.18760493938143277;3.2101598142075742;0.8948666242349987;-0.971754868971143;0.00037685627710148955;0.054043030488426735;-0.0387478331803813;6.779150025386396e-05;0.016314877128581595;0.0;53.7221359;86.83035989999999
3.1667018604622927;0.8071433290684348;4.2815463062132775;-0.0458855919241358;0.008694228101271443;-0.023452635872336;3.2101598142075742;0.7943020109906793;0.6309156846638373;4.3208759146491635;2.0010182440448836;-0.971754868971143;0.00044896272714146224;0.054043030488426735;-0.0392576730906495;0.0001897538158946471;0.0341592739879678;0.0;53.721771839999995;86.83033376
2.401737848621757;0.6965263229275749;4.2815463062132775;-0.0367084735393086;0.016761253599230714;-0.003059039461609;2.4561627883471693;0.6927699596551731;0.47993021700063015;4.3208759146491635;1.8647131263019943;-0.948302233098807;0.0008229597001678183;0.07749566636076277;-0.040787192821454;0.00013703864621870937;0.0326297542571633;0.0;53.72142;86.83024816
4.2815463062132775;0.6797688802740826;4.2815463062132775;-0.037728153359845;0.03279978894905328;0.0326297542571632;4.3208759146491635;0.6769992139506402;0.4583279356897848;4.3208759146491635;1.8647131263019943;-0.948302233098807;0.00027782038140857385;0.04588559192413577;-0.040787192821454;0.00013516710173317327;0.0326297542571633;0.0;53.721104319999995;86.83009632
3.568644711057675;0.6763576410319343;4.2815463062132775;-0.003059039461609;0.029600586874450642;0.0326297542571632;3.6396041851707968;0.6720807817774573;0.4516925772345982;4.3208759146491635;1.8647131263019943;-0.948302233098807;0.000170206573490244;0.031610074436627;-0.040787192821454;0.00013641479805686434;0.0326297542571633;0.0;53.72081658;86.82990074
3.347045819150392;1.0260451259764987;4.2815463062132775;0.0326297542571632;0.03391412775018227;0.0499643112062812;3.367958821641894;1.0351560043176882;1.0715479532749617;4.3208759146491635;2.7633983660974697;-0.948302233098807;0.00021678723624136354;0.03772815335984503;-0.0265116753339451;0.0003023584091077471;0.046905271744672204;0.0;53.72054366;86.82968926000001
3.576316957876432;0.8537601546901871;3.576316957876432;0.003059039461609;0.03606266030204137;0.0499643112062812;3.5961996769127884;0.863280614773597;0.7452534198438796;3.6396041851707968;2.082126636619103;-0.948302233098807;0.00048213065441294006;0.061180789232181065;-0.0265116753339451;0.00020191885505063163;0.034669113898235904;30.0;53.72026832;86.82950096
1.5381840540569869;0.7979157975746592;3.576316957876432;0.0499643112062812;0.04357506001453349;0.0499643112062812;1.5574775485516938;0.7987474147520359;0.637997432573061;3.5961996769127884;2.0387221283610946;-0.9758335882532884;0.0008377241066647981;0.06933822779647214;-0.0265116753339451;0.00018247558733978204;0.034669113898235904;0.0;53.71998344;86.82935944
2.9462210409059444;0.8689582188410562;3.695235753457837;-0.0438462322830631;0.0474211416360412;0.0499643112062812;2.948788225249344;0.8675107360794515;0.7525748772131118;3.70329656621173;2.145819017660036;-0.9788926277148976;0.0006713645968393382;0.0662791883348629;-0.0265116753339451;0.0002253651484666559;0.0382379932701132;0.0;53.719607339999996;86.82926494
2.6228592027726827;0.9572224837808894;3.954725833903184;-0.0458855919241358;0.04787936972637234;0.0499643112062812;2.6232678671791025;0.9538270901655402;0.9097861179336617;3.963032726022922;2.405555177471228;-0.986030386458652;0.0005721727391059116;0.05914142959110846;-0.0265116753339451;0.0002737653683564975;0.04180687264199041;0.0;53.719231320000006;86.82922171999999
3.695235753457837;1.5014227449908495;3.954725833903184;0.0499643112062812;0.04138443129551228;0.0499643112062812;3.70329656621173;1.436874138819439;2.064607290808105;3.963032726022922;3.6273271218523577;-0.9880697460997246;0.0004515620944824496;0.05710206995003586;-0.003059039461609;0.0006815021294693043;0.0652595085143265;30.0;53.71885158;86.82921062
3.954725833903184;2.9121202167897904;3.954725833903184;0.0173345569491179;0.03657794906458201;0.0499643112062812;3.963032726022922;1.438334817138709;2.0688070461934434;3.963032726022922;3.6273271218523577;-0.979912307535434;0.0006626307225734971;0.06525950851432649;0.0509839910268175;0.0025560098937743437;0.119302539002753;0.0;53.718474379999996;86.82921230000001
0.1725457351202016;3.036166617030816;3.954725833903184;-0.0193739165901906;0.025014389985185726;0.0499643112062812;0.3357056041705644;1.5980694768549106;2.553826052855328;3.963032726022922;3.6273271218523577;-0.979912307535434;0.00018351533427622783;0.035688793718772094;0.0509839910268175;0.0027615158757555883;0.119302539002753;0.0;53.71809982;86.82922686
-2.978203404578867;2.8602609930800496;3.954725833903184;0.0101967982053635;0.015254355586793585;0.0173345569491179;2.9827197945913313;1.4831216608521876;2.199649860888951;3.963032726022922;3.6273271218523577;-0.979912307535434;0.00017758877673869773;0.035688793718772094;0.0509839910268175;0.00244288542709303;0.119302539002753;30.0;53.717797999999995;86.82928344
-1.1727129617408445;1.4281221008296525;0.1725457351202016;0.0050983991026817;0.01350835250279561;0.0101967982053635;1.1840732615994347;1.2712142005997817;1.615985543806542;3.0786998895161073;2.742994285345543;-0.979912307535434;0.00019630422159405057;0.035688793718772094;0.052513510757622;0.0006193772500188418;0.055572550219231;30.0;53.71748758;86.8293519
-2.9235155036980345;1.1061969324235368;-0.7435785356519589;-0.0112164780258998;0.017229270162858877;0.0367084735393086;2.9809140453810135;0.9884471533401502;0.9770277749462464;3.0786998895161073;1.8946266279166726;-0.979912307535434;0.00024075340312553538;0.04078719282145393;0.052513510757622;0.00036734259263329074;0.0392576730906495;30.0;53.717158700000006;86.82944286
-2.9732059072659878;1.1085543573866294;-0.7435785356519589;0.0101967982053635;0.03233365962212274;0.0367084735393086;3.0786998895161073;1.0262678223782855;1.053225643249068;3.180888324556866;1.9968150629574315;-0.9962271846640156;0.0001086535548547514;0.024472315692872337;0.0530233506678902;0.0003817950750493764;0.0397675130009177;30.0;53.716828199999995;86.82955268
-0.7435785356519589;1.0486288055165118;-0.7435785356519589;0.0367084735393086;0.03242517697865075;0.0367084735393086;1.2384246593797752;0.8768964968078119;0.7689474661138129;3.180888324556866;1.942463665177091;-0.9534006322014889;0.0007265751591626627;0.0672988681553991;0.0530233506678902;0.0003491470212461323;0.0397675130009177;30.0;53.71649724;86.82969276
-2.9908602896250613;1.0665845193351868;-0.7435785356519589;-0.0509839910268175;0.0381365705674877;0.0367084735393086;3.180888324556866;0.9203079971043049;0.8469668095341372;3.231955841079712;1.9935311816999366;-0.9534006322014889;0.0009212157856584223;0.07749566636076255;0.0545528703986948;0.0003733471311910532;0.041297032731722305;30.0;53.716110379999996;86.82986398
-1.4702062074963216;1.1022962887578807;-0.7435785356519589;-0.0142755174875089;0.040920806945694076;0.0367084735393086;1.819904028652254;0.9917873677554069;0.9836421828391988;3.4580982939553357;2.2196736345755603;-0.9534006322014889;0.0013111208868117992;0.09584990313041686;0.058121749770572;0.00041595076191041405;0.044865912103599505;30.0;53.71571066;86.83005306
-3.0256021724858813;0.8463692814232867;-1.4702062074963216;-0.0499643112062812;0.02129886354609716;-0.0142755174875089;3.231955841079712;0.8456822270172417;0.7151784290928416;4.145210621621499;2.3253065929692447;-0.9534006322014889;0.0014670829272731508;0.09584990313041686;0.0683185479759355;0.00026716297531027627;0.04384623228306311;30.0;53.71530434;86.83024578
-3.1646647709534768;2.4696035457044014;2.3360518987820287;-0.0642398286937901;0.023907088717450585;-0.0142755174875089;3.4580982939553357;0.8457742765928948;0.7153341269462345;4.145210621621499;2.3253065929692447;-0.9534006322014889;0.0014652113827876112;0.09584990313041686;0.0683185479759355;0.002002864523604721;0.1101254206179259;30.0;53.71487688;86.83044808
-3.753685477963296;3.6797349475841874;4.213085168359815;-0.0214132762312633;0.017802102859423047;-0.0214132762312633;4.145210621621499;0.6914527357700714;0.47810688580391614;4.797652490631096;1.6011377200254286;-0.9401447945345162;0.0019382962388537317;0.10910574079738955;0.0683185479759355;0.004150357846063969;0.13765677577240742;0.0;53.71443488;86.83064096
2.3360518987820287;3.725075269020351;4.213085168359815;-0.0652595085143265;0.018724386958112443;-0.0214132762312633;3.1965147706056674;0.6238653923657631;0.38920802779168756;4.797652490631096;1.6011377200254286;-0.9401447945345162;0.0019247795286804154;0.10910574079738955;0.0683185479759355;0.004353420422744661;0.13765677577240742;0.0;53.71404808;86.83079176
4.213085168359815;3.1213654515238236;4.213085168359815;-0.0458855919241358;0.01738845620254287;-0.0214132762312633;4.797652490631096;0.6307617441651957;0.3978603779023198;4.797652490631096;1.6011377200254286;-0.9401447945345162;0.0015973632184052172;0.10094830223309892;0.0683185479759355;0.0030425074853201407;0.13765677577240742;0.0;53.71366158000001;86.83093262
3.114396671661076;1.2309441167210007;4.213085168359815;-0.0622004690527174;0.03402890187882578;0.0183542367696543;3.868610408949517;0.8274276050714815;0.6846364416343275;4.797652490631096;2.217698901332706;-0.9401447945345162;0.0013711142850426163;0.08871214438666264;-0.0142755174875089;0.0004190700027196636;0.05506271030896301;0.0;53.71328572;86.83107388
2.4171557246147937;1.3446629864132376;4.213085168359815;-0.0479249515652085;0.04288962904823121;0.0316100744366268;3.41968475782615;0.9280187164978188;0.8612187381702588;4.797652490631096;2.217698901332706;-0.9401447945345162;0.0010966210938306389;0.08871214438666264;-0.0142755174875089;0.0005091380810860965;0.05506271030896301;0.0;53.712925919999996;86.83119023999998
0.8414902479518276;1.5804244605718867;3.114396671661076;0.0183542367696543;0.04087886099436496;0.0316100744366268;2.57995358929839;0.6671123430868799;0.445038878298867;3.868610408949517;1.6020784959892276;-0.9432038339961252;0.0010301812645941003;0.08565310492505362;0.0163148771285816;0.0007711543090611693;0.0723972672580809;30.0;53.71257736;86.83130248
1.3971827198029745;1.9814557765505254;2.4171557246147937;0.0316100744366268;0.039514402113728836;0.0316100744366268;2.6158686332075836;0.4740191669798962;0.2246941706643147;3.41968475782615;1.1531528448658608;-0.9432038339961252;0.0008477056772543116;0.07647598654022636;0.0453757520138676;0.0012056645537865023;0.0876924645661261;30.0;53.71223260000001;86.83141852
-0.9906016497180128;1.8138898528222414;1.3971827198029745;-0.0254919955134087;0.046083436477930645;0.0316100744366268;2.266531912960289;0.342348745231709;0.11720266336172558;3.185710374830681;0.9191784618703918;-0.9432038339961252;0.0010301812645940938;0.07647598654022636;0.0453757520138676;0.0010146630415681565;0.06933822779647181;30.0;53.71188302;86.83152462000001
-2.5440005741109166;1.7260931730845146;1.3971827198029745;-0.0571020699500356;0.045973879239545386;0.0316100744366268;3.185710374830681;0.6420287385310431;0.4122009010997626;3.185710374830681;1.6791184361464637;-0.9432038339961252;0.0011575502643041975;0.07851534618129918;0.0453757520138676;0.0009265964760543097;0.06933822779647181;0.0;53.7115261;86.83159778
-2.4058047765673263;1.2918513754966694;0.3990251745036034;-0.0744366268991536;0.027166383187004168;-0.0254919955134087;2.8533384126192938;0.7411783112456116;0.5493452890608967;3.185710374830681;1.6791184361464637;-0.9432038339961252;0.001125318109275516;0.07851534618129918;0.0453757520138676;0.000533962039192844;0.052513510757622;0.0;53.71115208;86.83165384
0.3990251745036034;1.6709741163629124;1.1688175620802417;-0.0805547058223717;0.04722559876377852;0.023452635872336;1.5065919386842173;0.75044360543506;0.563165604938372;3.185710374830681;1.6791184361464637;-0.9870500662791885;0.0002274966296862952;0.034669113898235904;0.0453757520138676;0.0008801977690170573;0.0657693484245946;0.0;53.710764700000006;86.83166582
-0.2945316672364617;2.163725428835416;3.532545799475147;-0.0968695829509534;0.0506258451608296;0.023452635872336;1.6091035442769555;1.0396066667837451;1.080782021621209;3.997879043119552;2.491287104435335;-0.9870500662791885;0.00019131343629926224;0.034669113898235904;0.0428265524625267;0.00146157226851018;0.1050270215152441;0.0;53.710348139999994;86.83160766
1.1688175620802417;1.470622491842039;3.532545799475147;0.023452635872336;0.052011667721282046;0.023452635872336;2.024882379312994;1.0261710205299737;1.0530269633755276;3.997879043119552;2.491287104435335;-0.9870500662791885;0.0001705184975710836;0.034669113898235904;0.0050983991026817;0.0006690771535792109;0.0672988681553991;0.0;53.70991442;86.83147602
3.532545799475147;1.4203297399400754;3.532545799475147;-0.0163148771285816;0.04853718789253878;0.023452635872336;3.997879043119552;0.9456119325799796;0.8941819270376438;3.997879043119552;2.3887754988425964;-0.9870500662791885;0.00012809682256559486;0.028551034975017653;0.0050983991026817;0.0006266554785737232;0.0672988681553991;0.0;53.709486479999995;86.83134504
1.8476093278806656;1.0275995906388287;3.532545799475147;-0.0010196798205363;0.020129316459298916;0.023452635872336;2.7143489222028006;0.8668171153906818;0.7513719115342227;4.0672407524822285;2.0423583731692343;-0.9992862241256244;3.639114277431453e-05;0.016314877128581706;-0.020393596410727;0.0003292878547607405;0.0418068726419904;0.0;53.70906892000001;86.83121932
2.356887441802221;0.8161941400274098;3.532545799475147;0.0173345569491179;0.015398515800169868;0.0173345569491179;3.196546695342064;0.629894148960063;0.3967666388941221;4.0672407524822285;1.352891830279428;-0.986030386458652;0.000132359785004871;0.029570714795554065;-0.0326297542571632;0.00021034080523554618;0.029570714795554204;0.0;53.7086598;86.83112764
3.4708709570389797;0.9004964976161328;3.817928989444478;-0.0224329560517997;0.014783599224585987;0.0173345569491179;4.0672407524822285;0.7026946340820851;0.49377974876775543;4.262297002370297;1.5479480801674965;-0.986030386458652;0.00016147269922432673;0.029570714795554065;-0.0326297542571632;0.0002461080998480176;0.03364943407769961;0.0;53.708283259999995;86.83109414
1.9544678860869984;1.9110528006214538;3.817928989444478;-0.0076475986540226;0.03235776823212482;0.0173345569491179;2.873285284134697;0.9998418884751704;0.999683801949595;4.262297002370297;2.482789434850928;-0.9778729478943612;0.00024382065658792623;0.03772815335984492;0.0173345569491179;0.001107122537888343;0.0836137452839807;0.0;53.70793619999999;86.83115668
3.817928989444478;2.515023674678643;3.817928989444478;0.0050983991026817;0.03576082695403316;0.0050983991026817;4.262297002370297;1.1593306044085507;1.3440474503182953;4.262297002370297;2.482789434850928;-0.9778729478943612;0.00021605941338580513;0.034669113898235904;0.0285510349750178;0.0019321617319289159;0.09483022330988061;0.0;53.70759224;86.83125816
-1.0132401333398824;2.301794753262036;3.817928989444478;-0.0662791883348628;0.035237278434346785;0.0050983991026817;1.7795075675193692;1.2758305310665767;1.6277435440016232;4.262297002370297;3.354688314792182;-0.9778729478943612;0.0001702065734901696;0.034669113898235904;0.0285510349750178;0.0015999625857462236;0.09483022330988061;30.0;53.70724146;86.83138354
-1.6106990510217816;2.391303326547128;3.817928989444478;-0.07545630671969;0.03631978714450505;0.0050983991026817;1.9324860189098327;1.24788043195756;1.5572055724625866;4.262297002370297;3.354688314792182;-0.9778729478943612;0.00027626076100388487;0.03874783318038111;0.0285510349750178;0.0017486463976527171;0.09483022330988061;0.0;53.70687582000001;86.83148894000001
-0.6506352580851834;1.892705190189713;2.4613009377983475;-0.0356887937187723;0.01955287570966497;-0.0356887937187723;0.9076086875781152;0.5919725981963408;0.35043155701532636;2.4915313548409888;1.5839226672628737;-0.9778729478943612;0.00028301911609054155;0.03874783318038111;0.0285510349750178;0.0011168961590905808;0.0723972672580809;0.0;53.706489080000004;86.83155787999999
2.4613009377983475;2.042479232730421;2.9304108238255067;-0.0836137452839808;0.046165715311811864;0.0244723156928724;2.4915313548409888;0.761787526600859;0.5803202356846545;2.9465168596199147;2.0389081720417996;-0.9870500662791885;0.0001483718878255638;0.029570714795553843;0.0285510349750178;0.0013077936966152848;0.0805547058223717;0.0;53.70609115999999;86.83156444
2.13984979161342;1.4705707971392896;2.9304108238255067;-0.0815743856429081;0.046675279922651476;0.0244723156928724;2.1505269212934275;0.956708849859636;0.9152918233997476;2.9465168596199147;2.130734313047152;-0.9870500662791885;0.00014109365927070163;0.029570714795553843;0.0112164780258998;0.0006756275592785879;0.0632201488732537;0.0;53.70568816;86.83151472
2.9304108238255067;1.4255798645076283;2.9304108238255067;0.0244723156928724;0.05596825524634056;0.0316100744366268;2.9465168596199147;1.0486759828901184;1.0997213170905558;2.9465168596199147;2.3772706844470797;-0.9962271846640156;6.810342433478451e-05;0.02039359641072669;0.0091771183848271;0.0006375728214060171;0.061180789232180996;0.0;53.70530042;86.83142394000001
0.6958370728192567;1.3315240047023966;2.9304108238255067;-0.0091771183848271;0.055426891244303084;0.0642398286937901;0.8157825465727626;0.9964622016948775;0.9929369194066028;2.9465168596199147;2.3772706844470797;-0.9737942286122158;0.00026024865818318615;0.041806872641990345;0.0091771183848271;0.0005552248640424196;0.061180789232180996;0.0;53.704945359999996;86.83134024
-0.5275210533950285;1.3580824795575825;2.9304108238255067;0.0316100744366268;0.031761021358011315;0.0683185479759355;0.5692461751728348;1.072030904211948;1.1492502595854868;2.9465168596199147;2.75666748736738;-0.9737942286122158;0.00025213863207919845;0.041806872641990345;0.0091771183848271;0.0005760198027705977;0.061180789232180996;0.0;53.704634920000004;86.83132676
1.1372943346590247;0.6722797662548545;1.1372943346590247;0.0642398286937901;0.031232844502846063;0.0683185479759355;1.1464484504267223;0.40092083439639786;0.16073751545310389;1.1464484504267223;0.9565990781741877;-0.9737942286122158;0.00014941163476199024;0.033649434077699936;0.0091771183848271;0.0001341273547967512;0.0285510349750177;0.0;53.70437442;86.83142978
-0.1760590997559442;1.2830832221138821;1.1372943346590247;0.0683185479759355;0.017895308223497663;0.0683185479759355;0.1898493722525346;0.921179558729365;0.8485717794208276;2.4120230098536726;2.222173637601138;-0.9737942286122158;0.0008736993506645165;0.07749566636076255;0.0438462322830631;0.0005344299253142307;0.0632201488732537;30.0;53.70416401999999;86.83166994
0.05903567691863;1.5731935132578652;1.1372943346590247;0.0326297542571632;0.034664615018891086;0.0683185479759355;0.24097785313636244;1.1080728425480943;1.227825424392614;2.4393785621599267;2.249529189907392;-0.9737942286122158;0.0010026279707792338;0.07749566636076255;0.0438462322830631;0.0007951984569656166;0.0632201488732537;30.0;53.70400066;86.83206978
-2.386720885823339;1.1847295672985112;0.05903567691863;0.037728153359845;0.038847660043442825;0.0683185479759355;2.4120230098536726;1.1160971673773612;1.2456728870277696;2.4393785621599267;2.249529189907392;-0.9890894259202612;0.0007384282742376914;0.062200469052717144;0.0438462322830631;0.00046580662751123094;0.0448659121035994;30.0;53.70388045999999;86.83256398
-2.3855641487688204;1.985322186920659;2.387657722104214;-0.0183542367696543;0.028763286274358035;0.037728153359845;2.4393785621599267;1.0324477887241459;1.0659484364413787;2.445318933691233;2.2043410805548707;-0.9890894259202612;0.000671988445001151;0.062200469052717144;0.0438462322830631;0.001257261995505798;0.0856531049250535;0.0;53.70379804;86.8331062
-0.7629308039328467;2.485990051123277;2.6640235669041625;-0.0219231161415315;0.031920213193743566;0.037728153359845;0.9747954755759657;0.6915860697511789;0.4782912918738825;2.6997666914143217;1.724971215838356;-0.9952075048434792;0.0005185217971871719;0.056082390129499116;0.0438462322830631;0.0019637700387957454;0.0907515040277352;0.0;53.7037379;86.83367582000001
2.387657722104214;2.194535959326618;2.6640235669041625;0.0244723156928724;0.022914454016767782;0.0244723156928724;2.445318933691233;0.922672327337595;0.8513242236345739;2.6997666914143217;1.9525256176673165;-0.9952075048434792;0.00014764406497007925;0.03262975425716319;0.0428265524625267;0.001506073437388485;0.0897318242071988;0.0;53.70369638;86.83425894000001
2.6640235669041625;1.632909958920509;2.6640235669041625;-0.0356887937187723;0.025592744725622448;0.0244723156928724;2.6997666914143217;0.9727171085075261;0.9461785731832423;2.6997666914143217;1.9811943646436179;-0.9850107066381156;8.86904136756978e-05;0.022432956051800068;0.0132558376669725;0.0008210881556822097;0.0601611094116446;0.0;53.703668979999996;86.83487666
-0.6960455460548669;1.3713108946407089;2.6640235669041625;-0.0224329560517997;0.031387262101807596;0.0244723156928724;0.7472410737470053;0.9692371637425765;0.9394206795797542;2.6997666914143217;1.9811943646436179;-0.9839910268175792;0.00013729858295282414;0.02345263587233648;0.0122361578464362;0.0005824662337763364;0.0591414295911083;0.0;53.70364356;86.8355322
0.7111329450942122;1.2346320921502325;2.6640235669041625;-0.0397675130009177;0.024698573391821334;0.0224329560517997;0.7185723267707039;0.8726916439025509;0.7615907053373369;2.6997666914143217;2.0733646429143366;-0.9839910268175792;0.0003207099425353722;0.04282655246252676;0.0122361578464362;0.00047183715974241197;0.0591414295911083;0.0;53.703615639999995;86.83626204
0.8309599106683749;0.6181105812333898;0.8309599106683749;0.0224329560517997;0.02278476783618902;0.0224329560517997;1.0001922730848416;0.16874624088868323;0.02847529381406151;1.0001922730848416;0.37379022458485633;-0.9837361068624452;0.0003690581750783978;0.043081472417660804;0.0122361578464362;0.00011509998586046723;0.0265116753339451;0.0;53.703588079999996;86.83700759999999
0.1706676681885902;0.31235702589282116;0.9916439093293304;-0.0173345569491179;0.022370297282192537;0.0224329560517997;0.6264020484999853;0.26120492262611983;0.06822801160411723;1.287541934026109;0.6611398855261237;-0.9837361068624452;0.0005993491246562896;0.04716019169980623;-0.003059039461609;3.0750515644285316e-05;0.014785357397777098;0.0;53.703556219999996;86.83779494000001
0.5641360101094474;0.31499657713141777;0.9916439093293304;-0.0122361578464362;0.01603525545084809;0.0224329560517997;0.9886478496098997;0.2352368422766296;0.055336371964279915;1.287541934026109;0.6611398855261237;-0.9837361068624452;0.0005089691222089283;0.04716019169980623;-0.003059039461609;3.1374363806130595e-05;0.014785357397777098;0.0;53.70352408;86.83853592
0.9916439093293304;0.9853804864404627;0.9916439093293304;-0.0071377587437544;0.003922786593590291;-0.0071377587437544;1.287541934026109;0.4054427286253426;0.16438380619516318;1.6989308767560445;1.0725288282560592;-0.9837361068624452;0.0005034194729358453;0.04716019169980623;0.0265116753339451;0.00029339059178120676;0.044356072193331195;0.0;53.70349668;86.8392714
0.5234545839044038;1.4726942877994706;0.9916439093293304;-0.0132558376669725;0.003922786593590291;-0.0071377587437544;0.935021726518678;0.5916817769797685;0.3500873252099366;2.3632640580593054;1.4282423315406274;-0.9837361068624452;0.0003836666195349396;0.04716019169980623;0.040787192821454;0.0006689471852121506;0.058631589680840104;0.0;53.70347566;86.83996718
-1.542481262614686;1.548385420158556;0.9916439093293304;-0.0091771183848271;0.006545041923475397;-0.0071377587437544;1.6989308767560445;0.6019970278836028;0.3624004215806912;2.3632640580593054;1.4282423315406274;-0.9845008667278474;0.00027740448263392857;0.04639543183440398;0.040787192821454;0.0007438869456538303;0.058631589680840104;30.0;53.7034608;86.84065888
-2.3133818225941094;1.132372091135085;0.5234545839044038;-0.0173345569491179;0.014874748672426063;0.0152951973080452;2.3632640580593054;0.56477453412952;0.3189702744012163;2.3632640580593054;1.4282423315406274;-0.9845008667278474;0.00010158327568717492;0.024982155603140654;0.040787192821454;0.0003947919117544919;0.0499643112062811;0.0;53.703465060000006;86.84130314000001
-2.1549993007836425;1.0076395427623284;-1.471643716939257;-0.023452635872336;0.01481872305462203;0.0152951973080452;2.2043724263253823;0.9573020156371271;0.9164271491429063;3.9742750791654524;2.3880503117968273;-0.9845008667278474;0.0001203507078893651;0.024982155603140654;0.0683185479759355;0.0002999669911539848;0.042826552462526805;0.0;53.703485580000006;86.84195342000001
-1.471643716939257;1.0083634554370238;-1.471643716939257;0.0152951973080452;0.019698567376026408;0.0152951973080452;1.586224767368625;0.9701156673116081;0.9411244079634468;3.9742750791654524;2.3880503117968273;-0.9850107066381156;0.00010865355485475678;0.02447231569287245;0.0683185479759355;0.0003033981560441331;0.042826552462526805;0.0;53.703526260000004;86.84259826
-3.9675239567736953;1.048099498859438;-1.471643716939257;-0.0050983991026817;0.02077746202010802;0.0152951973080452;3.9742750791654524;0.9869010287318689;0.9739736405120211;3.9742750791654524;2.3880503117968273;-0.9850107066381156;8.785861612657754e-05;0.022432956051800068;0.0683185479759355;0.00032835208251795055;0.042826552462526805;30.0;53.703585499999996;86.84323606000001
-3.4151896585440857;1.0659802325066203;-1.471643716939257;-0.0367084735393086;0.01955287570966486;0.0152951973080452;3.436217275399339;0.9603578483101811;0.9222871968109609;3.9742750791654524;2.3880503117968273;-0.9850107066381156;0.00018330738488892166;0.034669113898235904;0.0683185479759355;0.0003368780073965048;0.042826552462526805;30.0;53.703668040000004;86.84385619999999
-1.976928267971928;0.9703732538272188;-1.8914081461125545;0.003059039461609;0.017415343273978697;0.0050983991026817;2.204266982422294;0.7254856490789173;0.526329427019458;3.9742750791654524;1.7700080967431586;-0.9850107066381156;0.00020618181748992146;0.034669113898235904;0.0683185479759355;0.0002779243561021111;0.03568879371877231;30.0;53.70377152;86.84446144
-2.004530026320448;0.8414004551896394;-1.0813064412667783;0.0020393596410727;0.021995323355457286;0.0050983991026817;2.489387330875385;0.4715156869591606;0.2223270430485691;3.436217275399339;1.2319502929770452;-0.9880697460997246;0.00021449979298118223;0.03772815335984514;0.0601611094116447;0.00021803493256495308;0.0407871928214541;0.0;53.703892259999996;86.84503786
-1.8914081461125545;0.38335804059518075;-1.0813064412667783;0.0050983991026817;0.019647036675841334;0.0050983991026817;2.720636180286913;0.2955348727960069;0.08734086103855196;2.9832118455274617;0.7789448631051679;-0.9880697460997246;0.00021496767910256535;0.03772815335984514;0.0356887937187723;4.361738398233696e-05;0.016314877128581703;0.0;53.704033179999996;86.84561398
-1.0813064412667783;0.6554597406042804;-0.4776351969416647;-0.0367084735393086;0.026377995561545783;0.0050983991026817;2.444776048019514;0.23014824650747262;0.05296821537046439;2.9832118455274617;0.5384357975079475;-0.9768532680738248;0.00044376399245938346;0.04894463138574501;0.0356887937187723;0.00013417934214356592;0.027531355154481504;0.0;53.70420412;86.84620988
-1.817198067435589;0.582226308492968;-0.4776351969416647;-0.0270215152442133;0.02279047130015382;0.0050983991026817;2.9832118455274617;0.22933191007244144;0.05259312497747437;2.9832118455274617;0.5384357975079475;-0.9768532680738248;0.0003862139995291505;0.04894463138574501;0.0326297542571632;0.00010376674425360184;0.0244723156928724;0.0;53.704396280000005;86.846827
-0.4776351969416647;0.4756182314586475;-0.4776351969416647;-0.0571020699500356;0.013899099999093422;-0.020393596410727;2.471416520305814;0.23396652160283873;0.05474033323093161;2.9832118455274617;0.5384357975079475;-0.9768532680738248;0.0004554611454939829;0.04894463138574501;0.032119914346895;7.231439942722879e-05;0.0239624757826042;0.0;53.70459902;86.84745469999999
-1.1766978180026693;0.6225964121267661;-0.4776351969416647;-0.037728153359845;0.03361388099871403;-0.020393596410727;2.8148709184709433;0.31693971689149014;0.10045078414325793;3.3403690284646896;0.8689525081588756;-0.9768532680738248;0.0003533060089917979;0.047924951565208596;0.0367084735393086;0.0001244577082881415;0.028551034975017806;0.0;53.704808420000006;86.84808905999999
-1.19681414925565;1.0552724793952912;0.7634344727125334;-0.020393596410727;0.032505243219807946;-0.020393596410727;2.790397733496858;0.31707933708073865;0.10053930600356067;3.3403690284646896;0.8689525081588756;-0.9768532680738248;0.0003387495518820761;0.047924951565208596;0.0367084735393086;0.0003465476539051147;0.0499643112062811;0.0;53.70501326;86.8487547
-2.06954192288809;1.662869901470156;1.9875483210345597;-0.1040073416947078;0.03264886765580932;-0.020393596410727;3.3403690284646896;0.3039685250466062;0.09239686421900926;3.3403690284646896;0.6167587299554893;-0.99214846538187;0.00018590675222994013;0.03262975425716341;0.0367084735393086;0.0008531123613236026;0.07137758743754449;0.0;53.70518757999999;86.84941541999999
0.7634344727125334;1.6931659607169225;1.9875483210345597;-0.0346691138982359;0.0918006365390927;-0.020393596410727;2.7236102985092003;0.32024858456251387;0.1025591559142936;3.3403690284646896;0.6182718824309075;-0.9941878250229428;0.00016095282575612088;0.030590394616090588;0.0367084735393086;0.0008947022387799665;0.07137758743754449;0.0;53.7053094;86.85007995999999
1.9875483210345597;1.8438726471808853;2.7774591533802555;-0.0387478331803813;0.08508982190417602;-0.0346691138982359;3.3149431871663624;0.38942819826199115;0.1516543216015807;3.5735556757218743;0.8514585296880921;-0.9941878250229428;4.678861213841339e-05;0.016314877128581706;0.0367084735393086;0.0010597100775880863;0.0856531049250534;0.0;53.705344100000005;86.8506881
1.1385841364707934;1.1033008688271684;3.4123104162905054;-0.2416641174671153;0.10049667589930159;0.023452635872336;2.722097146033782;0.5680426675937605;0.32267247220703554;4.04326296914047;1.3211658231066874;-0.9941878250229428;0.00016376014248442727;0.031610074436627;-0.0132558376669725;0.0003909448480897955;0.047924951565208505;30.0;53.70524408;86.85122808
2.7774591533802555;1.09647692141605;3.870358940469492;-0.0703579076170082;0.10955509463479009;0.0265116753339451;3.5735556757218743;0.6227369057618695;0.3878012537978675;4.308754119315185;1.5866569732814026;-0.9972468644845518;0.00013256773439215082;0.028551034975017986;-0.020393596410727;0.0003797155811765808;0.047924951565208505;0.0;53.70506848;86.85161056
3.4123104162905054;1.1288542215772497;3.870358940469492;0.023452635872336;0.11517733821182917;0.0265116753339451;4.04326296914047;0.6373748997849698;0.4062467628759002;4.308754119315185;1.5866569732814026;-0.9952075048434792;0.00014847586251921088;0.030590394616090588;-0.020393596410727;0.0003893852276851868;0.047924951565208505;0.0;53.70483296;86.85186144000001
3.870358940469492;0.56615525552726;4.276460427067585;0.0265116753339451;0.04290780698543666;0.0316100744366268;4.308754119315185;0.33021973327233095;0.1090450722424494;4.434316624158935;0.8607609484370609;-0.9952075048434792;0.0001535706225076058;0.030590394616090588;-0.0489446313857448;0.00010345482017270279;0.027531355154481504;0.0;53.704559659999994;86.85198749999999
3.809532581802698;0.4833983081433714;4.678413493617507;0.0183542367696543;0.013857895192082493;0.0316100744366268;4.12302343455117;0.2917814207771895;0.0851363975107553;4.782217324241737;0.7389543551012672;-0.9952075048434792;0.00015902929392374693;0.030590394616090588;-0.061180789232181;7.870884308616957e-05;0.022432956051799798;0.0;53.70424505999999;86.85206714
4.276460427067585;0.35005533832875874;4.678413493617507;0.0316100744366268;0.024931119481188944;0.0316100744366268;4.434316624158935;0.26479885793648134;0.07011843516446484;4.782217324241737;0.6591938896905667;-0.9952075048434792;0.00013391940540947726;0.0270215152442137;-0.0662791883348628;4.782835907482132e-05;0.017334556949117993;0.0;53.70398466;86.8521037
4.678413493617507;0.3656546102422479;4.678413493617507;-0.0040787192821454;0.02314471044618904;0.0316100744366268;4.782217324241737;0.3636091241236389;0.13221159514595981;4.782217324241737;0.9672821788243207;-0.9952075048434792;0.0001653717502358551;0.0270215152442137;-0.0662791883348628;5.385889130599363e-05;0.017334556949117993;0.0;53.703728680000005;86.85213956
4.1211601454745015;0.734682525901491;5.70099822018561;-0.0285510349750178;0.028276587384239764;0.0316100744366268;4.165228481257638;0.7204850569914969;0.5190987173480406;5.701124739338897;1.8861895939214808;-0.9982665443050882;0.00013703864621870777;0.023962475782604686;-0.0662791883348628;0.00016708733268094075;0.03364943407769959;0.0;53.70347458;86.85215682
3.7982525098511872;0.7276989171135692;5.70099822018561;0.0122361578464362;0.02516358250077085;0.0214132762312633;3.814935145417416;0.7224911527997637;0.5219934658739316;5.701124739338897;1.8861895939214808;-0.9982665443050882;9.118580632307004e-05;0.023452635872336147;-0.0662791883348628;0.0001656316869699681;0.03364943407769959;0.0;53.703227160000004;86.85216027999999
5.70099822018561;0.7243934526889568;5.70099822018561;-0.0367084735393086;0.02519867960955487;0.0214132762312633;5.701124739338897;0.7137168294651594;0.5093917126617994;5.701124739338897;1.8861895939214808;-0.9982665443050882;6.498418352556313e-05;0.01937391659019072;-0.0662791883348628;0.00016147269922433153;0.03364943407769959;0.0;53.70302918;86.8521415
4.380060318283274;0.7434675731769445;5.70099822018561;0.0214132762312633;0.023666678572278464;0.0214132762312633;4.398074441337133;0.7249912610745719;0.525612328634498;5.701124739338897;1.8861895939214808;-0.9982665443050882;6.498418352556175e-05;0.01937391659019072;-0.0662791883348628;0.00016895887716647653;0.03364943407769959;0.0;53.702824199999995;86.85210036
4.411855934840518;0.7043980005133602;5.70099822018561;-0.003059039461609;0.023045666297977416;0.0214132762312633;4.443468416789783;0.6578858439547224;0.4328137836760173;5.701124739338897;1.6226302474566818;-0.9931681452024064;9.35772242768122e-05;0.02447231569287256;-0.0693382277964719;0.00015211497679664998;0.03059039461609049;0.0;53.702620079999996;86.85204983999999
3.9863091009159737;0.3636722217694848;4.411855934840518;0.0173345569491179;0.012270100097066139;0.0214132762312633;4.078494491882215;0.3312548540247155;0.10972977831493556;4.443468416789783;0.8287357141953127;-0.9931681452024064;8.442745123640943e-05;0.02447231569287256;-0.0622004690527174;4.439719418467059e-05;0.016314877128581602;0.0;53.702417219999994;86.85200058000001
3.993617011440558;0.6974467825976429;5.367889184420379;0.003059039461609;0.010606630875044707;0.0173345569491179;4.163147824813956;0.676835570642412;0.45810638968683937;5.433741725803733;1.8190090232092624;-0.9931681452024064;0.00010064750344439383;0.02447231569287256;-0.0622004690527174;0.00014587649517819456;0.031610074436626896;0.0;53.702211739999996;86.85194870000001
3.518733479247461;0.6946242609889409;5.367889184420379;-0.0061180789232181;0.00952186603848542;0.0173345569491179;3.6147327025944707;0.6769977873946066;0.458326004137193;5.433741725803733;1.8190090232092624;-0.9931681452024064;0.00010366276955997981;0.024982155603140654;-0.0622004690527174;0.00014421290007994009;0.031610074436626896;0.0;53.70200588;86.85189643999999
5.367889184420379;0.686466510250309;5.367889184420379;0.0152951973080452;0.008579864981324226;0.0152951973080452;5.433741725803733;0.667214088584482;0.44517464000562096;5.433741725803733;1.8190090232092624;-0.9931681452024064;0.0001306961899066133;0.024982155603140654;-0.0622004690527174;0.00014317315314353162;0.031610074436626896;0.0;53.70180928;86.85185344
4.352521717650693;0.6793875632055407;5.367889184420379;0.0071377587437544;0.008396120669007;0.0152951973080452;4.447926035235663;0.6738509933840278;0.454075161284641;5.433741725803733;1.8190090232092624;-0.9982665443050882;8.453142593004916e-05;0.019883756500458816;-0.0622004690527174;0.00013381543071585135;0.031610074436626896;0.0;53.70161602;86.85181889999998
4.525617499324516;0.40714573821358285;5.367889184420379;0.0132558376669725;0.02212493746118557;0.0601611094116447;4.632609710750576;0.40875066818361516;0.16707710874055184;5.433741725803733;0.98581569056807;-0.9982665443050882;8.453142593004916e-05;0.019883756500458816;-0.0774956663607627;4.398129541011173e-05;0.016314877128581595;0.0;53.70142327999999;86.85180023999999
4.831033974231822;1.114660593306099;7.108982975471961;0.0091771183848271;0.021936154680574717;0.0601611094116447;4.957388874462286;1.1409239355091494;1.3017074266176858;7.278499421985481;2.830573386749818;-0.9809319873559702;0.00024096135251279336;0.03721831344957682;-0.0774956663607627;0.0003292878547607553;0.0448659121035994;0.0;53.701235780000005;86.85179194
5.060524113662262;1.128864595223601;7.108982975471961;0.0601611094116447;0.020951877160576633;0.0601611094116447;5.235992100986618;1.1520604397960978;1.3272432569431782;7.278499421985481;2.645889711234905;-0.9809319873559702;0.00025078696106186374;0.03670847353930873;-0.0805547058223717;0.0003363581339283394;0.0418068726419904;0.0;53.701054580000005;86.8518053
7.108982975471961;1.0400189281639554;7.108982975471961;0.0193739165901906;0.019341689370889193;0.0601611094116447;7.278499421985481;1.0558245927072738;1.1147655705654806;7.278499421985481;2.3211105475231957;-0.9809319873559702;0.00014889176129377998;0.0305903946160907;-0.0846334251045171;0.0002940404336164935;0.037728153359845;0.0;53.70088658000001;86.85183185999999
6.485266539094359;0.9392775160155566;7.108982975471961;0.0367084735393086;0.015010435074301921;0.0601611094116447;6.661986439044548;0.9326854422715236;0.8699021342252276;7.278499421985481;2.0425073209988636;-0.9809319873559702;0.00014639636864640043;0.0305903946160907;-0.0897318242071989;0.0002462120745416774;0.032629754257163204;0.0;53.700716420000006;86.8518665
6.792207415747648;0.7804404035889726;7.108982975471961;0.0295707147955541;0.0073317744518186425;0.0367084735393086;6.982156277941569;0.781327303582306;0.6104723553231969;7.278499421985481;1.8698847055481114;-0.971754868971143;5.921358802850503e-05;0.02090343632099534;-0.0897318242071989;0.00019131343629928043;0.032629754257163204;0.0;53.70054444;86.8518942
5.201533448786234;0.7714050664218236;6.792207415747648;0.0367084735393086;0.003774193030145222;0.0367084735393086;5.40861471643737;0.8004206699909341;0.6406732489487359;6.982156277941569;1.8719493636243234;-0.971754868971143;0.0002104967672760191;0.03976751300091785;-0.0892219842969307;0.0001744175485826314;0.029060874885285998;0.0;53.70037582;86.85191502
5.748625615872073;0.7851425751516972;6.792207415747648;0.0346691138982359;0.004228906159543901;0.0367084735393086;5.863939461761398;0.8296359881480494;0.6882958728303904;6.982156277941569;2.0957857367992654;-0.971754868971143;0.0002089891342182258;0.03976751300091785;-0.0836137452839808;0.00018460706855943806;0.034669113898235904;0.0;53.700191600000004;86.85192536
5.038697086966043;0.3772689251302014;5.748625615872073;0.0290608748852859;0.022776780587284162;0.0367084735393086;5.110206914317246;0.421685841301406;0.17781894875407456;5.863939461761398;1.0150780688417473;-0.971754868971143;0.00020607784279628075;0.03976751300091785;-0.0836137452839808;3.4363636248328934e-05;0.014275517487508896;30.0;53.699984979999996;86.8519133
4.840270887921662;0.6022878781079153;5.748625615872073;0.0265116753339451;0.032696602270201894;0.0346691138982359;4.886370541142304;0.6436017535783843;0.4142232172091714;5.863939461761398;1.798128608151588;-0.971754868971143;0.0002407014157787032;0.03976751300091785;-0.0693382277964719;0.00010818566873336955;0.02855103497501779;0.0;53.699760479999995;86.85190384
4.831244225360822;0.5571045834507978;5.038697086966043;-0.0183542367696543;0.029519246496667248;0.0290608748852859;4.848861392919651;0.5824382404181099;0.33923430390134396;5.110206914317246;1.339389826317103;-0.9758335882532884;0.000922463481982113;0.07647598654022658;-0.0693382277964719;8.343969164683235e-05;0.019883756500458802;0.0;53.69952516000001;86.85188868
4.061318435794482;1.0842132207565631;4.840270887921662;-0.037728153359845;0.028358283939010968;0.0265116753339451;4.06581085360981;1.0871770624554769;1.18195396512932;4.886370541142304;2.667809930751048;-0.9584990313041704;0.0012630845783497186;0.09381054348934459;-0.0367084735393086;0.0003672386179396787;0.0469052717446722;0.0;53.69926624;86.85186528
3.7694827809010474;1.726361274107137;4.831244225360822;0.014785357397777;0.025193521336464523;0.023452635872336;3.770817088000143;1.637874550210074;2.682633042225852;4.848861392919651;4.097714651741137;-0.9248495972264708;0.0022081105688519062;0.1274599775670442;-0.0081574385642908;0.0009366040403172671;0.07545630671969;30.0;53.69899918;86.85184398
2.192578980877134;1.577120125844686;4.171922274805628;0.023452635872336;0.024604728279827806;0.023452635872336;2.218560610391256;1.5093802962935925;2.278228878839333;4.310552481809088;3.559405740630575;-0.9085347200978892;0.003144506659781896;0.1437748546956258;-0.0081574385642908;0.0007351010840411927;0.06118078923218111;30.0;53.69872994;86.8518461
0.5053410384725829;1.4481662092673167;4.171922274805628;0.0061180789232181;0.03563959667547726;0.023452635872336;0.7511467411785132;1.3931417555500614;1.940843951057107;4.310552481809088;3.559405740630575;-0.9085347200978892;0.004076535813578964;0.1437748546956258;-0.0081574385642908;0.0006179216043078913;0.06118078923218111;30.0;53.698460239999996;86.85183751999999
4.171922274805628;1.7223685326871252;4.171922274805628;-0.0142755174875089;0.035758646260671476;0.023452635872336;4.310552481809088;1.3611771696379114;1.8528032871434752;4.310552481809088;3.559405740630575;-0.9085347200978892;0.003922237368215861;0.13969613541348036;0.003059039461609;0.0007950944822719861;0.06933822779647181;0.0;53.6981799;86.85184902
2.543411034494519;1.8437002926033192;4.171922274805628;-0.0657693484245946;0.03214741774145731;0.0061180789232181;2.8676159425016534;1.3838611963892775;1.9150718108719624;4.310552481809088;3.559405740630575;-0.9085347200978892;0.004029227327972353;0.13969613541348036;0.003059039461609;0.0009115461391497973;0.06933822779647181;0.0;53.697825779999995;86.85186354
-0.1670786752792616;1.8036829890284691;4.171922274805628;-0.040787192821454;0.026071719538177923;-0.0142755174875089;1.4966911334992181;1.1269042268427234;1.2699131364759961;4.310552481809088;2.81386134830987;-0.9085347200978892;0.0029427957541185426;0.13969613541348036;0.003059039461609;0.0008642376535431865;0.06933822779647181;0.0;53.6974649;86.85187642000001
0.2312166316316062;1.0363588862194455;2.543411034494519;-0.0672988681553992;0.04086296113262107;0.0224329560517997;1.7817230710695182;0.5145001639104461;0.26471041866387585;2.8676159425016534;1.3709248090024353;-1.0003059039461608;0.00039749525378919527;0.04792495156520871;0.003059039461609;0.0003501867681825514;0.0489446313857448;0.0;53.69709712;86.85188751999999
0.8671107655442417;1.1733772578889368;2.882536264162068;-0.0795350260018354;0.04292355497063149;0.0224329560517997;2.1191996104719037;0.7238111717453027;0.5239026123433081;3.373679355462248;1.87698822196303;-1.0003059039461608;0.0003563212751073965;0.04792495156520871;0.003059039461609;0.00043180690269066085;0.0540430304884265;30.0;53.69672832;86.85191296
0.9925443424882516;1.2495379486170575;2.949801288507404;0.0224329560517997;0.042832621555232354;0.0224329560517997;1.9632432779039148;0.8068564429471199;0.651017319525279;3.4479554772231884;1.6662324061536702;-0.9890894259202612;8.494732470463049e-05;0.023452635872335925;-0.0040787192821454;0.0004758921727944089;0.0469052717446721;0.0;53.69636849999999;86.8519269
2.882536264162068;0.9946505389227716;2.949801288507404;-0.003059039461609;0.03759978602911688;0.0224329560517997;3.373679355462248;0.6875991015717676;0.472792524482302;3.4479554772231884;1.4847121993192736;-0.9788926277148976;0.0001874663726345596;0.03364943407769949;-0.0152951973080452;0.0003010067380904101;0.0356887937187723;0.0;53.69600888;86.85197176
2.949801288507404;0.8393329709501203;2.949801288507404;-0.0254919955134087;0.030459254609359436;0.0224329560517997;3.4479554772231884;0.6061562027071772;0.36742534208038446;3.4479554772231884;1.4847121993192736;-0.9788926277148976;0.0007865685573934503;0.07239726725808071;-0.0173345569491179;0.00021075670401010587;0.0336494340776996;0.0;53.69564008;86.85201256
1.968250844281808;0.7073851449365293;3.2624917547645698;-0.0224329560517997;0.020614183779872813;-0.003059039461609;2.7021104617481884;0.6239955902470211;0.3893704966477283;4.184537354137396;1.5115158430976638;-0.9788926277148976;0.0008000332802199485;0.07239726725808071;-0.0295707147955541;0.00015253087557120197;0.028551034975017903;0.0;53.69525408;86.85203615999998
1.6085623037053784;0.712638606004735;3.2624917547645698;-0.0601611094116447;0.019122735095562445;-0.0224329560517997;2.6730215110397317;0.7337929441930247;0.5384520849474673;4.184537354137396;1.5115158430976638;-0.9564596716630978;0.001363316183019548;0.09483022330988056;-0.0295707147955541;0.00014691624211459302;0.028551034975017903;0.0;53.69484754;86.85202898
3.2624917547645698;0.8161394409595073;3.2624917547645698;-0.0305903946160905;0.025573439796032226;-0.0224329560517997;4.184537354137396;0.7357484172350256;0.5413257334638454;4.184537354137396;1.5115158430976638;-0.9564596716630978;0.0014719697378742956;0.09483022330988056;-0.0254919955134087;0.0001911054869119763;0.0326297542571633;30.0;53.69442127999999;86.85200207999999
2.923460564905033;1.0217995291807271;3.2624917547645698;-0.061180789232181;0.03520185220712533;0.0061180789232181;4.123821703042534;0.6485068293787455;0.42056110775087335;4.184537354137396;1.5115158430976638;-0.9564596716630978;0.0013717381332044628;0.09483022330988056;-0.0152951973080452;0.0003090127895007612;0.0428265524625268;0.0;53.694057220000005;86.85191962
1.4158294572545354;1.0484818592129026;3.2624917547645698;-0.0856531049250535;0.036401998339466224;0.0061180789232181;3.2979837169312596;0.4707128614400567;0.22157059792508602;4.184537354137396;1.0008740685481783;-0.9564596716630978;0.0007967840710436702;0.07137758743754463;-0.0152951973080452;0.00033057454159454334;0.0428265524625268;0.0;53.69369820000001;86.85182172
0.8877597186104267;0.7633906105461902;2.923460564905033;0.0061180789232181;0.039314575011296524;0.0061180789232181;3.1836632855892173;0.3723337382506644;0.13863241263971426;4.123821703042534;0.9401584174533166;-0.9564596716630978;0.0009965454512012575;0.07749566636076266;-0.0152951973080452;0.00015493529036164307;0.0336494340776996;30.0;53.693335000000005;86.85171452
1.3873929904058522;1.3596407511145776;1.5777596471848565;-0.0158050372183134;0.04080885526508142;0.0061180789232181;3.4638206872305006;0.25681112991594907;0.06595195644870647;3.7928461374374494;0.6091828518482321;-0.9870500662791885;0.0003784158975060848;0.04690527174467196;0.0295707147955541;0.0005852605536679291;0.0581217497705719;0.0;53.692967640000006;86.8515878
1.5777596471848565;1.302874120956572;1.5777596471848565;-0.0734169470786173;0.030483140210102344;0.0061180789232181;3.6919217116661263;0.23517502025306988;0.05530729015103183;3.7928461374374494;0.6091828518482321;-0.9870500662791885;0.0003413489192230962;0.04690527174467196;0.0295707147955541;0.0005349368019457308;0.0581217497705719;0.0;53.69262014000001;86.85142974
-1.667677771821285;2.510353437424666;5.27371364636308;-0.0112164780258998;0.06222094285987847;-0.0112164780258998;3.7928461374374494;1.2256506936756382;1.5022196229075733;6.3322803034890995;2.868459616258599;-0.9697155093300704;0.0005702492072735449;0.06423982869378997;0.0295707147955541;0.0018910267437572347;0.12032221882328939;0.0;53.692292699999996;86.85124565999999
0.527428607050263;2.510316067959108;5.27371364636308;-0.0367084735393086;0.05782852299317712;-0.0112164780258998;3.48790858793271;1.226383214045735;1.504015787693147;6.3322803034890995;2.8736507595267633;-0.9697155093300704;0.000800293216954052;0.0683185479759354;0.0295707147955541;0.0018910917279407603;0.12032221882328939;0.0;53.69197922000001;86.8509885
5.27371364636308;2.5371015687810403;5.27371364636308;-0.1621290914652799;0.05924067719448734;-0.0112164780258998;6.3322803034890995;1.2258904893889082;1.502807491974177;6.3322803034890995;2.8736507595267633;-0.9697155093300704;0.0006588876336024187;0.0683185479759354;0.0295707147955541;0.001936840593142759;0.12032221882328939;30.0;53.69170906000001;86.85066202
1.4014409934914978;2.1885977818840625;5.27371364636308;-0.0907515040277353;0.044699907021125466;-0.0367084735393086;3.4586295439623362;1.3668866146478598;1.8683790173034867;6.3322803034890995;3.5135498324779975;-0.9697155093300704;0.0006417318091516674;0.0683185479759354;0.0081574385642908;0.0014215420114584397;0.0989089425920261;30.0;53.6914947;86.85028382
2.228496727755962;2.2637479649962335;5.27371364636308;-0.1040073416947078;0.03770472100615634;-0.0591414295911083;3.6971901962138505;1.4547595793952446;2.116325433842229;6.3322803034890995;3.5151029019546267;-0.8830427245844805;0.003653982658622296;0.15499133272152532;0.0081574385642908;0.0015255167050993437;0.0989089425920261;30.0;53.691330900000004;86.84984354
-0.4652796189777056;1.0873972172058155;2.228496727755962;-0.0917711838482716;0.03466611471021193;-0.0183542367696543;2.818730471011102;0.3932367930916272;0.1546351754409872;3.6971901962138505;0.8800127946793777;-0.8830427245844805;0.0036290287321484836;0.15499133272152532;0.0081574385642908;0.0003760764668991377;0.0479249515652085;30.0;53.69121536;86.84935424
0.0660134896569198;1.3422136019444422;2.64620463558114;-0.0591414295911083;0.04359414467985867;-0.0050983991026817;2.817177401534473;0.4688383154351056;0.2198093660200276;3.7748327712865706;0.9576553697520978;-0.8830427245844805;0.00279868682873221;0.13357805649026178;0.0081574385642908;0.0005420200779500224;0.0530233506678902;30.0;53.691151119999994;86.84884967999999
1.2923883549952464;1.3315955797892174;2.64620463558114;-0.0183542367696543;0.034702087858642636;-0.0050983991026817;3.0726777515078343;0.43474035784647025;0.188999178740477;3.7748327712865706;1.076011091082676;-0.8830427245844805;0.0026531222576349485;0.12644029774650756;0.0081574385642908;0.0005181058984126104;0.0530233506678902;0.0;53.6911249;86.8483217
2.64620463558114;1.4526324072973869;2.64620463558114;-0.0050983991026817;0.020789968770184228;-0.0050983991026817;3.7748327712865706;0.42560986522809163;0.1811437573794743;3.7748327712865706;1.076011091082676;-0.8830427245844805;0.004568855987968624;0.1855817273376159;0.0183542367696543;0.0006345575552904226;0.0632201488732537;0.0;53.69113599999999;86.8477696
-0.4049290532042154;1.4428752737968662;2.64620463558114;-0.0305903946160905;0.0133710315875601;0.0045885591924135;2.6988216802038947;0.439457792814353;0.1931231516652628;3.7748327712865706;1.076011091082676;-0.9299479963291526;0.002612676101808653;0.13867645559294384;0.0183542367696543;0.0006262395797991508;0.0632201488732537;0.0;53.69115672;86.84722712
-0.9838903089016352;1.57211269600426;2.64620463558114;-0.0152951973080452;0.013025386994194858;0.0045885591924135;2.904365083122116;0.4459449102185562;0.19886686294983616;3.7748327712865706;1.076011091082676;-0.9299479963291526;0.003153500470781824;0.13867645559294384;0.0183542367696543;0.0007720640876305191;0.0632201488732537;30.0;53.691170119999995;86.84668755999999
1.067876765011828;1.2825107216077152;2.1477991378300456;0.0045885591924135;0.012905094557550258;0.0045885591924135;2.7289877291713838;0.21189317789130463;0.04489871883687607;3.2023301402918447;0.50350846008795;-0.9299479963291526;0.003184796853567756;0.13867645559294384;0.0183542367696543;0.0005460750910020117;0.0576119098603037;30.0;53.691160419999996;86.8461249
2.1477991378300456;1.1544051625885097;2.1477991378300456;-0.0117263179361679;0.01561059538329224;0.0045885591924135;3.2023301402918447;0.297646381182226;0.08859336823087499;3.2023301402918447;0.8168500487679187;-0.9299479963291526;0.003985817893377277;0.13867645559294384;0.0183542367696543;0.00044740310673679597;0.0576119098603037;30.0;53.69112748;86.84555947999999
1.2693307494825783;1.7437819292547945;2.1477991378300456;-0.0061180789232181;0.02932665463574301;0.0045885591924135;2.727393937931361;0.32854287331645166;0.10794041960702999;3.2023301402918447;0.8168500487679187;-0.9299479963291526;0.004424695075235529;0.1529519730804525;0.0448659121035994;0.0010461933674147618;0.0841235851942488;0.0;53.69106006;86.84502102
1.1546006231144434;1.7311491404431085;2.1477991378300456;-0.037728153359845;0.03894089015074463;-0.0061180789232181;2.385480091523926;0.4566076079909471;0.2084905076752144;3.2023301402918447;1.0677563626316773;-0.9605383909452432;0.00215591527264419;0.12236157846436191;0.0448659121035994;0.0010353280119292866;0.0841235851942488;0.0;53.690972220000006;86.8445031
-2.3677775531694967;1.4866513723461865;1.2693307494825783;-0.0683185479759355;0.03598906443191798;-0.0061180789232181;3.103502424896012;0.426151523286833;0.18160512079968816;3.103502424896012;1.009016433365061;-0.9605383909452432;0.002140111119210772;0.12236157846436191;0.0448659121035994;0.0007636941247924229;0.0683185479759354;60.0;53.6908951;86.84400102
0.3326229574943191;1.8070250299991955;2.5910867982376966;-0.0983991026817579;0.022443382172554965;-0.037728153359845;2.1345737776601674;0.5730584591666709;0.32839599762247895;3.3365325579986607;1.2420465664677098;-0.9605383909452432;0.0022245385704471824;0.12236157846436191;0.0448659121035994;0.0010833643203913858;0.09024166411746701;60.0;53.69086172;86.84355803999999
0.6180160610183982;1.885742671508692;2.5910867982376966;-0.0764759865402263;0.03631262954887662;-0.0040787192821454;2.094485991530951;0.5629420820372802;0.316903787728468;3.3365325579986607;1.2420465664677098;-0.9992862241256246;0.0011270336917206171;0.08361374528398047;0.0448659121035994;0.0011675578285671056;0.09024166411746701;60.0;53.69087090000001;86.84316786000001
2.5910867982376966;1.4223838929758363;2.5910867982376966;-0.0825940654634444;0.03702645436714327;-0.0040787192821454;3.3365325579986607;0.5044459604759751;0.25446572704052906;3.3365325579986607;1.2420465664677098;-0.9992862241256246;0.00048119488217014406;0.04996431120628109;0.0209034363209952;0.0006286569914263039;0.06627918833486279;60.0;53.69091794;86.84279506
-1.188048076770117;1.5657909247975343;2.5910867982376966;-0.0040787192821454;0.03162158485504125;-0.0040787192821454;2.5191299012568527;0.5073662034804016;0.25742046443411626;3.3365325579986607;1.2420465664677098;-0.9992862241256246;0.0005855854745856137;0.05812174977057194;0.0209034363209952;0.0007708943723270592;0.06627918833486279;60.0;53.69099395999999;86.84244612
1.625170712821684;2.1975941163536743;2.5910867982376966;-0.0489446313857448;0.028012443893882258;-0.0040787192821454;2.685218523022486;0.557013826140836;0.3102644025120535;3.433598268410679;1.3129299049427092;-0.9992862241256246;0.000569781321152195;0.05812174977057194;0.0509839910268175;0.0015256466734663795;0.09635974304068509;60.0;53.691075999999995;86.84211855999999
-0.6625434662253713;1.6220157616501063;1.625170712821684;-0.0387478331803813;0.018621374903384863;-0.0040787192821454;2.1206683634679697;0.48615557377992374;0.23634724191728687;3.433598268410679;1.3129299049427092;-1.0079535026001836;0.0004325867128930227;0.04945447129601299;0.0509839910268175;0.0008483815127629336;0.08055470582237159;60.0;53.691144380000004;86.84179782
-2.8566700697369245;1.9238598523924069;1.625170712821684;-0.0458855919241358;0.003774193030145608;-0.0387478331803813;3.433598268410679;0.48414088327769944;0.23439239486091099;3.433598268410679;1.3129299049427092;-1.012542061792597;0.002471270518457067;0.12440093810543496;0.0509839910268175;0.0012421856649278617;0.081574385642908;60.0;53.69119054;86.84149582
-1.3254954636033924;2.4993035177202474;3.5022729632610767;-0.0458855919241358;0.013691835984795703;-0.0142755174875089;2.4685963708127034;0.8683625581703345;0.7540535324321275;4.256642302335503;2.135973938867533;-1.012542061792597;0.005593006720331589;0.17028653002957084;0.0509839910268175;0.0023557546338219522;0.1233812582848984;60.0;53.691212199999995;86.84121028000001
1.53996558869913;2.4829657020848743;3.5022729632610767;-0.0458855919241358;0.02363370589304465;0.0050983991026817;2.5539140515873777;0.7872257318330028;0.6197243528600068;4.256642302335503;1.7880459315227992;-1.0003059039461608;0.006949668522958119;0.18252268787600712;0.0509839910268175;0.0022908744249900293;0.1233812582848984;60.0;53.6912055;86.8409271
3.5022729632610767;1.7280082903608045;3.5022729632610767;-0.0142755174875089;0.02216015519047613;0.0050983991026817;4.256642302335503;0.8087400955267025;0.6540605421125397;4.256642302335503;1.948317178671184;-0.962577750586316;0.009077302678931946;0.22025084123585192;0.023452635872336;0.0011929016601420833;0.09584990313041691;60.0;53.691172900000005;86.84065386
0.8176106493627306;1.23808728935983;3.5022729632610767;0.0050983991026817;0.032872617647670126;0.0367084735393086;2.5098305448343248;0.8358704890763939;0.69867947450881;4.256642302335503;1.9940172521641708;-0.9207708779443254;0.01289525342942597;0.2620577138778425;-0.0050983991026817;0.000706715992677218;0.0672988681553992;60.0;53.69111786;86.84039402
0.9703928486906034;1.9656484378273937;3.5022729632610767;-0.0346691138982359;0.029911573659370985;0.0367084735393086;2.3083251236643187;0.8367761120449352;0.700194261689038;4.256642302335503;1.9940172521641708;-0.9207708779443254;0.011610126216024402;0.2620577138778425;0.0326297542571632;0.0014158234033081814;0.1050270215152441;60.0;53.69104914;86.8401461
0.3169973255929311;1.703525149968546;2.724329689467803;0.0367084735393086;0.03844747351247844;0.0367084735393086;2.262625050171332;0.6286573395177074;0.395210050529482;3.727023421995894;1.4643983718245623;-0.9207708779443254;0.0028400687568013823;0.12745997756704408;0.0326297542571632;0.0008736993506645043;0.08259406546344439;60.0;53.69097372;86.83991196
-2.014854329254146;2.051983524701581;3.076922176342306;-0.0336494340776996;0.03680465064028861;0.0367084735393086;3.1279907072838298;0.8194596393228686;0.6715141004791659;4.081927232199554;1.8193021820282222;-0.9207708779443254;0.007326784736793684;0.19781788518405208;0.0326297542571632;0.001379016361759303;0.0927908636688079;60.0;53.6908969;86.83968666000001
2.724329689467803;2.078157623931244;3.076922176342306;-0.061180789232181;0.037177084374228925;0.0367084735393086;3.727023421995894;0.722153300385444;0.5215053892575893;4.081927232199554;1.8193021820282222;-0.9207708779443254;0.007002383692634063;0.19781788518405208;0.0326297542571632;0.0014236215053312505;0.0927908636688079;60.0;53.690820380000005;86.83946678
3.076922176342306;2.074163187473073;3.076922176342306;-0.0367084735393086;0.0315524593591634;-0.0336494340776996;4.081927232199554;0.49702139797117384;0.24703027004121994;4.081927232199554;1.2649026157967018;-0.9268889568675436;0.0052052850877446636;0.19169980626083394;0.0326297542571632;0.0013877502360251394;0.0927908636688079;60.0;53.69075016000001;86.83924296
0.2885638489816599;1.5967180856720464;3.076922176342306;-0.0397675130009177;0.035356579891790925;-0.0367084735393086;2.8170246164028523;0.5133745445309913;0.26355342297240275;4.081927232199554;1.2649026157967018;-0.979912307535434;0.002716130921981404;0.1386764555929435;0.0122361578464362;0.0009115461391497991;0.0723972672580809;60.0;53.6906964;86.83898952000001
1.6586718732324586;2.0953949436175994;3.076922176342306;-0.1091057407973896;0.03866052535969994;-0.0367084735393086;3.337070102511023;0.5235701804323177;0.27412573383792976;4.081927232199554;1.2649026157967018;-0.979912307535434;0.0031415953683599875;0.1386764555929435;0.0448659121035994;0.0015884213947520796;0.1050270215152441;60.0;53.69068578;86.83875362
-0.6810634816760135;2.810101259194478;1.6586718732324586;-0.1070663811563169;0.03780798973993663;-0.0397675130009177;3.0279241159554107;1.4347435507789215;2.0584890565017075;6.3449660293439205;3.5279414129410682;-0.979912307535434;0.0014676028007414347;0.10196798205363511;0.0989089425920261;0.00244808416177507;0.1274599775670439;60.0;53.690711140000005;86.83857418
-2.3625191135798533;2.809451659986707;1.6586718732324586;-0.1101254206179259;0.02997581195638736;-0.0397675130009177;3.7869566769553153;1.3370400131598768;1.7876759967905633;6.3449660293439205;3.31704191338851;-0.979912307535434;0.0014743091684812745;0.10196798205363511;0.0989089425920261;0.0024259375520295527;0.1274599775670439;60.0;53.69075435;86.83845355000001
-5.636847779285581;1.8515998040853783;-0.6810634816760135;-0.0397675130009177;0.08371968756320218;0.0876924645661262;6.3449660293439205;1.3018529117024835;1.694821003708234;6.3449660293439205;3.31704191338851;-1.0013255837666972;0.0010368356449871668;0.0805547058223719;0.0989089425920261;0.0010357958980506572;0.0866727847455899;60.0;53.69079531;86.83839211
-3.7949733753214;2.6568429386323116;1.5858793417272694;-0.0963597430406851;0.07852494647579847;0.0876924645661262;4.719811808479243;1.3472391476874739;1.8150533210616708;6.3449660293439205;3.4974170154011586;-0.9941878250229428;0.0012463966400204144;0.08769246456612634;0.0989089425920261;0.002167144539557338;0.1264402977465075;60.0;53.690820630000005;86.83839183
-2.410514696563105;3.219212199626679;1.5858793417272694;0.0876924645661262;0.07278257134518397;0.0876924645661262;3.564894314944029;1.559810940576557;2.4330101703423237;6.3449660293439205;3.8273934817394237;-0.9941878250229428;0.00036734259263339065;0.04996431120628131;0.0989089425920261;0.003230181807341947;0.1264402977465075;60.0;53.690813029999994;86.83838934999999
1.5858793417272694;3.219212199626679;1.5858793417272694;-0.0214132762312633;0.07278257134518397;0.0876924645661262;2.847549013942762;1.559810940576557;2.4330101703423237;6.3449660293439205;3.8273934817394237;-0.9941878250229428;0.00036734259263339065;0.04996431120628131;0.0989089425920261;0.003230181807341947;0.1264402977465075;60.0;53.690813029999994;86.83838934999999
1.50567757221136;3.219212199626679;1.5858793417272694;-0.0825940654634444;0.07278257134518397;0.0876924645661262;2.517572547604497;1.559810940576557;2.4330101703423237;6.3449660293439205;3.8273934817394237;-0.9941878250229428;0.00036734259263339065;0.04996431120628131;0.0989089425920261;0.003230181807341947;0.1264402977465075;60.0;53.690813029999994;86.83838934999999
