acc_X;acc_X_std;acc_X_max;acc_Z;acc_Z_std;acc_Z_max;acc;acc_std;acc_var;acc_max;acc_range;fb_tilt_max;fb_tilt_var;fb_tilt_range;tilt_max;tilt_var;tilt_range;class;lat;lon
-1.139776816110324;1.959134567555288;3.390050196489381;0.0336494340776996;0.02087730623769914;0.040787192821454;2.769967492579672;1.180516172673473;1.393618433943625;3.5554303675286856;2.4536138505086704;-0.9819516671765066;0.0020301058933386643;0.10604670133578054;0.0214132762312633;0.001205378623379004;0.081574385642908;90.0;53.713826159999996;86.84135768
3.0295273367105584;1.959134567555288;3.390050196489381;0.0356887937187723;0.02087730623769914;0.040787192821454;3.5554303675286856;1.180516172673473;1.393618433943625;3.5554303675286856;2.4536138505086704;-0.9819516671765066;0.0020301058933386643;0.10604670133578054;0.0214132762312633;0.001205378623379004;0.081574385642908;90.0;53.713826159999996;86.84135768
-0.1152830446664061;1.959134567555288;3.390050196489381;0.0010196798205363;0.02087730623769914;0.040787192821454;1.2663979331760966;1.180516172673473;1.393618433943625;3.5554303675286856;2.4536138505086704;-0.9819516671765066;0.0020301058933386643;0.10604670133578054;0.0214132762312633;0.001205378623379004;0.081574385642908;90.0;53.713826159999996;86.84135768
3.390050196489381;2.524586946520071;3.390050196489381;-0.003059039461609;0.023591874343929547;0.040787192821454;3.466475540559035;1.1832483031459229;1.4000765468977057;3.5554303675286856;2.4536138505086704;-0.9794024676251656;0.001922024199298948;0.10859590088712157;0.0479249515652085;0.001919060920530174;0.1080860609768532;90.0;53.71400017999999;86.84135762
1.0730809062194318;2.2550757965084904;3.390050196489381;0.040787192821454;0.03604679939232307;0.0744366268991536;1.101816517020015;1.212383603563018;1.4698740021884493;3.466475540559035;2.821182824527102;-0.9794024676251656;0.0017218729140402054;0.10859590088712157;0.0479249515652085;0.0015634674682782805;0.1080860609768532;90.0;53.71417382;86.84135205999999
-2.801259570225741;2.915737512010868;3.390050196489381;-0.0101967982053635;0.0349335222853822;0.0744366268991536;2.8065986293677403;1.4474697159730785;2.0951685786591843;3.921311393012265;3.276018676980332;-0.9794024676251656;0.0017664780576121535;0.10859590088712157;0.0693382277964719;0.002702614211808031;0.1294993372081166;90.0;53.714343039999996;86.84130624
-0.3508851260493524;2.1039320929732828;1.0730809062194318;0.0744366268991536;0.032773626174980454;0.0744366268991536;0.6452927160319331;1.4495270476198543;2.101128661781531;3.921311393012265;3.276018676980332;-0.9794024676251656;0.0019773387363159096;0.10859590088712157;0.0693382277964719;0.0014232056065567004;0.08973182420719891;90.0;53.71447154;86.84121458
-3.8288225632465256;1.3320394716132058;-0.3508851260493524;0.0112164780258998;0.0491227512464246;0.0744366268991536;3.921311393012265;1.2628763381852177;1.5948566455481046;3.921311393012265;3.276018676980332;-0.9794024676251656;0.0004899287564359561;0.056592230039767655;0.0693382277964719;0.0005648945105510345;0.0632201488732538;90.0;53.71459092;86.84102676
-3.2971161205924653;1.3307989095672854;-0.3508851260493524;0.011726317936168;0.09239953473332856;0.0744366268991536;3.477486418256492;1.2746481257229272;1.624727844408971;3.921311393012265;3.276018676980332;-0.9870500662791885;0.00038605803748868945;0.048944631385744786;0.0693382277964719;0.000566454130955648;0.0632201488732538;90.0;53.71473688;86.8407836
-2.6563656989802635;1.9399628519315155;1.0728267543249288;-0.0622004690527174;0.07326667375616705;0.011726317936168;2.964656886895767;0.745145055433422;0.5552411536368775;3.921311393012265;1.998086363505568;-0.9870500662791885;0.0005544970411869517;0.048944631385744786;0.0693382277964719;0.0011981003948241403;0.0887121443866625;90.0;53.71488576;86.84054336
-2.76842852303031;1.7616042054132466;1.0728267543249288;-0.1672274905679616;0.07271557648872741;0.011726317936168;3.1424644927395606;0.5843766870939707;0.34149611241892464;3.477486418256492;1.5542613887497947;-0.9258692770470072;0.0014977554618972521;0.10706638115631706;0.0571020699500356;0.0009477293325368416;0.07647598654022619;90.0;53.715046359999995;86.84034556
1.0728267543249288;1.704231359151221;1.0728267543249288;-0.058121749770572;0.06343195326107909;0.0086672784745589;1.9232250295066973;0.5663717362230724;0.32077694359233744;3.40077935654809;1.477554327041393;-0.9258692770470072;0.0020989371405289686;0.10706638115631706;0.0489446313857448;0.0008616382862021735;0.0683185479759354;90.0;53.715220480000006;86.84018688
-2.5223019105456568;1.6601425208238145;1.0728267543249288;0.0086672784745589;0.0762390537973409;0.0275313551544814;3.0251080342483974;0.5938814116727498;0.35269513113041806;3.40077935654809;1.477554327041393;-0.9258692770470072;0.002191578592563014;0.10706638115631706;0.0489446313857448;0.0008084032430580305;0.0683185479759354;90.0;53.715408939999996;86.84010398000001
-2.942328752367523;1.568202353347481;1.0728267543249288;-0.0520036708473539;0.04277553808770422;0.0285510349750178;3.40077935654809;0.5740554890696187;0.3295397045309591;3.40077935654809;1.477554327041393;-0.9258692770470072;0.0031542802809841454;0.12032221882328953;0.0479249515652085;0.0007035967518679992;0.0672988681553991;90.0;53.71558274;86.84008834
-1.696078524912352;0.65521780698667;-1.3406943701215348;0.0275313551544814;0.033942474760807306;0.0285510349750178;2.4630023849529894;0.5234200030435632;0.2739684995861237;3.40077935654809;1.3082503810592718;-0.9258692770470072;0.0026310276352362895;0.12032221882328953;0.0479249515652085;9.222555325948302e-05;0.024472315692872497;90.0;53.71576512;86.84009152
-1.7857593325335772;1.4018200116524606;-1.3406943701215348;0.0285510349750178;0.06380703001156608;0.0285510349750178;2.4249519461034077;1.180909587226715;1.3945474532039706;5.001062171140973;2.9085331956521543;-0.930967676149689;0.0024646681254108394;0.12542061792597115;0.0887121443866625;0.0006933032571975518;0.06525950851432649;90.0;53.71601366;86.84015574
-1.3406943701215348;1.4138314392302114;-1.3406943701215348;0.0224329560517997;0.06082969174089663;0.0285510349750178;2.0925289754888183;1.2299793837969002;1.5128492845654022;5.001062171140973;2.9085331956521543;-0.9982665443050882;0.0008354366634046854;0.05812174977057194;0.0887121443866625;0.000718257183671369;0.06525950851432649;90.0;53.71628052;86.84027411999999
-4.772576501566572;1.469794825684719;-1.260325988140424;-0.1142041399000713;0.05971180950476961;0.0285510349750178;5.001062171140973;1.3244651958859566;1.7542080551132255;5.001062171140973;3.276358708035083;-0.971754868971143;0.0014153035298400149;0.0846334251045171;0.0887121443866625;0.0007789784047576573;0.0672988681553992;90.0;53.71655786;86.84045418
-1.71719939745398;2.8549164862528738;3.221695067131653;-0.0081574385642908;0.055337714780354985;0.0224329560517997;2.1259885141110213;1.3415507149096517;1.7997583206745975;5.001062171140973;3.276358708035083;-0.9564596716630978;0.0021244109404709964;0.0999286224125624;0.0887121443866625;0.0025818995924909395;0.1427551748750891;90.0;53.71684014;86.8406699
-1.260325988140424;3.8798014553684865;4.746254089595808;-0.0550627103089629;0.04192421983356005;-0.0081574385642908;1.7247034631058897;1.4887369080130572;2.2163375812802784;5.001062171140973;3.276358708035083;-0.9564596716630978;0.0024322800083417186;0.0999286224125624;0.0887121443866625;0.004681772505262645;0.1692668502090342;90.0;53.71712;86.84092928
3.221695067131653;2.8543736948872436;4.746254089595808;-0.0836137452839808;0.0670709855878125;0.0917711838482716;3.3057603957611947;1.1980294331361596;1.4352745226605481;4.765478454318073;3.0407749912121833;-0.9564596716630978;0.0015287399206022716;0.0978892627714898;0.0316100744366268;0.0024207388173475364;0.11216478025899851;90.0;53.71733756;86.84117755999999
4.746254089595808;2.391069093755982;4.746254089595808;-0.0311002345263587;0.06744509514740676;0.0917711838482716;4.765478454318073;1.2517477696832573;1.5668724789070088;4.765478454318073;3.0407749912121833;-0.9564596716630978;0.0004585283989564513;0.04996431120628131;0.0214132762312633;0.0016823105431098358;0.101967982053635;90.0;53.717546199999994;86.84141179999999
2.557394455552456;0.9390122868507135;4.746254089595808;0.0917711838482716;0.06718831203272747;0.0917711838482716;2.5592629559568314;0.9309794858036483;0.8667228029872254;4.765478454318073;2.2062154983612414;-0.9564596716630978;0.00043284664962714507;0.04996431120628131;-0.0448659121035994;0.00026024865818318946;0.0356887937187723;90.0;53.71774774000001;86.84160822
4.345431749229077;1.0099551767650263;5.19959421286605;0.0;0.046785417071223384;0.0917711838482716;4.3477684634767675;1.0209692923189648;1.042378295858288;5.237846895311584;2.678583939354753;-0.9697155093300704;0.00020670169095817143;0.03670847353930862;-0.0448659121035994;0.0002893615724026434;0.0448659121035995;0.0;53.71793388;86.84175339999999
4.4944465241981;1.182313250604741;5.647792532555834;0.0418068726419904;0.04996743257762039;0.0917711838482716;4.505555491151602;1.2006563396650467;1.4415756459778681;5.698654997294627;3.1393920413377954;-0.9850107066381156;8.910631245030398e-05;0.021413276231263434;-0.0448659121035994;0.00041849814190464754;0.054043030488426694;0.0;53.71811770000001;86.84186553999999
5.19959421286605;0.7600420436220117;6.1422616127394;0.0081574385642908;0.03204618618636565;0.0418068726419904;5.237846895311584;0.7939645505763163;0.630379707571852;6.231001758774316;1.8832332952975488;-0.9850107066381156;9.846403487798815e-05;0.021413276231263434;-0.0764759865402263;0.00016895887716647626;0.02957071479555419;0.0;53.718297400000004;86.84194284
5.647792532555834;0.8377864776865692;6.664449505985512;-0.0418068726419904;0.033468184512958916;0.0418068726419904;5.698654997294627;0.8688428827512064;0.7548879549074264;6.748115759399627;2.242560268248025;-0.9850107066381156;3.815871256626624e-05;0.014275517487508771;-0.0774956663607627;0.00021242029910837474;0.037728153359845;0.0;53.718469479999996;86.84200228
6.1422616127394;0.5937605408905008;6.664449505985512;0.0285510349750178;0.026182153371609482;0.0285510349750178;6.231001758774316;0.6109179186174172;0.3732207032878372;6.748115759399627;1.5102688640880428;-0.9850107066381156;4.2317700311901055e-05;0.014275517487508771;-0.0897318242071989;0.0001063661115946524;0.025491995513408805;0.0;53.71863102;86.84205118
6.664449505985512;0.381124675435956;6.664449505985512;-0.0142755174875089;0.027304771391683604;0.0285510349750178;6.748115759399627;0.3928840286817596;0.1543578599932097;6.748115759399627;1.0494607621050003;-0.9850107066381156;7.309420962960491e-05;0.019883756500458705;-0.0989089425920261;3.899051011534636e-05;0.01631487712858161;0.0;53.71878358;86.84210134
6.430350542810531;0.4215891568060123;6.664449505985512;-0.003059039461609;0.022983546963917734;0.0285510349750178;6.491176346204587;0.43789411235912207;0.19175125363878343;6.748115759399627;1.1709145750826355;-0.9850107066381156;6.909118392443244e-05;0.019883756500458705;-0.095849903130417;5.489863824240493e-05;0.019373916590190707;0.0;53.71893288;86.84214312
6.136194382885353;0.4971522097963097;6.664449505985512;-0.0311002345263586;0.010740573662266913;-0.003059039461609;6.160234447789793;0.5190042685406054;0.26936543076336894;6.748115759399627;1.1709145750826355;-0.986030386458652;9.898390834618825e-05;0.022432956051799624;-0.095849903130417;7.01829182076177e-05;0.019373916590190707;0.0;53.719084280000004;86.84220236
5.539475021210642;0.46947749673780337;6.430350542810531;-0.0214132762312633;0.01084174299460381;-0.003059039461609;5.5772011843169915;0.48017312288339675;0.23056622793959364;6.491176346204587;1.179376534876008;-0.9880697460997246;7.582354533767584e-05;0.020393596410727022;-0.0917711838482716;7.257433616135822e-05;0.020393596410727008;0.0;53.71923324000001;86.84227452
5.6013050815549255;0.5476840246001919;6.136194382885353;-0.0101967982053635;0.007437374336212978;-0.0101967982053635;5.621089162319789;0.5418338307971752;0.29358390019634184;6.160234447789793;1.489346532068521;-0.9880697460997246;9.474693958032155e-05;0.020393596410727022;-0.0800448659121036;0.00010532636465824293;0.0280411950647496;0.0;53.71938246;86.84237766
5.286265349299886;0.5195499732817505;6.045366478544454;-0.020393596410727;0.021432689903638225;-0.0101967982053635;5.311799811328579;0.5125005995520127;0.26265686454117243;6.065681017837699;1.3947931021164273;-0.979912307535434;0.00011130490954263868;0.028551034975017653;-0.0800448659121036;8.182808389539859e-05;0.0239624757826042;0.0;53.719530320000004;86.84252039999998
4.630306278292443;0.5354309015225837;6.045366478544454;-0.0224329560517997;0.022344719261239848;-0.0101967982053635;4.670887915721272;0.5251587821922935;0.2757917465136928;6.065681017837699;1.3947931021164273;-0.979912307535434;0.00015575409107412464;0.028551034975017653;-0.0800448659121036;9.144574305718233e-05;0.0239624757826042;0.0;53.719663000000004;86.8426838
6.045366478544454;0.9770618820466948;7.256066684274204;-0.0652595085143265;0.022606096948501436;-0.0091771183848271;6.065681017837699;0.976712648597739;0.9539675979308104;7.292068767662367;2.6211808519410953;-0.979912307535434;0.00010912144097618387;0.027531355154481685;-0.0800448659121036;0.00028203135650096023;0.04537575201386761;0.0;53.71977575999999;86.842858
5.716189698242855;1.4740536415155034;8.45804645665393;-0.0458855919241358;0.03775983281077558;0.0336494340776996;5.719394579493417;1.5070858831337217;2.27130785914095;8.57852026454484;3.9076323488235687;-0.979912307535434;0.00016875092777924154;0.027531355154481685;-0.0800448659121036;0.0007057802204344656;0.06984806770674;0.0;53.71987024;86.84303952
7.256066684274204;1.296179321091292;8.465041669844707;-0.0091771183848271;0.05132951136393683;0.0560823901294993;7.292068767662367;1.3800368472779263;1.9045016998447988;8.701972335589963;2.9825777560965454;-0.979912307535434;0.00017904442244969169;0.027531355154481685;-0.1009483022330988;0.0005287113171640058;0.0489446313857448;0.0;53.71994586000001;86.84321242000001
8.45804645665393;1.1338992950736193;8.465041669844707;0.0336494340776996;0.04622648487293696;0.0632201488732538;8.57852026454484;1.2043350179446661;1.450422835447779;8.701972335589963;2.9825777560965454;-0.9850107066381156;0.00012601732869282737;0.022432956051800068;-0.1009483022330988;0.00038917727829791156;0.0489446313857448;30.0;53.72000924;86.84337308
8.465041669844707;0.6145808771144983;8.465041669844707;0.0560823901294993;0.03622662809502832;0.0866727847455898;8.701972335589963;0.6304303884940468;0.39744247473675476;8.701972335589963;1.4099035679275955;-0.979912307535434;0.00012601732869283044;0.027531355154481685;-0.1254206179259712;0.0001284087466465235;0.024472315692872393;30.0;53.72006330000001;86.84353466
7.211615929704245;0.6244660645807228;8.465041669844707;0.0632201488732538;0.019724941155913875;0.0866727847455898;7.533202162616241;0.4911619925636187;0.24124010293906423;8.701972335589963;1.1687701729737219;-0.979912307535434;0.00011884307483160741;0.027531355154481685;-0.1254206179259712;0.0001284087466465235;0.024472315692872393;30.0;53.720117560000006;86.84369644
7.790989962125071;0.5913025419708827;8.465041669844707;0.0866727847455898;0.014839757448537905;0.0866727847455898;8.266359287770822;0.4566485301402255;0.20852788007922846;8.701972335589963;1.1687701729737219;-0.979912307535434;9.638454100516939e-05;0.024472315692872226;-0.1238910981951667;9.128978101672098e-05;0.022942795962067913;30.0;53.72017366;86.84384982
7.215013970939846;0.3527268838164417;7.790989962125071;0.0723972672580809;0.014080260903115224;0.0866727847455898;7.851248584272959;0.4180801014620567;0.17479097123852363;8.594206787084147;1.0610046244679063;-0.979912307535434;9.638454100516939e-05;0.024472315692872226;-0.1238910981951667;2.7033420346642e-05;0.010706638115631717;30.0;53.72023676;86.84399484000001
7.023847706718906;1.0162308329746363;9.59309507376743;0.0484347914754767;0.014505819048084841;0.0866727847455898;7.8109643359275065;1.031515509879563;1.0640242471220949;10.32230688824457;2.511342552317064;-0.979912307535434;9.981570589532318e-05;0.024472315692872226;-0.1238910981951667;0.00029263677525233296;0.042316712552258606;30.0;53.720308120000006;86.84412252
7.765517014705033;1.2118735151233258;9.59309507376743;0.0627103089629856;0.02491808332817902;0.1152238197206077;8.594206787084147;1.2222356149415776;1.4938598984316165;10.32230688824457;2.511342552317064;-0.980422147445702;9.612460427107136e-05;0.023962475782604242;-0.1238910981951667;0.0004221892435288998;0.042316712552258606;30.0;53.72038766000001;86.84422766
9.59309507376743;1.6425754273481161;9.59309507376743;0.0764759865402263;0.02731476538236641;0.1152238197206077;10.32230688824457;1.445799804349218;2.0903370742562366;10.32230688824457;3.3053234020679705;-0.979912307535434;0.00010818566873341697;0.024472315692872226;-0.0978892627714897;0.0008110026103990632;0.0683185479759356;30.0;53.720470580000004;86.84430033999999
9.37967498027535;1.9725330936218874;9.59309507376743;0.1152238197206077;0.020490237014782777;0.1152238197206077;10.158717997674678;1.6208539041412193;2.6271673785698333;10.32230688824457;3.337220803234115;-0.979912307535434;3.098445870504724e-05;0.013255837666972359;-0.0948302233098807;0.0011725226201884885;0.0713775874375446;30.0;53.72056072;86.8443444
5.674854449877046;1.9907524326563606;9.59309507376743;0.1009483022330988;0.022333083203969442;0.1152238197206077;7.0169834861766;1.6364048876512114;2.6778209563287736;10.32230688824457;3.337220803234115;-0.979912307535434;3.332388931196809e-05;0.013255837666972359;-0.0948302233098807;0.0011991401417605606;0.0713775874375446;30.0;53.72064806000001;86.84433958
5.433201196660338;1.5642692470949064;9.37967498027535;0.0876924645661262;0.03678345672104643;0.1152238197206077;6.9850860850104555;1.2948019849117203;1.6765121801313307;10.158717997674678;3.1736319126642227;-0.979912307535434;3.5663319918887165e-05;0.013255837666972359;-0.0948302233098807;0.0007446667558561668;0.0683185479759355;30.0;53.720715940000005;86.84427946000001
6.871192173515164;1.0029940739106047;7.903768226447916;0.0571020699500356;0.03991496249102063;0.1009483022330988;8.116815595090678;0.6843709353269241;0.4683635771202489;8.54316607687458;1.5580799918641253;-0.979912307535434;0.00019204125915480263;0.03364943407769949;-0.0948302233098807;0.00034436418533868483;0.0458855919241358;30.0;53.72076068;86.84417572
6.824547792634965;0.9374034639878521;7.903768226447916;0.023452635872336;0.034930545799858576;0.0876924645661262;7.80664234284959;0.571613618924228;0.3267421293396526;8.54316607687458;1.5580799918641253;-0.979912307535434;0.00016292834493534665;0.03364943407769949;-0.0948302233098807;0.0002997590417667362;0.0458855919241358;30.0;53.72077846;86.84402453999999
7.903768226447916;0.6579753417008894;7.903768226447916;0.0081574385642908;0.032736327945522635;0.0815743856429081;8.54316607687458;0.742197625377795;0.5508573151164378;8.54316607687458;1.979456536096004;-0.979912307535434;0.00016875092777923607;0.03364943407769949;-0.1091057407973896;0.00015565011638044263;0.03161007443662689;30.0;53.7207665;86.8438385
7.491136561797672;1.0638065193107078;7.903768226447916;0.0071377587437544;0.0312868942735181;0.0815743856429081;7.949611305699739;1.2328282025043027;1.5198653768899901;8.54316607687458;3.0647634776192474;-0.9819516671765066;0.0001525308755712558;0.03161007443662689;-0.0897318242071989;0.0003943760129799601;0.050983991026817596;30.0;53.720727499999995;86.84365102000001
6.19811731239256;1.5210237683794714;7.903768226447916;0.0815743856429081;0.03177738542801262;0.0815743856429081;6.563709540778577;1.7080995797729874;2.9176041744206564;8.54316607687458;4.137357782695419;-0.9819516671765066;0.00012924054419569177;0.03161007443662689;-0.0744366268991536;0.0007699326064109089;0.06627918833486289;30.0;53.72067628;86.84345644000001
5.220740121891383;1.431446596854744;7.491136561797672;0.0137656775772407;0.029688271724604507;0.0815743856429081;5.478402599255333;1.592363187454416;2.535620520759988;7.949611305699739;3.8657079107599817;-0.9819516671765066;6.217686679730995e-05;0.01937391659019061;-0.0703579076170082;0.0006479702907701289;0.06118078923218111;30.0;53.72062042;86.84324186
4.269552322764854;1.037817476359878;6.19811731239256;0.040787192821454;0.026875866436700552;0.0815743856429081;4.405808294179161;1.1798160014474375;1.3919657972714197;6.563709540778577;2.9191331500970996;-0.9819516671765066;5.822582843895617e-05;0.01937391659019061;-0.0632201488732537;0.0003344865894428034;0.04588559192413591;30.0;53.7205599;86.8430175
4.0271162104894405;0.7136293913610838;5.220740121891383;0.0469052717446721;0.016512832406140227;0.0499643112062812;4.083903394939758;0.815898057547973;0.6656896403105553;5.478402599255333;2.0933354182347927;-0.9819516671765066;0.0001613687245307323;0.035688793718772316;-0.0601611094116447;0.00013485517765226683;0.029570714795554197;30.0;53.720492;86.84275504
3.623017863380324;0.366895060119504;4.269552322764854;0.0193739165901906;0.015168915486194938;0.0601611094116447;3.644576390681477;0.4190197866120377;0.1755775815723976;4.405808294179161;1.0207411131586208;-0.9962271846640156;8.297180552548903e-05;0.021413276231263323;-0.0601611094116447;3.710596879311186e-05;0.014275517487508903;30.0;53.720422140000004;86.84245478
3.3792264817973816;0.3511810720877641;4.0271162104894405;0.0499643112062812;0.03215146037395305;0.0601611094116447;3.3850671810205406;0.36945420872758694;0.13649641234652737;4.083903394939758;1.007984451272859;-0.9967370245742836;8.11002610399526e-05;0.02090343632099534;-0.0540430304884266;3.45066014520896e-05;0.01631487712858161;30.0;53.72033376;86.84212063999999
3.549819842243124;0.8970021996904094;3.623017863380324;0.0601611094116447;0.06070350179339307;0.0601611094116447;3.556039683048;0.8834813065238992;0.7805392189771759;3.644576390681477;2.144145837545844;-0.9967370245742836;8.11002610399526e-05;0.02090343632099534;-0.0254919955134087;0.00024838254627143185;0.037728153359844994;30.0;53.72020906;86.84176554000001
3.066952223504587;0.8302105282655861;3.549819842243124;-0.0193739165901906;0.07839739849319713;0.0601611094116447;3.0759189436668986;0.8145379019043203;0.663471993638692;3.556039683048;2.055609129912367;-0.9967370245742836;0.00011884307483160031;0.023962475782604353;-0.0254919955134087;0.00021563051777454743;0.0364535535841746;0.0;53.72006028;86.84138636
1.4569967776375172;0.7785209376362623;3.549819842243124;-0.0892219842969307;0.06823441062904322;0.0601611094116447;1.500430553135633;0.7638235700560284;0.5834264461731365;3.556039683048;2.055609129912367;-0.9962271846640156;0.00011120093484899327;0.024472315692872337;-0.0254919955134087;0.00018675154661578635;0.0364535535841746;0.0;53.71990524;86.84100092
2.8424676599419585;0.6778870855590202;3.071429785292445;-0.1121647802589986;0.04715178548181887;-0.0142755174875089;2.864744306069543;0.6618221085699346;0.4380085033919543;3.0759189436668986;1.5754883905312655;-0.9880697460997246;0.00015804153433422112;0.0326297542571633;-0.0254919955134087;0.00014171750743256965;0.028551034975017896;0.0;53.719747440000006;86.84059736
2.8123912099194315;0.6504836267503815;3.071429785292445;-0.0142755174875089;0.05524839437681456;0.0173345569491179;2.812476054174142;0.6364459690162979;0.40506347147709443;3.0715841476434793;1.5711535945078463;-0.9880697460997246;0.0001788364730624021;0.0326297542571633;-0.0254919955134087;0.00012861669603381575;0.027531355154481497;0.0;53.71960296000001;86.84018664
3.071429785292445;0.43083796576347844;3.071429785292445;-0.0142755174875089;0.05219824563009663;0.0173345569491179;3.0715841476434793;0.42973821807186674;0.1846749360715833;3.0715841476434793;0.9986653163996042;-0.9880697460997246;0.00020191885505068375;0.0326297542571633;-0.0356887937187723;5.687415742159077e-05;0.017334556949117896;0.0;53.719484699999995;86.8397663
2.24654286199656;0.4115791908634824;3.071429785292445;0.0173345569491179;0.01683861602266489;0.0193739165901906;2.2475544868204675;0.4077359244050973;0.16624858405047924;3.0715841476434793;0.9986653163996042;-0.9880697460997246;0.00010002365528259768;0.02549199551340886;-0.0356887937187723;4.855618193031871e-05;0.017334556949117896;0.0;53.71937304000001;86.83932696
2.059979499920693;0.4251372999159935;3.071429785292445;0.0112164780258998;0.0387706350988291;0.0897318242071989;2.072918831243875;0.41959326281870135;0.1760585062028438;3.0715841476434793;1.0166470650897823;-0.9697155093300704;0.00024330078311976316;0.04384623228306306;-0.0346691138982359;5.437876477420985e-05;0.0183542367696543;30.0;53.719241620000005;86.8389037
2.471194241585292;0.6744239053167433;2.471194241585292;0.0193739165901906;0.03423908104492878;0.0897318242071989;2.4722660682172415;0.6713067374737816;0.4506527357776927;2.4722660682172415;1.7136174393988184;-0.9697155093300704;0.00034332443840231407;0.04486591210359947;-0.0132558376669725;0.00013547902581411705;0.029570714795554204;30.0;53.719068760000006;86.83852092
2.0388545400887392;0.6522217773818783;2.471194241585292;0.0897318242071989;0.036159117419184574;0.0897318242071989;2.054937082553697;0.6496868828521682;0.42209304575016693;2.4722660682172415;1.7136174393988184;-0.9697155093300704;0.000254945948807545;0.04486591210359947;-0.0132558376669725;0.00012404180951361752;0.029570714795554204;30.0;53.7188487;86.83820358
0.7471883800453032;0.6646986948000131;2.471194241585292;0.061180789232181;0.03921063369633365;0.0897318242071989;0.7586486288184232;0.6611140595264516;0.43707179970354465;2.4722660682172415;1.7136174393988184;-0.9697155093300704;0.0002649275193970717;0.04486591210359947;-0.0132558376669725;0.0001284087466465355;0.029570714795554204;30.0;53.7185845;86.83795474
1.993061131892932;0.6716184005879398;2.1912099356627404;0.0071377587437544;0.0591651587575689;0.0897318242071989;1.993161951226627;0.6705383058588562;0.44962161962406494;2.1925623499588616;1.4339137211404385;-0.9697155093300704;0.0003214897527377223;0.04486591210359947;-0.0132558376669725;0.00012840874664653626;0.024472315692872504;0.0;53.71828512;86.83777824
2.1912099356627404;0.7897602258339338;2.1912099356627404;-0.003059039461609;0.04577556117564424;0.061180789232181;2.1925623499588616;0.768014418411441;0.5898461468878641;2.1925623499588616;1.7245334461705275;-0.986030386458652;0.00039869096276608815;0.052513510757621895;-0.0071377587437544;0.00018174776448432096;0.030590394616090602;0.0;53.717961419999995;86.83763886
0.9828973078253658;0.8417188434287369;2.305244200331394;-0.0622004690527174;0.030878794147989608;0.0071377587437544;0.9851925706949543;0.8159374111822935;0.665753858966863;2.3060923460928255;1.8380634423044915;-0.986030386458652;0.0005645305991233311;0.052513510757621895;-0.0071377587437544;0.0002195945529696098;0.034669113898236;0.0;53.71761348;86.83750083999999
0.3936251547540213;0.8282407749526547;2.305244200331394;-0.029060874885286;0.02520589941844471;-0.003059039461609;0.468028903788334;0.8061325521805365;0.6498496916851053;2.3060923460928255;1.8380634423044915;-0.986030386458652;0.0005479986228344282;0.052513510757621895;-0.0071377587437544;0.00021335607135115558;0.034669113898236;0.0;53.71726498;86.83735202
2.305244200331394;0.8883598364982525;2.465668533791948;-0.0560823901294993;0.05838101099583383;0.0825940654634444;2.3060923460928255;0.9205036658958176;0.847326998927639;2.6773599422320933;2.2093310384437594;-0.9911287855613338;0.0004827545025747612;0.04741511165494017;-0.0071377587437544;0.00024506835291163105;0.0356887937187723;0.0;53.71691732000001;86.83718356
1.8718450842475305;1.3193074240668234;4.074139676271976;-0.0173345569491179;0.05424035346415263;0.0825940654634444;1.9071337339947272;1.3764466571822636;1.8946054000682278;4.282294900645659;3.814265996857325;-0.9584990313041704;0.001137431161084728;0.08004486591210358;-0.0071377587437544;0.0004842101482857105;0.06118078923218111;0.0;53.71657352;86.83703944
2.465668533791948;0.8404500869436708;4.074139676271976;0.0825940654634444;0.05475974949361699;0.0825940654634444;2.6773599422320933;0.9054508589983219;0.819841258060799;4.282294900645659;2.3751611666509316;-0.9584990313041704;0.0019334614155994954;0.1136942999898034;-0.0326297542571632;0.0001760291563340681;0.03568879371877231;30.0;53.71623715999999;86.8369386
4.074139676271976;0.836548830104419;4.074139676271976;-0.0356887937187723;0.04978920210031935;0.0825940654634444;4.282294900645659;0.8569432509914932;0.7343517354198692;4.282294900645659;2.3751611666509316;-0.9584990313041704;0.001771728779641069;0.1136942999898034;-0.0326297542571632;0.0001760291563340681;0.03568879371877231;30.0;53.715919099999994;86.83691238
2.449256687461532;0.7174030362077776;4.074139676271976;-0.0346691138982359;0.05338683641202646;0.0825940654634444;2.974035044571059;0.633195022621379;0.40093593667248856;4.282294900645659;1.6049349584135655;-0.9584990313041704;0.0017522335245833984;0.1136942999898034;-0.0418068726419904;0.00011769935320152014;0.026511675333945106;30.0;53.71559748;86.83695428000001
2.347295049472504;0.687956397409356;4.074139676271976;-0.0214132762312633;0.01706250691412423;-0.003059039461609;2.9806248968560936;0.5546010891648101;0.3075823681027936;4.282294900645659;1.3082598560745997;-0.9584990313041704;0.001808561814863359;0.1136942999898034;-0.0418068726419904;0.00010272699731722955;0.026511675333945106;0.0;53.715252480000004;86.83708032
2.84754764056918;1.4979702591296806;3.0205516028004915;-0.0479249515652085;0.025946794432547205;-0.003059039461609;3.5098931003886884;0.6077378395925291;0.3693452816725946;3.7681447584998518;1.581453799187217;-0.9855205465483838;0.0010516260451575664;0.08667278474558993;0.0112164780258998;0.0007028689290125307;0.0632201488732537;0.0;53.71489794;86.83722753999999
3.0205516028004915;1.4914392036060555;3.0205516028004915;-0.003059039461609;0.027938110622629367;-0.003059039461609;3.7681447584998518;0.6850114015265221;0.46924062022133;3.7681447584998518;1.581453799187217;-0.9855205465483838;0.00023701031415448848;0.039257673090649536;0.0112164780258998;0.0006820739902843506;0.0632201488732537;0.0;53.71453092;86.83738276
-0.625577448390619;1.508246092758561;3.0205516028004915;-0.0713775874375446;0.02616228981259247;-0.003059039461609;2.1866909593126347;0.6872448050934264;0.4723054221279017;3.7681447584998518;1.581453799187217;-0.9855205465483838;0.00021190042564021204;0.039257673090649536;0.0112164780258998;0.0006933032571975682;0.0632201488732537;0.0;53.714160379999996;86.8375191
1.4426289952501257;1.4878812990319588;3.0205516028004915;-0.0591414295911083;0.02626541627896666;-0.003059039461609;2.391387797085591;0.6417861249326066;0.4118894301560113;3.7681447584998518;1.581453799187217;-0.9855205465483838;0.00028171943242008096;0.039257673090649536;0.0112164780258998;0.0006677254825619053;0.0632201488732537;0.0;53.71379072;86.83763584
2.513346383864501;1.4100943271855955;2.720011335459;-0.0356887937187723;0.014723696419082107;-0.0356887937187723;3.0889268248156805;0.47721420826977695;0.22773340057455005;3.207869856611354;1.0211788972987192;-0.986030386458652;0.00022541713581352796;0.03874783318038133;0.0112164780258998;0.0006122029961576625;0.0581217497705719;0.0;53.713422679999994;86.837703
2.720011335459;0.5113139638539184;2.720011335459;-0.0499643112062812;0.02776264403762778;0.0020393596410727;3.207869856611354;0.3333828408852851;0.11114411859674331;3.207869856611354;0.8164820595257631;-0.9788926277148976;0.00023477485824121335;0.035688793718772316;-0.0254919955134087;7.818896961797774e-05;0.0214132762312634;0.0;53.713060940000005;86.83773550000001
2.5834838728702683;0.18906109699647827;2.720011335459;-0.0693382277964719;0.026755667917613874;0.0020393596410727;3.143588921564753;0.14160576941891642;0.02005219393272333;3.207869856611354;0.3589395346289517;-0.9788926277148976;0.00018320341019532552;0.035688793718772316;-0.037728153359845;1.2788887317847887e-05;0.009177118384827099;0.0;53.712698020000005;86.8377361
2.207177589083186;0.22152642025744568;2.720011335459;0.0020393596410727;0.03545055883956721;0.0163148771285816;2.8489303219824023;0.15109849978617315;0.02283075663763217;3.207869856611354;0.3589395346289517;-0.9788926277148976;0.0002237535407152774;0.035688793718772316;-0.037728153359845;1.590812812707504e-05;0.009177118384827099;0.0;53.712333439999995;86.83771968
2.553740903247627;0.44881995131510055;2.5834838728702683;-0.0254919955134087;0.032927922881459674;0.0163148771285816;3.163000216827617;0.41641642241082427;0.17340263685343005;3.163000216827617;1.0161743081382637;-0.9788926277148976;0.0004062291280550641;0.05302335066789021;-0.0265116753339451;5.853775251984646e-05;0.0193739165901907;0.0;53.71196432000001;86.83766288
2.2579234808440733;0.40645859229053805;2.553740903247627;0.0163148771285816;0.019149901944173802;0.0163148771285816;2.972963904364944;0.3957792640406365;0.15664122584454787;3.163000216827617;1.0161743081382637;-0.9788926277148976;0.0006657499633827621;0.06220046905271748;-0.0265116753339451;4.751643499391064e-05;0.017844396859386102;0.0;53.71160862000001;86.83758365999999
1.471139471120113;0.4858109187953833;2.743767185211353;-0.0285510349750178;0.0215415658140108;0.0163148771285816;2.1468259086893533;0.39229636763599196;0.15389644006039338;3.163000216827617;1.0161743081382637;-0.9941878250229428;0.00034602778043698023;0.046905271744672294;-0.0265116753339451;7.096272840993426e-05;0.0224329560517997;30.0;53.71125032;86.83750696
2.2995733121290773;0.474213564294645;2.743767185211353;-0.0010196798205363;0.020677135687792964;0.0163148771285816;2.5678307174222668;0.3133869460230915;0.09821137793768006;2.972963904364944;0.8261379956755905;-0.9707351891506067;0.0007501774146191761;0.07035790761700833;-0.0265116753339451;6.706367739840052e-05;0.0224329560517997;30.0;53.7108838;86.83742204
2.743767185211353;0.699284994354966;3.394330214875708;-0.0346691138982359;0.01772894522740866;0.0071377587437544;2.782275467930841;0.5011426174025377;0.25114392297706634;3.4910220485940457;1.3441961399046924;-0.9707351891506067;0.001000548476906474;0.07035790761700833;-0.0265116753339451;0.0001344392788777063;0.0316100744366269;30.0;53.71053386;86.8373281
2.4658507804139997;1.0122817593718834;4.788148303466475;-0.0122361578464362;0.016639850034352182;0.0071377587437544;2.4790054361403713;1.047045791314519;1.0963048891094471;4.996269168955012;2.5172637328146403;-0.9707351891506067;0.0008929346689881429;0.07035790761700833;-0.0418068726419904;0.0002888416989344479;0.040787192821454;30.0;53.71021052;86.83725052000001
3.394330214875708;0.989574056353974;4.788148303466475;0.0071377587437544;0.01729853081329523;0.0071377587437544;3.4910220485940457;1.0895800813431813;1.1871847536598135;4.996269168955012;2.5172637328146403;-0.9707351891506067;0.0003620398832576881;0.0499643112062812;-0.0418068726419904;0.0002921688891309563;0.040787192821454;0.0;53.709915;86.83718028
4.788148303466475;0.8884615949030021;4.788148303466475;0.0020393596410727;0.007630585065308439;0.0071377587437544;4.996269168955012;0.9871242384685236;0.9744142621720626;4.996269168955012;2.5172637328146403;-0.9707351891506067;7.725319737525377e-05;0.023452635872336036;-0.0418068726419904;0.00024725182147808497;0.040787192821454;0.0;53.70965984000001;86.83710943999999
4.281812834708309;0.5940588215980191;4.788148303466475;0.0040787192821454;0.006968226598662214;0.0193739165901906;4.53718994770239;0.5834096608435606;0.3403668323655984;4.996269168955012;1.5052471203609659;-0.979912307535434;0.00011957089768709734;0.028551034975017653;-0.058121749770572;0.00010314289609179107;0.0244723156928724;0.0;53.709451560000005;86.83703940000001
3.900460544476284;1.325493995320788;4.788148303466475;0.0040787192821454;0.012496799184136686;0.0305903946160905;4.239327497403046;1.0309388355768514;1.0628348827005543;4.996269168955012;2.6978312967818;-0.986030386458652;0.00014951560945567508;0.02651167533394505;-0.0239624757826042;0.0005141548600542883;0.0586315896808402;0.0;53.70924036;86.8369562
3.413375032930309;1.5473742745049068;4.281812834708309;0.0193739165901906;0.019579445739193298;0.0504741511165493;3.864137891792319;1.1667708330530864;1.361354176863393;4.53718994770239;2.5585397312356557;-0.9870500662791885;0.00010792573199931184;0.02549199551340864;-0.0152951973080452;0.0007165935885731323;0.05914142959110841;0.0;53.709023;86.83686172
1.355071324769555;1.5969746654441128;3.900460544476284;0.0305903946160905;0.021296422555481583;0.0550627103089629;2.2984378721732117;1.1166471499781896;1.2469008575544136;4.239327497403046;2.371888666825718;-0.9870500662791885;0.00011156484627674382;0.02549199551340864;-0.0050983991026817;0.0007696206823299958;0.062200469052717505;30.0;53.70877621999999;86.83678902
0.8731258043964236;2.382934497233332;3.413375032930309;0.0504741511165493;0.039642471000625734;0.1213418986438258;1.9786502164667343;0.9539577596821315;0.9100354072577513;3.864137891792319;1.9966990612149909;-0.9931681452024064;6.415238597649067e-05;0.01937391659019072;0.0560823901294993;0.0017823861857392265;0.116243499541144;30.0;53.70850402;86.83675746
0.2936726095983958;1.8008301615469273;1.355071324769555;0.0550627103089629;0.0517915547190994;0.1514224533496482;1.8674388305773282;0.7304126099570989;0.5335025807843411;3.656896522848395;1.7894576922710668;-0.9931681452024064;7.0390867594945e-05;0.01937391659019072;0.0560823901294993;0.0010220712384901131;0.0800448659121035;30.0;53.70822644;86.83682804
-3.150888125104564;1.6007853198885467;0.8731258043964236;0.1213418986438258;0.0456792091181435;0.1514224533496482;3.656896522848395;0.7806652242318084;0.6094381923248997;3.656896522848395;1.878763963773971;-0.9890894259202612;0.00010626213690105915;0.022432956051799735;0.0560823901294993;0.0008071555467343646;0.0713775874375445;30.0;53.707992219999994;86.83705461999999
-0.91386428085779;1.9420834423930562;2.1382228731855406;0.1514224533496482;0.06646091283794488;0.1514224533496482;2.1095986161450613;0.7723254516678484;0.5964866032939461;3.656896522848395;1.878763963773971;-0.9829713469970428;0.00017342978899308572;0.028551034975018097;0.0560823901294993;0.0011652443916336393;0.0927908636688079;30.0;53.7078135;86.83742885999999
0.2358192155100524;2.0258900656914673;2.1382228731855406;0.061180789232181;0.08483864791440748;0.1514224533496482;1.778132559074424;0.8506146674320072;0.7235453124504643;3.656896522848395;2.1587102209546387;-0.9829713469970428;0.000167191307374631;0.028551034975018097;0.0560823901294993;0.0012693230599681844;0.0927908636688079;30.0;53.707720640000005;86.83793503999999
2.1382228731855406;1.1196427782823002;2.1382228731855406;-0.020393596410727;0.08602829014930362;0.1514224533496482;2.6275931570960296;0.6902127250078348;0.476393605762741;2.6275931570960296;1.8482931517766934;-0.9829713469970428;0.00017394966246128896;0.029570714795554287;0.0163148771285816;0.0003784678848529134;0.0530233506678902;0.0;53.70769294;86.83870606
1.0524054347571776;1.119041113181491;2.855791425559649;-0.0418068726419904;0.047557980516108954;0.061180789232181;1.4981863018937565;0.8555464861686685;0.7319597899955557;2.883392181445727;2.104092176126391;-0.9829713469970428;0.00012820079725929003;0.029570714795554287;-0.0040787192821454;0.0003784678848529124;0.0458855919241358;0.0;53.70769722;86.8395193
0.4609798720225416;1.2263306291839606;3.4137845293003632;-0.0520036708473539;0.03541828170278054;0.0326297542571632;0.7793000053193361;1.0761253613554187;1.1580457933523303;3.4164667692997583;2.637166763980422;-0.9737942286122158;0.0002326953643683985;0.03874783318038133;-0.0081574385642908;0.00043908513124555867;0.049964311206281205;0.0;53.70769901999999;86.84032494
2.855791425559649;1.3053042705738969;3.4137845293003632;-0.0509839910268175;0.03712110740297106;0.0326297542571632;2.883392181445727;1.1161249141677287;1.2457348240259196;3.4164667692997583;2.637166763980422;-0.9737942286122158;0.0002108606787038088;0.03874783318038133;-0.0081574385642908;0.0005045891882393282;0.049964311206281205;30.0;53.70768399999999;86.84108304
3.4137845293003632;1.433772602660905;4.331410155931608;0.0326297542571632;0.03681171256844636;0.0326297542571632;3.4164667692997583;1.3052202809070264;1.703599981691017;4.331450910978398;3.5521509056590617;-0.9737942286122158;0.00021127657747837226;0.03874783318038133;-0.0081574385642908;0.0006152182622732494;0.0672988681553992;0.0;53.70764792;86.84177912
2.963930704564367;0.5990369632342818;4.331410155931608;-0.0020393596410727;0.03010560420366559;0.0326297542571632;2.964081597668413;0.5937785881207571;0.3525730117106798;4.331450910978398;1.4480587295326708;-0.9737942286122158;0.00014639636864644776;0.030590394616090477;-0.0499643112062812;0.00010740585853107065;0.025491995513408805;0.0;53.70759464;86.84225319999999
4.331410155931608;0.5391041247770657;4.331410155931608;0.003059039461609;0.015440659717725713;0.0326297542571632;4.331450910978398;0.539017332066026;0.2905396842675765;4.331450910978398;1.3673693133099847;-0.9737942286122158;0.00012892862011477607;0.030590394616090477;-0.0520036708473539;8.910631245027119e-05;0.023452635872336106;0.0;53.7075374;86.84267212
3.071748089357422;0.6382630863061941;4.331410155931608;0.0010196798205363;0.003718687168107136;0.003059039461609;3.0718981157123477;0.638173558041592;0.40726549018346525;4.331450910978398;1.6242692773914755;-0.9880697460997246;3.7222940323498215e-05;0.016314877128581595;-0.0469052717446721;0.00012456168298182003;0.028551034975017903;0.0;53.707484480000005;86.84304415999999
3.524993006963204;0.6253266257311473;4.331410155931608;-0.0061180789232181;0.014395192406714366;0.003059039461609;3.525548573990753;0.6251076499337386;0.39075957400568145;4.331450910978398;1.6242692773914755;-0.9880697460997246;0.0002453802769925878;0.03874783318038133;-0.0469052717446721;0.00011769935320152038;0.028551034975017903;0.0;53.70743762000001;86.8434069
2.7067036820721144;0.290507914984212;3.524993006963204;-0.0040787192821454;0.013661426539180614;0.0010196798205363;2.7071816335869223;0.2905742759005898;0.0844334098151521;3.525548573990753;0.8183669404038305;-0.9880697460997246;0.00026024865818323744;0.03874783318038133;-0.0469052717446721;2.620162279752417e-05;0.014275517487508903;0.0;53.707392819999995;86.84377681999999
3.067979158820529;0.2999872300910076;3.524993006963204;-0.0326297542571632;0.012308173245238451;-0.0040787192821454;3.0692545504420132;0.3050451539162807;0.09305254592780737;3.525548573990753;0.8183669404038305;-0.99214846538187;0.00035174638858723347;0.040787192821454266;-0.0469052717446721;2.994471176859658e-05;0.014275517487508903;0.0;53.707342340000004;86.84417178
3.121556771029597;0.34727099260265554;3.2759356019074324;-0.0193739165901906;0.02105830164990667;0.020393596410727;3.124521260812603;0.3176554402078778;0.10090497869366062;3.31710629367964;0.7736029921340304;-0.9880697460997246;0.0004021741150030719;0.04486591210359958;-0.0418068726419904;4.969990356036855e-05;0.017334556949117896;0.0;53.70728842;86.84458378
3.2759356019074324;0.43163306410769814;3.2759356019074324;-0.0254919955134087;0.03873844025408321;0.0591414295911083;3.31710629367964;0.37043719310448486;0.13722371403512942;3.31710629367964;0.8283753115922932;-0.9880697460997246;0.0003693181118125439;0.04486591210359958;-0.040787192821454;7.15345892249586e-05;0.018354236769654295;0.0;53.70723342;86.8450203
2.4223191823993675;1.026359190971815;3.2759356019074324;0.020393596410727;0.047461687051032986;0.0825940654634444;2.5435033015456097;0.9067835323503025;0.8222563745416921;3.31710629367964;2.3102206904965863;-0.9880697460997246;0.00029767954789396215;0.04486591210359958;-0.0122361578464362;0.00033791775433295653;0.0469052717446721;30.0;53.70718572;86.84548972
2.3403590653576107;1.2056579660623552;3.880162155588588;0.0591414295911083;0.04137563692316396;0.0825940654634444;2.488730982087347;1.0963509017413038;1.2019852997489697;3.9251206817931417;2.9182350786100884;-0.9880697460997246;0.0003519543379745151;0.04486591210359958;-0.0122361578464362;0.00044896272714144326;0.05506271030896301;30.0;53.70716503999999;86.84596056
0.6893810607308988;1.177100013931539;3.880162155588588;0.0825940654634444;0.022578483627590063;0.0825940654634444;1.0068856031830535;1.0691020589121352;1.1429792123701663;3.9251206817931417;2.9182350786100884;-0.9666564698684612;0.00028437078710793194;0.046905271744672294;-0.0122361578464362;0.0004060211786677503;0.05506271030896301;30.0;53.70721113999999;86.8464009
3.880162155588588;1.17728122172589;3.880162155588588;0.0469052717446721;0.018054380758260106;0.0825940654634444;3.9251206817931417;1.0709886401032316;1.1470166672301694;3.9251206817931417;2.9182350786100884;-0.9666564698684612;0.0002817714197669089;0.046905271744672294;-0.0122361578464362;0.0004060211786677503;0.05506271030896301;30.0;53.70734660000001;86.84679236
3.073858779597158;1.2441001441429331;3.880162155588588;0.058121749770572;0.04997159410278604;0.0825940654634444;3.113411977980809;1.1533673899956394;1.3302563363053534;3.9251206817931417;2.9182350786100884;-0.9666564698684612;0.0004764120462626779;0.056082390129499116;-0.0122361578464362;0.0004484428536732398;0.05506271030896301;0.0;53.70756845999999;86.84709102
2.4090309735019435;0.942681832476189;3.880162155588588;0.0336494340776996;0.04745949629255365;0.058121749770572;2.4653308987630442;0.9279242181905871;0.8610433547046124;3.9251206817931417;2.2646496034915966;-0.9666564698684612;0.0004536415883553201;0.056082390129499116;-0.0285510349750178;0.0002646155953161196;0.03874783318038141;0.0;53.70785628;86.84730716
1.597241032387246;1.1439047257781838;4.566331967249941;-0.0489446313857448;0.046924109871508864;0.058121749770572;1.6604710783015453;1.1181449731787447;1.2502481810448955;4.569156510448454;2.9086854321469087;-0.9666564698684612;0.00044532361286404794;0.056082390129499116;-0.0285510349750178;0.0003943760129799681;0.0509839910268176;0.0;53.708167919999994;86.84745496000001
3.693833025693813;1.2890264164622638;4.566331967249941;-0.0265116753339451;0.032923186073137496;0.0336494340776996;3.706123437102015;1.2592645224971741;1.5857471376200358;4.569156510448454;2.9086854321469087;-0.9931681452024064;0.00014587649517824167;0.029570714795553954;-0.0285510349750178;0.00050614880864394;0.0509839910268176;0.0;53.70851588000001;86.84757252
4.566331967249941;1.2832757548295315;4.684820362074642;-0.0356887937187722;0.010872866534162721;-0.0214132762312633;4.569156510448454;1.2569998339925257;1.580048582657237;4.6874817134151145;3.0270106351135695;-0.9952075048434792;0.00013381543071589597;0.02753135515448113;-0.0285510349750178;0.000489928756435958;0.0530233506678903;0.0;53.7088166;86.84767356
4.395295803822118;0.38529233515476746;4.684820362074642;-0.0397675130009177;0.009743146067577564;-0.0163148771285816;4.395518519876295;0.38240206741950117;0.14623134116670872;4.6874817134151145;0.9813582763130997;-0.9952075048434792;5.4274790080607955e-05;0.015295197308045294;-0.0652595085143265;4.075807990724835e-05;0.016314877128581595;0.0;53.70907251999999;86.847781
4.684820362074642;0.2463013937235717;4.989756769511927;-0.0214132762312633;0.01781378019938623;0.0050983991026817;4.6874817134151145;0.2682763749724512;0.07197221336835924;5.061944109989629;0.6664255901133345;-0.9952075048434792;3.930243419631744e-05;0.012236157846436502;-0.0774956663607627;1.7883647306248853e-05;0.010196798205363497;0.0;53.70929314;86.84788386
4.398130936961033;0.6690925077071205;6.009002902086961;-0.0163148771285816;0.017714277445277135;0.0050983991026817;4.431684468835849;0.7207592038595017;0.5194938299481826;6.141899900152704;1.746381380276409;-0.9952075048434792;2.8073167283100224e-05;0.012236157846436502;-0.0774956663607627;0.0001422373809007696;0.02855103497501779;0.0;53.709502959999995;86.84798616
4.989756769511927;0.6150320872636911;6.009002902086961;0.0050983991026817;0.011882661064103097;0.0050983991026817;5.061944109989629;0.652368707636934;0.4255849307038835;6.141899900152704;1.710215431316855;-0.9931681452024064;4.699656152574486e-05;0.014275517487509326;-0.0774956663607627;0.00012352193604540668;0.02855103497501779;0.0;53.70965295999999;86.84806448
6.009002902086961;0.5947919481936134;6.009002902086961;-0.0010196798205363;0.011768359780771809;0.0050983991026817;6.141899900152704;0.6154869335822433;0.37882416541047276;6.141899900152704;1.710215431316855;-0.9931681452024064;0.00027844422957039994;0.04486591210359947;-0.0774956663607627;0.00011354036545587968;0.02855103497501779;0.0;53.7098067;86.8481363
4.811410127553705;0.5239937441889099;6.009002902086961;-0.0193739165901906;0.011536360251845476;0.0050983991026817;5.08183754206048;0.5105503377382975;0.26066164736468966;6.141899900152704;1.0799557901630745;-0.9931681452024064;0.00028572245812526534;0.04486591210359947;-0.0836137452839808;8.962618591847135e-05;0.022432956051799693;30.0;53.70995882;86.84822186
4.940535636744052;0.5739539416469327;6.009002902086961;0.0050983991026817;0.025536822012845645;0.0050983991026817;5.269464911577421;0.543380979316096;0.2952628886825195;6.303537951204086;1.2217004091436054;-0.9931681452024064;0.0002695024059172855;0.04486591210359947;-0.0836137452839808;0.00010740585853106577;0.023452635872336106;0.0;53.710106399999994;86.84829776000001
5.6644801813033;0.5577092388114527;5.9956257785588685;-0.0152951973080452;0.024297495971664675;0.0050983991026817;5.959077708083234;0.5596024389518925;0.31315488968090666;6.303537951204086;1.2217004091436054;-0.9901091057407974;0.00039323229134996247;0.047924951565208485;-0.0836137452839808;9.617659161784835e-05;0.023452635872336106;0.0;53.71024998;86.84837478
5.9956257785588685;0.8331247720577901;7.243716504035725;-0.0601611094116447;0.02535293979182843;0.0050983991026817;6.303537951204086;0.7935445517145188;0.6297129555557965;7.462232775483522;2.1927678639061012;-0.9697155093300704;0.000716073715104967;0.0683185479759354;-0.0897318242071989;0.0001488917612937858;0.0336494340776996;0.0;53.710394959999995;86.8484532
5.934738967703473;0.8877121883373946;7.651967301000719;-0.0346691138982359;0.017549160736752268;-0.0152951973080452;6.226204998853814;0.8557221581028535;0.7322604118682049;7.900911753694991;1.941834045611757;-0.9635974304068522;0.0006553524940186751;0.054043030488426735;-0.1009483022330988;0.00016511181350176556;0.028551034975017806;0.0;53.71052821999999;86.84853014000001
7.243716504035725;0.8363499303020137;7.651967301000719;-0.0438462322830631;0.013786433185403022;-0.023452635872336;7.462232775483522;0.8143155941952259;0.6631098869495239;7.900911753694991;1.6747067548411767;-0.9635974304068522;0.0004479229802050672;0.054043030488426735;-0.1029876618741715;0.00015928923065787416;0.026511675333945106;0.0;53.71065060000001;86.84860132
7.651967301000719;0.7685022757700452;7.651967301000719;-0.023452635872336;0.007852196719967222;-0.023452635872336;7.900911753694991;0.7340370091643935;0.5388103308230079;7.900911753694991;1.6747067548411767;-0.9635974304068522;0.0002121083750274917;0.035688793718772205;-0.1029876618741715;0.00014369302661173866;0.026511675333945106;0.0;53.710764319999996;86.84868431999999
7.508429827727401;1.1032151703841868;7.651967301000719;-0.0336494340776996;0.015474292211762457;-0.023452635872336;7.79950012570676;0.9777481646989227;0.9559914735721116;7.900911753694991;2.3416611901768203;-0.9635974304068522;0.00019672012036863794;0.035688793718772205;-0.0866727847455898;0.00032835208251798633;0.0428265524625268;0.0;53.710886779999996;86.84880165999999
6.283661333674969;1.1873124168448783;7.651967301000719;-0.040787192821454;0.01574076538629187;-0.023452635872336;6.66328361415817;1.0433890228923615;1.0886606530922767;7.900911753694991;2.3416611901768203;-0.9635974304068522;0.0005341180012333805;0.06220046905271759;-0.0866727847455898;0.00036214385795128076;0.0428265524625268;0.0;53.7109952;86.84894080000001
5.012518939935256;1.089036171696848;7.508429827727401;-0.0652595085143265;0.0162733999122308;-0.0336494340776996;5.55925056351817;0.940518193415731;0.8845744721459903;7.79950012570676;2.2402495621885894;-0.9819516671765066;0.0003405171216740201;0.04384623228306317;-0.0866727847455898;0.00032720836088793786;0.0428265524625268;0.0;53.7111024;86.84910432
5.448169903376506;0.9283378590071706;6.283661333674969;-0.0336494340776996;0.014485196987523343;-0.0336494340776996;6.034594586668873;0.7708917625255819;0.5942741095297982;6.66328361415817;2.104252585483761;-0.986030386458652;0.000237374225582248;0.03976751300091774;-0.0662791883348628;0.00026274405083057784;0.0438462322830631;0.0;53.71120984;86.8492988
4.877597067209015;0.6518362173444445;5.448169903376506;-0.0652595085143265;0.015901775213311556;-0.0336494340776996;5.5640744761048975;0.5520983417712184;0.30481257898652914;6.034594586668873;1.4755635579944633;-0.9809319873559702;0.0003833546954540751;0.04486591210359958;-0.0662791883348628;0.00013235978500488396;0.03161007443662689;0.0;53.71131532;86.84954252
3.731740618400188;0.68126387458387;5.448169903376506;-0.0571020699500356;0.014993108005068347;-0.0336494340776996;4.55903102867441;0.5906137208388192;0.34882456724307476;6.034594586668873;1.4755635579944633;-0.9768532680738248;0.0004834823254302671;0.04894463138574501;-0.0662791883348628;0.00015668986331685578;0.03161007443662689;0.0;53.711400360000006;86.84978115999999
5.105325293041682;0.5700552906679688;5.105325293041682;-0.0346691138982359;0.013688038498664422;-0.0346691138982359;5.704122648823012;0.5100462739056483;0.26014720152503557;5.704122648823012;1.1450916201486026;-0.9768532680738248;0.0003275202849689078;0.03772815335984514;-0.0662791883348628;9.180965448493179e-05;0.021413276231263392;0.0;53.71149606;86.85009701999999
4.295379987807645;0.537503572631386;5.105325293041682;-0.0346691138982359;0.011948106727384465;-0.0254919955134087;4.987065237309648;0.5093320675645426;0.25941915504957186;5.704122648823012;1.2867272267774394;-0.9768532680738248;0.0002638877724606725;0.03772815335984514;-0.0662791883348628;7.122266514403336e-05;0.021413276231263392;0.0;53.71158646;86.85043318000001
4.056995210738604;0.47281059660568253;5.105325293041682;-0.0438462322830631;0.0065052056317887255;-0.0254919955134087;4.706371707565141;0.5109296391083649;0.26104909611940397;5.704122648823012;1.2867272267774394;-0.9768532680738248;0.00027366139366291587;0.03874783318038133;-0.0683185479759355;5.593838517882018e-05;0.019373916590190693;0.0;53.711675760000006;86.85076312
3.901873219554447;0.1432659203472687;4.295379987807645;-0.0254919955134087;0.007513871082672294;-0.0254919955134087;4.417395422045573;0.2449854122596633;0.06001785222003719;4.987065237309648;0.5956258752700991;-0.9768532680738248;0.0002141878689003218;0.03874783318038133;-0.0683185479759355;4.366937132931803e-06;0.005098399102681797;0.0;53.711761939999995;86.8510797
4.1324116504678;0.7371247864450211;5.672721086663008;-0.0336494340776996;0.007513871082672294;-0.0254919955134087;4.548838897514264;0.6305154405283397;0.39754972074464634;5.89787643112697;1.5064370690874211;-1.0013255837666972;2.786521789582078e-05;0.014275517487508882;-0.0683185479759355;0.00016927080124740584;0.03161007443662689;0.0;53.7118418;86.85138995999999
4.049000874126467;0.8989885184393352;5.672721086663008;-0.0428265524625267;0.007785707828621273;-0.023452635872336;4.391439362039549;0.77861097758039;0.6062350544086905;5.89787643112697;1.5064370690874211;-1.0013255837666972;2.890496483223005e-05;0.014275517487508882;-0.0683185479759355;0.0002493313153509019;0.03161007443662689;0.0;53.71190136;86.85161848
5.672721086663008;0.7966638929717332;5.672721086663008;-0.0346691138982359;0.008512952570507956;-0.023452635872336;5.89787643112697;0.7052893799014607;0.49743310940178687;5.89787643112697;1.5064370690874211;-1.00336494340777;2.4122128924748343e-05;0.012236157846436058;-0.0713775874375446;0.00019100151221835426;0.02855103497501779;0.0;53.71196354;86.85183938
5.651464487005296;0.6727953665568503;5.672721086663008;-0.023452635872336;0.009521866038486159;-0.023452635872336;5.841012798050389;0.6254871963628502;0.3912342328138587;5.89787643112697;1.5064370690874211;-1.00336494340777;1.642800159532176e-05;0.010196798205363455;-0.0713775874375446;0.00013797441846149301;0.02855103497501779;0.0;53.7120229;86.85207282000002
5.163046571566658;0.44094938034807424;5.672721086663008;-0.0448659121035994;0.017083821734319982;0.0010196798205363;5.3184212540175375;0.4449849135952532;0.19801157332737496;5.89787643112697;0.926706668338797;-1.00336494340777;1.6947875063526203e-05;0.010196798205363455;-0.0836137452839808;5.7498005583433087e-05;0.016314877128581595;0.0;53.712085460000004;86.85230434
4.8287761647523215;0.38322701725430786;5.651464487005296;-0.0265116753339451;0.016838616022665016;0.0010196798205363;5.000882184172101;0.37930860540577516;0.14387501813487402;5.841012798050389;0.8698430352622166;-1.0023452635872336;2.1314812196444102e-05;0.011216478025899868;-0.0836137452839808;4.216173827139983e-05;0.015805037218313403;0.0;53.71215214;86.85253486
4.739666150817926;0.28051212055698294;5.40402723319637;0.0010196798205363;0.016816990417529074;0.0010196798205363;4.971169762788173;0.2806755984721055;0.07877879157767459;5.6108170587250195;0.6396472959368467;-1.0013255837666972;2.6305597491207186e-05;0.01223615784643628;-0.0836137452839808;2.110686280911686e-05;0.011216478025899895;0.0;53.712224219999996;86.85277590000001
5.40402723319637;0.27894829644079716;5.40402723319637;-0.0142755174875089;0.010537787851750016;0.0010196798205363;5.6108170587250195;0.28779954872142843;0.08282858024425786;5.6108170587250195;0.6396472959368467;-1.0013255837666972;2.6981432999873456e-05;0.01223615784643628;-0.0836137452839808;2.079493872819413e-05;0.011216478025899895;0.0;53.712306680000005;86.85305292000001
5.2352054111918;0.3065287191835659;5.40402723319637;-0.0224329560517997;0.011230374142762135;0.003059039461609;5.456824898346187;0.2768519932669238;0.0766470261758688;5.6108170587250195;0.6396472959368467;-1.0013255837666972;2.6981432999873456e-05;0.01223615784643628;-0.0836137452839808;2.526585055475303e-05;0.011216478025899895;0.0;53.71239042;86.85332098
5.141221071931473;0.2784177054400101;5.40402723319637;-0.0163148771285816;0.012910129120437673;0.0071377587437544;5.413777086186458;0.21795589174990754;0.04750477074849742;5.6108170587250195;0.5644160844143586;-1.0013255837666972;5.6458258647072314e-05;0.016314877128581706;-0.0836137452839808;1.9183330976760172e-05;0.011216478025899895;0.0;53.71247438;86.85358414
4.715913592773112;0.38753110249346506;5.2352054111918;0.003059039461609;0.02325898387749621;0.0071377587437544;5.046400974310661;0.30129605202994003;0.09077931096882833;5.456824898346187;0.7369144849040028;-0.9982665443050882;7.039086759495322e-05;0.01937391659019072;-0.0744366268991536;4.7256498259804316e-05;0.017334556949117993;0.0;53.7125579;86.8538571
4.868033404625347;0.8325920573623429;5.141221071931473;0.0071377587437544;0.030802095374718532;0.0071377587437544;5.230187954006548;0.7187199580952786;0.5165583781644789;5.413777086186458;1.8126714325314954;-0.9982665443050882;6.243680353142514e-05;0.01937391659019072;-0.0535331905781584;0.00021686521726153011;0.03670847353930871;30.0;53.71263123999999;86.85413523999999
4.258888250838117;0.8239492781841611;4.868033404625347;-0.0509839910268175;0.03451431681264814;0.0071377587437544;4.719910413442184;0.732875855750245;0.537107019941654;5.230187954006548;1.6290823003515862;-0.9982665443050882;5.4794663548818374e-05;0.01937391659019072;-0.0535331905781584;0.00021527960318350634;0.0331395941674314;0.0;53.71265573999999;86.85436966
3.027161540878925;1.00231433312239;5.401938619267525;-0.0601611094116447;0.02825267638793234;0.0071377587437544;3.601105653654962;0.8721378189908691;0.76062437531415;5.612758546096382;2.0116528924414196;-0.9911287855613338;0.00012341796135181485;0.02651167533394516;-0.0535331905781584;0.0002979394846280255;0.0402773529111859;0.0;53.71263527999999;86.85455400000001
3.333374490634832;0.9356511910415304;5.401938619267525;-0.061180789232181;0.00919409734177665;-0.0418068726419904;3.820538395551429;0.7977892277231253;0.6364676518710607;5.612758546096382;2.0116528924414196;-0.9911287855613338;8.785861612662566e-05;0.022432956051799735;-0.0535331905781584;0.0002493313153509028;0.0402773529111859;0.0;53.71257264;86.85466032
5.401938619267525;0.9313037747900456;5.401938619267525;-0.0428265524625267;0.014822230859868616;-0.0418068726419904;5.612758546096382;0.800420521922461;0.640673011914625;5.612758546096382;2.0116528924414196;-0.986030386458652;0.0001427572543690235;0.027531355154481463;-0.0535331905781584;0.0002482395810676733;0.0402773529111859;0.0;53.71247426;86.85467969999999
4.318844000275948;0.9082241825122749;5.401938619267525;-0.0418068726419904;0.021611439652067427;-0.020393596410727;4.515143928573203;0.8991040835137571;0.8083881529911131;5.612758546096382;2.3979784437687166;-0.986030386458652;0.0001427572543690235;0.027531355154481463;-0.0550627103089629;0.00023623050395214895;0.0387478331803814;0.0;53.71232901999999;86.85453446
3.892548411606175;1.1291753587993236;5.401938619267525;-0.0774956663607627;0.03353026039772293;0.0137656775772407;4.024621050837555;1.1926042090004245;1.4223047993255282;5.612758546096382;3.098861494761242;-0.986030386458652;8.453142593011733e-05;0.02447231569287245;-0.0428265524625267;0.0003792996824020338;0.050983991026817596;0.0;53.71218064;86.85427344
3.1183524689863105;0.781004696899672;4.318844000275948;-0.020393596410727;0.03533745987797183;0.0137656775772407;3.214780102327665;0.8471057030781673;0.7175880721875563;4.515143928573203;2.0012468772380636;-0.986030386458652;7.61094757452039e-05;0.02447231569287245;-0.0428265524625267;0.0001827875114207242;0.0326297542571633;0.0;53.7120276;86.85393096
2.458810035980091;0.8191891382802847;3.892548411606175;0.0137656775772407;0.0344275982339677;0.0137656775772407;2.5138970513351397;0.8690328013379186;0.7552180098012302;4.024621050837555;2.3522829811279378;-0.986030386458652;0.00011541190994146586;0.02651167533394505;-0.0295707147955541;0.0001968240950622466;0.037728153359845105;0.0;53.711868679999995;86.8535314
2.7429375232635644;0.857881515530202;3.1183524689863105;-0.0040787192821454;0.020097007176395572;0.0142755174875089;2.7540347946700416;0.8796382186768325;0.773763395756951;3.214780102327665;2.1927583632319596;-0.9972468644845518;4.522899173385579e-05;0.015295197308045294;-0.0173345569491179;0.00022739265499267206;0.037728153359845;0.0;53.71170128;86.85308752
1.6720527059068333;0.7692260386464521;2.7429375232635644;-0.0305903946160905;0.022719647149114584;0.0285510349750178;1.6723380697096177;0.7468903808402844;0.557845240991745;2.7540347946700416;1.7320130555743358;-0.9829713469970428;0.00011260459321316209;0.029570714795554287;-0.0173345569491179;0.0001814358404033922;0.0305903946160906;0.0;53.711534740000005;86.85265986
0.9916823065060144;0.782527216194379;2.7429375232635644;0.0142755174875089;0.032252361503158626;0.0545528703986948;1.0220217390957058;0.7772053606181745;0.6040481725736266;2.7540347946700416;1.7320130555743358;-0.9829713469970428;0.00011598377075649176;0.029570714795554287;-0.0173345569491179;0.00018736239794092405;0.0305903946160906;0.0;53.71136208;86.85221584
1.1880377149089;0.6949872290283875;2.520179342401216;0.0285510349750178;0.04055134729300277;0.07545630671969;1.3431993995277012;0.7655972770353913;0.5861391906040057;2.711889666087522;1.689867926991816;-0.9829713469970428;0.0002594688479809409;0.04180687264199057;-0.0173345569491179;0.00015461036944403896;0.0265116753339452;0.0;53.71118342;86.85177605999999
2.520179342401216;0.7877929846098595;2.615040366730855;0.0545528703986948;0.023816673595570607;0.07545630671969;2.6449298056532;0.8704378799053982;0.7576621027742045;2.8918984119484694;1.8698766728527636;-0.9829713469970428;0.0002337351113048171;0.04180687264199057;-0.0173345569491179;0.00019703204444952813;0.0285510349750179;30.0;53.71098592;86.85136352
2.414983083172205;0.647665917861288;2.830489122088505;0.07545630671969;0.017603879526874464;0.07545630671969;2.711889666087522;0.6958610635813162;0.48422261980852055;3.1232805353576887;1.7800811358299875;-0.9829713469970428;0.00024356071985388278;0.04180687264199057;-0.020393596410727;0.00013547902581411222;0.029570714795554197;30.0;53.71076187999999;86.85099611999999
2.615040366730855;0.1531844609161805;2.830489122088505;0.0509839910268175;0.03921063369633355;0.07545630671969;2.8918984119484694;0.1900425166500436;0.0361161581346821;3.1232805353576887;0.47835072970448866;-0.9946976649332108;0.00012445770828822597;0.030080554705822604;-0.0433363923727949;6.8103424334927605e-06;0.006627918833486297;30.0;53.71052428;86.85072268
2.830489122088505;0.8935475083504091;2.830489122088505;0.0652595085143265;0.04005797607168982;0.07545630671969;3.1232805353576887;0.6426017931280055;0.412937064531328;3.1232805353576887;1.6063688642092646;-0.9992862241256244;9.63845410051812e-05;0.02549199551340897;-0.0112164780258998;0.00025135882187690104;0.0387478331803814;30.0;53.71019286000001;86.85056022
2.5940154582643813;1.372868439766186;2.830489122088505;-0.023452635872336;0.03582618603270719;0.0652595085143265;2.937171507422827;0.8504372880891319;0.7232435809723972;3.1232805353576887;1.755155481415331;-0.9992862241256244;4.023820643909191e-05;0.015295197308045516;0.003059039461609;0.000587249069683842;0.0530233506678902;0.0;53.709829;86.85049844
0.6429616257671615;1.686983482345047;2.830489122088505;0.0198837565004588;0.03405715335889232;0.0652595085143265;1.516911671148424;0.8659694138488582;0.7499030257217351;3.1232805353576887;1.755155481415331;-0.9952075048434792;7.101471575679774e-05;0.01937391659019072;0.0173345569491179;0.0008837848959477005;0.0672988681553991;0.0;53.70943908;86.85052324
-0.1727497853372755;1.3335260799463104;2.5940154582643813;0.003059039461609;0.015986550502511312;0.0198837565004588;1.3681250539423577;0.7092706566370177;0.5030648643663063;2.937171507422827;1.777942015003751;-0.9952075048434792;7.662934921340545e-05;0.01937391659019072;0.0173345569491179;0.0005518976738459335;0.0632201488732537;30.0;53.70902698;86.85060777999999
-0.9978453460950548;1.5581741045956634;0.6430724826658526;-0.0081574385642908;0.01275619047945021;0.0198837565004588;1.4860310370064282;0.8446603862639701;0.7134511681235991;3.245020005115909;2.085790512696833;-0.9952075048434792;8.598707164108774e-05;0.01937391659019072;0.0550627103089629;0.0007577675672549231;0.0662791883348627;30.0;53.708586960000005;86.85072072
0.6430724826658526;1.4852959055211006;0.6430724826658526;-0.0071377587437544;0.011230374142762041;0.0152951973080452;1.159229492419076;0.9515349244942638;0.9054187125323043;3.245020005115909;2.4543604496017632;-0.9952075048434792;8.598707164108907e-05;0.01937391659019072;0.0550627103089629;0.0006900800416946949;0.0662791883348627;30.0;53.70819506;86.85084082
-3.1061199221619367;1.6043614176553487;0.6899027461393534;0.0152951973080452;0.01150477227088273;0.0152951973080452;3.245020005115909;1.0206994059548835;1.041827277316652;3.245020005115909;2.4543604496017632;-0.9952075048434792;9.20695912190814e-05;0.020903436320995006;0.0550627103089629;0.0008054919516360985;0.0672988681553991;30.0;53.707785179999995;86.85096854
0.2307745261911933;1.6060104456358486;0.6899027461393534;0.0142755174875089;0.02188157819299984;0.0152951973080452;0.7906595555141456;1.0423314877362884;1.0864549303265443;3.245020005115909;2.4543604496017632;-0.9737942286122158;0.00031587511928112417;0.04231671255225844;0.0550627103089629;0.0008054919516360985;0.0672988681553991;30.0;53.70738642;86.85110738
0.6899027461393534;1.540673672323011;0.6899027461393534;0.0091771183848271;0.030277795062254035;0.0479249515652085;0.7908527068900029;1.1705531030347611;1.3701945670243083;3.245020005115909;3.011522717664808;-0.9737942286122158;0.000412727546407633;0.05302335066789021;0.0550627103089629;0.0007436270089197609;0.0672988681553991;30.0;53.706992639999996;86.85124608
-1.0190934980097592;1.2483401757011343;2.4348626113357392;-0.0367084735393086;0.03281563502415958;0.0479249515652085;1.0239506298091265;0.8249027639085634;0.6804645699039871;2.4357164326425216;2.2022191451914206;-0.9737942286122158;0.0005207052657537052;0.05302335066789021;0.0173345569491179;0.00045717672793906997;0.0591414295911083;30.0;53.70652557999999;86.85139854
0.2273413087917269;1.3563000754159154;2.4348626113357392;0.0479249515652085;0.040252175730092085;0.0540430304884266;0.23349728745110102;0.8698690826335319;0.7566722209217023;2.4357164326425216;2.2022191451914206;-0.9737942286122158;0.0004979867951931631;0.05302335066789021;0.0173345569491179;0.0005413962297882017;0.0591414295911083;30.0;53.706066240000006;86.85154847999999
2.4348626113357392;1.5930915154494774;2.742788130094443;-0.020393596410727;0.04024184207335801;0.0540430304884266;2.4357164326425216;1.03066420785118;1.0622687093455003;2.7472923952506147;2.5137951077995138;-0.9737942286122158;0.00040934836886428913;0.05302335066789021;0.0173345569491179;0.0007561039721566695;0.0652595085143264;0.0;53.70563224;86.85169304000001
1.820275839114155;1.1318286174582657;3.1095520008035997;0.0540430304884266;0.03258511272745447;0.0540430304884266;1.8211227410605841;1.1380531974433459;1.2951650802110233;3.1441071429748813;2.9106098555237803;-0.9829713469970428;0.000295808003408434;0.04384623228306317;-0.0040787192821454;0.00039437601297996405;0.0509839910268175;0.0;53.70520518000001;86.85182406000001
2.742788130094443;0.5488841843928615;3.15058409399938;0.0112164780258998;0.027809418751585723;0.0540430304884266;2.7472923952506147;0.5626757887210495;0.3166040432128552;3.1801728111696823;1.3590500701090982;-0.9829713469970428;0.0001254974552246253;0.0305903946160907;-0.0316100744366268;9.80481361033866e-05;0.0234526358723361;30.0;53.704800680000005;86.85195716000001
3.1095520008035997;0.6069592692653065;3.3453589347899477;-0.0050983991026817;0.024468066658081666;0.0540430304884266;3.1441071429748813;0.6202044400792568;0.3846535474940245;3.3734654331089;1.5523426920483157;-0.9768532680738248;0.0001791483971433298;0.03670847353930873;-0.0316100744366268;0.00011052509934029527;0.025491995513408798;0.0;53.70444774;86.85207014
3.15058409399938;0.3771220928770379;3.7754580641623416;0.0091771183848271;0.007944346357003225;0.0112164780258998;3.1801728111696823;0.3822970426926278;0.14615102885152892;3.7982384287503113;1.0509460334996965;-0.9768532680738248;0.00018372328366353274;0.03670847353930873;-0.0479249515652085;4.335744724827089e-05;0.01835423676965431;0.0;53.70411848;86.85216072
3.3453589347899477;0.2822172765929068;3.7754580641623416;-0.0061180789232181;0.0064247920881100335;0.0091771183848271;3.3734654331089;0.27697314660983624;0.07671412394295384;3.7982384287503113;0.65413128577543;-0.9768532680738248;0.0001837232836635319;0.03670847353930873;-0.0550627103089629;2.4434053005626547e-05;0.01121647802589991;0.0;53.703812240000005;86.85222311999999
3.7754580641623416;0.470158454574523;4.371089997752425;0.0020393596410727;0.010611531143671105;0.0091771183848271;3.7982384287503113;0.46548004706977475;0.2166716742200797;4.38810117866532;1.2079283674956374;-0.9768532680738248;0.0001188430748316027;0.027531355154481463;-0.0550627103089629;7.247036146772445e-05;0.021413276231263406;0.0;53.703526;86.85225432
3.5690099574684493;0.3917202169357005;4.371089997752425;-0.0040787192821454;0.008771617484493508;0.0020393596410727;3.587473882619929;0.38967853603145586;0.15184936144361863;4.38810117866532;1.0146357455564199;-0.9768532680738248;0.000360064364078513;0.053023350667890434;-0.0571020699500356;5.749800558343413e-05;0.019373916590190707;0.0;53.703253180000004;86.85225286
4.371089997752425;0.2978114423346674;4.371089997752425;-0.0193739165901906;0.01538669481793736;0.023452635872336;4.38810117866532;0.29994645999861824;0.08996787886570269;4.38810117866532;0.8006272960453908;-0.9911287855613338;0.00022323366724708634;0.03874783318038144;-0.0622004690527174;2.8800990138544114e-05;0.014275517487508903;0.0;53.70304492;86.8522238
3.964646974596651;0.3999281193914886;4.60614011205429;0.0020393596410727;0.025095312697453225;0.0448659121035994;3.9963642873792224;0.41703734131629083;0.17392014405216047;4.689871921769025;1.102398039149096;-0.9911287855613338;0.00023269536436841133;0.03874783318038144;-0.0622004690527174;5.3754916612361114e-05;0.0193739165901907;0.0;53.702843380000004;86.85217586
4.000710343320915;0.27732017096482486;4.60614011205429;0.023452635872336;0.02395054038674009;0.0448659121035994;4.062725591584762;0.28388843904460503;0.08059264582318243;4.689871921769025;0.6935076343898023;-0.9911287855613338;0.00021158850155930987;0.03874783318038144;-0.0693382277964719;2.474597708654853e-05;0.012236157846436196;0.0;53.70264558;86.8521163
4.60614011205429;0.2854817127705757;4.60614011205429;0.0448659121035994;0.01614510938203102;0.0448659121035994;4.689871921769025;0.3132895081401757;0.0981503159107132;4.689871921769025;0.6935076343898023;-0.9911287855613338;0.0002051420705535742;0.03874783318038144;-0.0693382277964719;2.6201622797521232e-05;0.012236157846436196;0.0;53.70244606;86.8520499
4.064694704429643;0.2645856483746868;4.60614011205429;0.0112164780258998;0.012434241812190354;0.0448659121035994;4.146856108635165;0.27316902643673674;0.07462131700439457;4.689871921769025;0.6271463301842628;-0.986030386458652;0.00010678201036925857;0.02549199551340886;-0.0693382277964719;2.7865217895775796e-05;0.012236157846436196;0.0;53.7022503;86.85198213999999
4.419678902980363;0.3091064173256767;4.753729002867823;0.0244723156928724;0.014431261599830074;0.0448659121035994;4.562676324870317;0.32813960267064807;0.10767559884085078;4.939893192990081;0.7930370843549159;-0.986030386458652;9.076990754856597e-05;0.02549199551340886;-0.0703579076170082;3.514344645063903e-05;0.013255837666972595;0.0;53.70205636000001;86.85192132
4.079180656797691;0.43613166736108344;5.070906410249854;0.0326297542571632;0.01702285144084858;0.0326297542571632;4.229003497598613;0.4822308511147015;0.23254659376680942;5.289894722468633;1.1430386138334674;-0.986030386458652;6.893522188397296e-05;0.01937391659019083;-0.0703579076170082;6.477623413829663e-05;0.0188640766799225;0.0;53.701861740000005;86.85187006
4.753729002867823;0.37012250998119584;5.070906410249854;0.0112164780258998;0.01725339235900898;0.0326297542571632;4.939893192990081;0.40165077427432744;0.16132334447516672;5.289894722468633;1.0608912248700202;-0.986030386458652;6.519213291289943e-05;0.01937391659019083;-0.0703579076170082;4.933599213262235e-05;0.0188640766799225;0.0;53.701663180000004;86.85183534000001
5.070906410249854;0.6367478481679055;5.802542368862614;-0.0122361578464362;0.02176246147691752;0.0428265524625267;5.289894722468633;0.6379452360693846;0.40697412422362284;5.974126860385028;1.7451233627864156;-0.986030386458652;9.742428794158391e-05;0.02651167533394505;-0.0703579076170082;0.00014421290007994803;0.03262975425716329;0.0;53.701466260000004;86.85181762
4.599312986394556;0.4674045978967584;5.802542368862614;0.0071377587437544;0.024563492162112607;0.0448659121035994;4.874401293868082;0.4379473512330066;0.19179788245200644;5.974126860385028;1.0997255665169465;-0.9850107066381156;0.00010584623812649724;0.027531355154481463;-0.0805547058223717;7.408196921915772e-05;0.02243295605179979;0.0;53.70126806;86.85181398
5.802542368862614;0.4296663029322698;5.802542368862614;0.0428265524625267;0.02843608961241527;0.0540430304884266;5.974126860385028;0.3956915074672088;0.1565717690816722;5.974126860385028;1.0997255665169465;-0.9850107066381156;0.00010220712384906294;0.027531355154481463;-0.0805547058223717;6.441232271055364e-05;0.02243295605179979;0.0;53.70108186;86.85182234000001
5.199762876201776;0.7347149220188726;6.517153152099946;0.0448659121035994;0.01787496107851695;0.0540430304884266;5.352742733133956;0.6839349440339336;0.4677670076706999;6.616742176736469;1.7423408828683877;-0.9850107066381156;0.00010922541566982497;0.027531355154481463;-0.0805547058223717;0.0001837232836634918;0.034669113898236;120.0;53.700900880000006;86.85184104000001
5.11853764379307;0.5686058672258922;6.517153152099946;0.0540430304884266;0.008208264218414345;0.0540430304884266;5.266629766672133;0.5466008663565038;0.2987725071016805;6.616742176736469;1.3501124100643365;-0.9850107066381156;0.00010938137771028686;0.027531355154481463;-0.0897318242071989;0.00011509998586049445;0.025491995513408805;120.0;53.70073268;86.8518674
6.517153152099946;0.8361768224308792;6.517153152099946;0.0367084735393086;0.018249135424228007;0.0540430304884266;6.616742176736469;0.8368458473487728;0.7003109722248855;6.616742176736469;2.2535682994025157;-0.9850107066381156;7.273029820186029e-05;0.02294279596206794;-0.0749464668094218;0.0002323314529406145;0.04027735291118591;120.0;53.700572120000004;86.8519014
5.863281941782685;0.8754820448950731;6.517153152099946;0.0326297542571632;0.02118015145634423;0.0540430304884266;5.931039153606021;0.8798280627978794;0.7740974200866693;6.616742176736469;2.2535682994025157;-0.979912307535434;0.00011250061851950243;0.028041195064749558;-0.0749464668094218;0.0002596248100213522;0.04027735291118591;120.0;53.70040855999999;86.8519324
4.297824063904289;0.9233998345378955;6.517153152099946;0.0056082390129499;0.014732520930763585;0.0367084735393086;4.363173877333954;0.931054522685265;0.8668625242126866;6.616742176736469;2.2535682994025157;-0.979912307535434;0.0001336074813285989;0.028041195064749558;-0.0749464668094218;0.00029190895239685334;0.04027735291118591;120.0;53.70023678;86.85194494
4.817848154904211;0.7314931966615584;5.863281941782685;0.0050983991026817;0.02047119934736764;0.0326297542571632;4.907479210231975;0.7339982897845178;0.5387534894065968;5.931039153606021;1.950596961857371;-0.979912307535434;8.557117286649538e-05;0.022432956051799624;-0.0683185479759355;0.0001699466367560721;0.03466911389823599;120.0;53.70006378000001;86.85194601999999
4.669564663972476;0.4569478782970483;4.817848154904211;0.0193739165901906;0.01518604196278698;0.0193739165901906;4.748094935753991;0.48038661939607;0.23077130409478464;4.907479210231975;1.1208026774355297;-0.9758335882532884;9.638454100513677e-05;0.021413276231263434;-0.0642398286937901;6.129308190132636e-05;0.01835423676965431;120.0;53.69987968;86.85192576
3.918059550786748;1.080870004248127;4.817848154904211;-0.0224329560517997;0.015186041962786983;0.0193739165901906;3.9804421917486503;1.1126656871801437;1.2380249314280611;4.907479210231975;2.795981653407056;-0.9758335882532884;0.0010624134196228117;0.0795350260018356;-0.0387478331803813;0.0003085968907262181;0.0438462322830631;120.0;53.699685900000006;86.85188558
3.766369518320272;0.9458938565878231;4.669564663972476;0.003059039461609;0.019740748510786294;0.0193739165901906;3.7866765327964456;0.9679299073274923;0.9368883054990078;4.748094935753991;2.6365973789290713;-0.9758335882532884;0.0009568791055773096;0.0795350260018356;-0.0387478331803813;0.00023841397251860778;0.0418068726419904;120.0;53.699491699999996;86.85183986
2.1026598835966754;0.8364548982064165;3.918059550786748;-0.003059039461609;0.022007138000642846;0.003059039461609;2.1114975568249195;0.848078040523372;0.7192363628179622;3.9804421917486503;1.8689446349237309;-0.9758335882532884;0.0009385795594965304;0.0795350260018356;-0.0387478331803813;0.00018351533427621032;0.030080554705822396;120.0;53.699282679999996;86.85180491999999
3.898826518022207;1.2090348737446486;3.898826518022207;-0.0295707147955541;0.03876124769806914;0.0509839910268175;3.899208271405578;1.1748562320914326;1.380287166084078;3.899208271405578;2.797710616866568;-0.9758335882532884;0.0009225674566758329;0.0795350260018356;-0.0173345569491179;0.0004304552316733594;0.0514938309370858;120.0;53.699054880000006;86.85177167999998
2.6583103417856897;1.1993765544943922;3.898826518022207;-0.0520036708473539;0.04200783855988582;0.0509839910268175;2.662654116516611;1.1242934834478768;1.2640358369233613;3.899208271405578;2.797710616866568;-0.9992862241256244;0.0005305828616496307;0.05608239012949956;-0.0173345569491179;0.0004556171075344587;0.0514938309370858;120.0;53.69874682;86.85174522
0.9925160011246524;1.2740550975374403;3.898826518022207;0.0509839910268175;0.04204494905791487;0.0509839910268175;1.1014976545390096;1.1856685967038854;1.4058100212097608;3.899208271405578;2.797710616866568;-0.9732843887019476;0.0004301433075924866;0.057611909860303845;-0.0173345569491179;0.0005201853922854603;0.0514938309370858;120.0;53.69842328;86.851734
1.1034632055080065;1.3771061362738202;2.6583103417856897;0.0295707147955541;0.039104421992618446;0.0509839910268175;1.338141858193913;0.6187976863733117;0.3829105766609634;2.662654116516611;1.5611564619776013;-0.9732843887019476;0.0005840778415278516;0.057611909860303845;0.0214132762312633;0.0006122029961576578;0.0693382277964718;120.0;53.698082039999996;86.8517358
1.2003480534882822;1.0154792299521929;1.2003480534882822;-0.0050983991026817;0.023236621614968346;0.0509839910268175;1.3970537318370708;0.13810396368363573;0.019072704785130973;1.3970537318370708;0.2955560772980612;-0.9732843887019476;0.00042130545863300675;0.057611909860303845;0.0214132762312633;0.0003221136008995337;0.0418068726419903;120.0;53.69773506;86.8517421
-1.1899466044272322;1.2649715446191117;2.276610255652097;-0.0020393596410727;0.015747369441705395;0.0295707147955541;1.383448804084697;0.46070042048480625;0.2122448774348773;2.323423038870727;1.1731095855934812;-0.9732843887019476;0.00042031769904341833;0.057611909860303845;0.0214132762312633;0.0004982467319272265;0.061180789232180996;120.0;53.69737768;86.8517636
0.9935998523739636;1.4515607253926202;2.276610255652097;0.020393596410727;0.050636113053676525;0.020393596410727;1.1503134532772459;0.5484449364711861;0.3007918483408833;2.323423038870727;1.462393056055098;-0.9732843887019476;0.0004943996682625671;0.057611909860303845;0.0214132762312633;0.0006526491519839696;0.061180789232180996;120.0;53.69706344;86.85181800000001
2.276610255652097;1.5247773688128612;2.276610255652097;-0.0020393596410727;0.050016308630287463;0.020393596410727;2.323423038870727;0.5669617888380902;0.3214456700024872;2.323423038870727;1.462393056055098;-0.9992862241256244;0.0009245429758550267;0.07443662689915409;0.0214132762312633;0.0007452906040180148;0.061180789232180996;120.0;53.6967231;86.85186166000001
-0.7968326979606231;1.2028982855195538;2.276610255652097;-0.1080860609768532;0.04874560158389264;0.020393596410727;0.8610299828156291;0.7151531513029591;0.5114440298185531;2.323423038870727;1.7860438557396385;-0.9992862241256244;0.0010976608407671426;0.07443662689915409;0.0142755174875089;0.0004614396903783468;0.0540430304884266;120.0;53.696372339999996;86.85188978
1.685808507888373;1.2692836582356397;2.276610255652097;-0.0254919955134087;0.050397359219110094;0.0265116753339451;1.7525481912659033;0.7814960385660791;0.6107360582944746;2.323423038870727;1.7860438557396385;-1.0003059039461608;0.0009502767125311721;0.07341694707861768;0.0142755174875089;0.0005157144804588986;0.0540430304884266;120.0;53.69599168;86.8519136
0.2770084849710502;0.9157378111735726;1.685808507888373;-0.038237993270113;0.052881484215356045;0.0265116753339451;0.5373791831310885;0.493585468264141;0.24362661448153136;1.7525481912659033;1.215169008134815;-1.0105027021515245;0.0007563639088908824;0.063220148873254;0.0142755174875089;0.00028832182546624025;0.0458855919241357;120.0;53.695597580000005;86.85191886
-0.0549165562674772;0.8638690253853997;1.685808507888373;0.0265116753339451;0.027445303206223338;0.0265116753339451;0.630958996834849;0.6116094194567925;0.37406608196827473;1.7525481912659033;1.215169008134815;-0.968695829509534;0.0019150059074782909;0.10502702151524446;0.0015295197308045;0.00024168917536829417;0.0331395941674313;120.0;53.695207679999996;86.8518976
-0.0867166597987267;0.6489314887682255;1.5071019660253036;0.0132558376669725;0.031195370572122516;0.0265116753339451;0.6941181701775747;0.4811686963531186;0.23152331435015963;1.7124676705535236;1.175088487422435;-0.9534006322014889;0.002424169982237761;0.11012542061792596;0.0015295197308045;0.00012066263197028218;0.0270215152442132;120.0;53.6948336;86.85186656
1.5071019660253036;0.6487450111694671;1.5071019660253036;-0.020393596410727;0.02852370904598629;0.0265116753339451;1.7124676705535236;0.46262644753931725;0.21402322996284867;1.7124676705535236;1.0815086737186745;-0.9534006322014889;0.0021772300848406038;0.11012542061792596;0.0015295197308045;0.00012066263197028228;0.0270215152442132;120.0;53.69445508;86.85183108
0.4284914691175123;0.88471052558804;1.5071019660253036;-0.0438462322830631;0.03428005232681982;0.0458855919241358;1.051379731892216;0.44849672520307254;0.20114931251788037;1.7433550121142194;1.0492368419366447;-0.9534006322014889;0.0011990361670669504;0.08769246456612623;0.0163148771285816;0.00022905625009092496;0.0418068726419903;120.0;53.694101599999996;86.85178479999999
0.2805734361989405;0.8737443053513804;1.5071019660253036;0.0091771183848271;0.036556623713994006;0.0458855919241358;1.4063938688698132;0.2820437034265677;0.07954865064257369;1.7433550121142194;0.6919752802220034;-0.9534006322014889;0.001301971113771449;0.08769246456612623;0.0163148771285816;0.00022333764194067544;0.0418068726419903;120.0;53.69377092;86.8517306
-0.9353260635764624;0.5956696955068842;0.5556499516723188;0.0458855919241358;0.0359962863661372;0.0458855919241358;1.7433550121142194;0.26392104133216004;0.06965431605785175;1.7433550121142194;0.6919752802220034;-0.9462628734577344;0.0017137109005894218;0.09483022330988067;0.0163148771285816;0.00010522238996460819;0.0254919955134087;120.0;53.69345324000001;86.85167403999999
0.0572055326973967;0.6913421041846727;0.888607761846738;-0.0346691138982359;0.03683147876386289;0.0458855919241358;1.3941778039785;0.20964913095108012;0.04395275810854314;1.8744257295924838;0.4802479256139838;-0.9462628734577344;0.0013043625317251924;0.09483022330988067;0.0163148771285816;0.00014265327967533372;0.0316100744366268;120.0;53.69314534;86.8516119
0.5556499516723188;0.8760112000527167;1.3525423346912666;-0.003059039461609;0.03972173178501576;0.0458855919241358;1.6199578900399574;0.2633158328131938;0.06933522781010583;2.0941069359781395;0.6999291319996395;-0.9462628734577344;0.0007354130081221455;0.07443662689915354;0.0163148771285816;0.00023061587049553873;0.039767513000917604;120.0;53.69285482;86.85153642
0.888607761846738;1.5135586615572636;1.3525423346912666;-0.0469052717446721;0.03651393564869899;-0.003059039461609;1.8744257295924838;0.6342661676998577;0.4022935714886639;3.0359372414920704;1.6417594375135705;-0.9462628734577344;0.0009602062957737886;0.07545630671968995;0.0448659121035994;0.0007197128293823518;0.0683185479759354;120.0;53.69257264;86.85142832
1.3525423346912666;1.6677370021859022;1.3525423346912666;-0.0479249515652085;0.04030380427145635;-0.003059039461609;2.0941069359781395;0.5541355522504098;0.30706621026786657;3.0359372414920704;1.415979351452113;-0.9462628734577344;0.0009199680893347585;0.07545630671968995;0.0448659121035994;0.0008685006159824854;0.0683185479759354;120.0;53.6922962;86.85127988
-2.5014563005585244;1.6882780344741983;1.3525423346912666;-0.1040073416947078;0.03385429142669661;-0.0091771183848271;3.0359372414920704;0.4734865559565063;0.22418951867155376;3.0359372414920704;1.1615115118995867;-0.9850107066381156;0.000252450556160172;0.03670847353930873;0.0448659121035994;0.0008874759975719502;0.0683185479759354;120.0;53.69200508;86.85097851999998
-1.4922774059742745;1.6752065195850068;1.3525423346912666;-0.0091771183848271;0.03433006193439892;-0.0091771183848271;2.4792156250324138;0.6717970346932455;0.45131125582263765;3.8763033400230804;1.782196404044941;-0.99214846538187;0.0002032705260680367;0.03670847353930884;0.0530233506678902;0.0008839928453349803;0.07647598654022619;120.0;53.691741320000006;86.85060724
-1.5924033546763798;1.2040505599323816;0.1837697864004524;-0.0499643112062812;0.03431188505599736;-0.0091771183848271;2.7576547663938937;0.5228803989008112;0.2734039115546714;3.8763033400230804;1.3970877149906666;-0.9523809523809524;0.0009453379145831563;0.07647598654022636;0.0530233506678902;0.00046497482996213634;0.0560823901294992;120.0;53.69151398;86.85018022
-2.948108950109317;1.8993324213666856;1.982823953026312;-0.0387478331803813;0.017229270162859276;-0.0091771183848271;3.8763033400230804;0.690091122252739;0.4762257570120449;4.043175434151104;1.5639598091186904;-0.9523809523809524;0.0010243586817502465;0.07749566636076277;0.0530233506678902;0.0011590578973619946;0.0887121443866625;120.0;53.69133226;86.84970666000001
0.1837697864004524;1.8563181144968623;1.982823953026312;-0.0509839910268175;0.01613866808539287;-0.0387478331803813;3.0314083035332025;0.5586554033575599;0.312095859700598;4.043175434151104;1.2855206677572104;-0.9523809523809524;0.0016368736019888302;0.10910574079738955;0.0530233506678902;0.0011083702342120538;0.0887121443866625;120.0;53.691200460000005;86.84921134
1.982823953026312;2.2470424603142;1.982823953026312;-0.0448659121035994;0.01988506373930876;-0.0275313551544814;4.043175434151104;0.7761610208178419;0.6024259302369943;5.172137785087535;2.1407294815543323;-0.9156724788416436;0.003714287980934076;0.1458142143366984;0.0550627103089629;0.001488605688856841;0.0907515040277352;120.0;53.6911439;86.84877589999999
-0.6036727019593886;2.006625147242635;1.982823953026312;-0.0805547058223717;0.022258468392926816;-0.0254919955134087;3.7062457061106415;0.786977670818215;0.6193338543664628;5.172137785087535;2.1407294815543323;-0.9156724788416436;0.004650995995945002;0.15295197308045283;0.0550627103089629;0.001121159121529885;0.0907515040277352;120.0;53.69112454;86.84834182
-3.439708603344257;2.0557949762300924;1.982823953026312;-0.0275313551544814;0.02841963089490361;-0.0254919955134087;5.172137785087535;0.7167103842412655;0.5136737748792625;5.172137785087535;1.872261768998157;-0.9156724788416436;0.003995539527232754;0.15295197308045283;0.0550627103089629;0.0011752259622231547;0.0907515040277352;120.0;53.691115260000004;86.8478103
0.5465433853385159;1.8333651514752825;0.9842193249438648;-0.0254919955134087;0.028162367853091362;-0.0254919955134087;3.676681474241794;0.7792837251536275;0.6072831242893145;5.172137785087535;1.8971386942969808;-0.9156724788416436;0.004069049635636878;0.15295197308045283;0.0550627103089629;0.0009077510628319272;0.072907107168349;120.0;53.69111300000001;86.84727556
0.7681846755700118;1.8593989552833428;0.9842193249438648;-0.0846334251045171;0.02445531512417077;-0.0254919955134087;3.2998760160893776;0.8611385986044927;0.7415596860065097;5.172137785087535;2.14915253337573;-0.9156724788416436;0.0034735865651553716;0.15295197308045283;0.0550627103089629;0.0009225674566757564;0.072907107168349;120.0;53.69111882;86.84670281999999
0.9842193249438648;0.2762098945353112;1.122753546476323;-0.0591414295911083;0.02457195649460473;-0.0254919955134087;3.274999090790554;0.2601250550941479;0.0676650442877335;3.676681474241794;0.6536962225299896;-0.9768532680738248;0.0016282437024166293;0.09177118384827165;-0.0081574385642908;2.3134369335114222e-05;0.0112164780258998;120.0;53.69115296;86.84607136
0.4777739928889712;1.287171413532817;1.122753546476323;-0.0520036708473539;0.015581428357231173;-0.0520036708473539;3.0229852517118045;0.15377326696520993;0.02364621763315372;3.3694160235041206;0.3464307717923161;-0.9768532680738248;0.006886555883918165;0.1967982053635161;0.040787192821454;0.0006339856944754263;0.0601611094116446;120.0;53.6911936;86.84545664000001
1.122753546476323;1.7459365692510258;2.858534342958814;-0.0836137452839808;0.03857571535809343;-0.0520036708473539;3.0617353469733946;0.34155091190194165;0.1166570254210479;3.8742968891518275;0.8513116374400229;-0.9768532680738248;0.006527219342695237;0.1967982053635161;0.040787192821454;0.0011750959938561048;0.0953400632201488;120.0;53.69124522;86.84496042
-1.9880145341496749;1.9081197853581697;2.858534342958814;-0.0571020699500356;0.03688930455256887;-0.0520036708473539;3.3694160235041206;0.34636073147517243;0.11996575630801651;3.8742968891518275;0.8513116374400229;-0.9768532680738248;0.00699042660286545;0.1967982053635161;0.040787192821454;0.0013620164993490412;0.0953400632201488;120.0;53.69129780000001;86.84450612
2.858534342958814;2.6306126148408073;2.858534342958814;-0.1447945345161619;0.03544029203014768;-0.0571020699500356;3.8742968891518275;0.35472400450213215;0.12582911937002866;3.8996015635892762;0.8378662166158817;-0.9850107066381156;0.005744393874272895;0.18864076679922526;0.0576119098603038;0.0025054521989914774;0.1121647802589986;120.0;53.691352099999996;86.84411498
2.3777118782591256;2.6136277925794484;2.858534342958814;-0.0836137452839808;0.07281827673255434;0.040787192821454;3.47283906070722;0.511863376215213;0.26200411591043676;3.8996015635892762;1.2612884722601527;-1.00336494340777;0.0038704579707828993;0.17028653002957084;0.0576119098603038;0.0024829936651650426;0.1121647802589986;120.0;53.69138683999999;86.84383740000001
-3.002885391272572;3.313279302029487;2.858534342958814;-0.1254206179259712;0.1015992108004867;0.0815743856429081;3.8996015635892762;0.9296402512013479;0.8642309966537052;5.209510947407598;2.571197856078474;-0.951361272560416;0.0034397947897221556;0.13969613541348014;0.0759661466299582;0.003498150586528016;0.13051901702865298;120.0;53.6914002;86.84359988
0.8867113576017016;3.0754643799548838;2.3777118782591256;0.040787192821454;0.08538441057191266;0.0815743856429081;2.6383130913291235;1.0108868300009517;1.0218921830693728;5.209510947407598;2.571197856078474;-0.951361272560416;0.002764375179830816;0.13969613541348014;0.0759661466299582;0.0029296689490463704;0.1177730192719486;120.0;53.69138746;86.84341306000002
-4.548757783005656;2.2428964774011733;0.8867113576017016;0.0815743856429081;0.0781290363070621;0.0815743856429081;5.209510947407598;1.0864014686697308;1.180268151127748;5.209510947407598;2.571197856078474;-0.951361272560416;0.0029565204136791988;0.13969613541348014;0.0759661466299582;0.0015306894461079995;0.09228102375853979;120.0;53.691360380000006;86.84328358
-3.8737461555358577;2.3323492450199446;0.8867113576017016;-0.0224329560517997;0.06523401153796188;0.0815743856429081;4.695627126692439;1.1441893149518638;1.3091691884500154;5.209510947407598;2.571197856078474;-0.951361272560416;0.0014892295370187146;0.10196798205363511;0.0759661466299582;0.0016334424370986246;0.09228102375853979;120.0;53.69133852;86.84321052
-4.362235495067015;2.023533822281647;0.0571967527974636;-0.0122361578464362;0.07524380385210828;0.0815743856429081;5.205672779045086;0.884321943573012;0.7820252998847494;5.209510947407598;1.7442744253630633;-0.951361272560416;0.0009006287963175346;0.07239726725808093;0.0759661466299582;0.0012006477748183588;0.0769858264504945;120.0;53.69132306;86.8431797
-1.5437214676190714;3.527294204216726;4.368053877010839;-0.0897318242071989;0.04254277250259133;-0.0122361578464362;3.4710489497925234;1.0636752415807555;1.1314050195518788;5.866842517727007;2.401605995682473;-0.9890894259202612;0.00021190042564020602;0.03466911389823579;0.07545630671969;0.0038276203970026308;0.1519322932599163;120.0;53.69132463999999;86.84317103999999
0.0571967527974636;3.527294204216726;4.368053877010839;-0.1091057407973896;0.04254277250259133;-0.0122361578464362;3.4652365220445343;1.0636752415807555;1.1314050195518788;5.866842517727007;2.401605995682473;-0.9890894259202612;0.00021190042564020602;0.03466911389823579;0.07545630671969;0.0038276203970026308;0.1519322932599163;120.0;53.69132463999999;86.84317103999999
4.368053877010839;3.527294204216726;4.368053877010839;-0.0764759865402263;0.04254277250259133;-0.0122361578464362;5.866842517727007;1.0636752415807555;1.1314050195518788;5.866842517727007;2.401605995682473;-0.9890894259202612;0.00021190042564020602;0.03466911389823579;0.07545630671969;0.0038276203970026308;0.1519322932599163;120.0;53.69132463999999;86.84317103999999
