acc_X;acc_X_std;acc_X_max;acc_Z;acc_Z_std;acc_Z_max;acc;acc_std;acc_var;acc_max;acc_range;fb_tilt_max;fb_tilt_var;fb_tilt_range;tilt_max;tilt_var;tilt_range;class;lat;lon
-0.5753293967503202;3.3462869736946836;2.7511154836621348;-0.0418068726419904;0.01775348661349927;-0.0384929132252472;1.0371790839455772;1.9114216161452462;3.6535325946673045;6.183702321230204;5.146523237284626;-0.9839910268175792;0.0005069936030297601;0.05506271030896326;0.1019679820536351;0.0034161405469187367;0.1519322932599163;30.0;53.7285125;86.85105714
-5.89210625715447;3.3462869736946836;2.7511154836621348;-0.0384929132252472;0.01775348661349927;-0.0384929132252472;6.183702321230204;1.9114216161452462;3.6535325946673045;6.183702321230204;5.146523237284626;-0.9839910268175792;0.0005069936030297601;0.05506271030896326;0.1019679820536351;0.0034161405469187367;0.1519322932599163;30.0;53.7285125;86.85105714
1.749482331258457;3.3462869736946836;2.7511154836621348;-0.040787192821454;0.01775348661349927;-0.0384929132252472;3.2132155641614153;1.9114216161452462;3.6535325946673045;6.183702321230204;5.146523237284626;-0.9839910268175792;0.0005069936030297601;0.05506271030896326;0.1019679820536351;0.0034161405469187367;0.1519322932599163;30.0;53.7285125;86.85105714
-0.1746646673765702;4.212735676709098;5.333952700690427;-0.0795350260018354;0.017602033695377113;-0.0384929132252472;3.33782205658115;1.6075981723191242;2.584371883643789;6.7393959754712895;3.5261804113098743;-0.9819516671765064;0.0005643876339195412;0.05710206995003608;0.1019679820536351;0.005334473644593425;0.1937391659019067;30.0;53.72853628;86.85088124
2.7511154836621348;2.223031409278919;5.333952700690427;-0.0387478331803813;0.018391021679446274;-0.0336494340776996;4.693401485263207;1.6390507054803256;2.6864872151355534;6.7393959754712895;3.5261804113098743;-0.9819516671765064;0.0005658302827938087;0.05710206995003608;0.003059039461609;0.0015047217663711676;0.0948302233098806;30.0;53.728634379999995;86.85068238000001
5.333952700690427;2.1571478098041013;5.333952700690427;-0.0438462322830631;0.021328133642655126;-0.0336494340776996;6.7393959754712895;1.3753937316174376;1.89170791697254;6.7393959754712895;3.4015739188901395;-0.9819516671765064;0.0004543694112107594;0.05710206995003608;0.003059039461609;0.0014060497821059487;0.0948302233098806;30.0;53.72876396;86.85048428
4.646825860795507;1.8902946933800329;5.333952700690427;-0.0336494340776996;0.01608381291170008;-0.0336494340776996;6.328731246955356;1.040489853766027;1.0826191357900483;6.7393959754712895;2.4207632657617495;-0.9819516671765064;0.0006547286458567837;0.060161109411644875;-0.0091771183848271;0.001064180989414658;0.0825940654634445;30.0;53.728925360000005;86.8502924
3.838380803231823;2.418908453246009;5.333952700690427;-0.0744366268991536;0.02700130648339117;-0.0336494340776996;5.800565095085016;1.1797007584839587;1.3916938795676277;6.7393959754712895;2.60477137838473;-0.9819516671765064;0.0022268260137072596;0.12134189864382605;-0.0020393596410727;0.0017678817159762993;0.0897318242071989;30.0;53.729130180000006;86.85010810000001
0.5041431150525256;2.0561243538291056;4.646825860795507;-0.0418068726419904;0.02618016769390223;-0.0336494340776996;4.31863270970954;1.0578422754197252;1.1190302796651816;6.328731246955356;2.267871692828913;-1.0003059039461608;0.0017615392596642021;0.10298766187417163;-0.0020393596410727;0.0013166315455747733;0.0805547058223717;30.0;53.729375860000005;86.84993394
0.1054926435116892;1.4929400728108404;3.838380803231823;-0.0978892627714897;0.022153116123585625;-0.0418068726419904;4.134624597086559;0.825312937446293;0.6811414447162287;5.800565095085016;2.1563829590249397;-1.0003059039461608;0.001692396088392997;0.10298766187417163;-0.0020393596410727;0.0006781229519259791;0.0652595085143265;30.0;53.729604140000006;86.8497731
1.1566931723053515;0.7611973966786048;2.087103317198531;-0.0723972672580809;0.039691618234168606;-0.0418068726419904;4.060859554126443;0.26281748586797504;0.06907303087796327;4.31863270970954;0.6744505736494637;-1.0074436626899157;0.0013050903545806236;0.09584990313041675;-0.0020393596410727;0.0001866345750854225;0.0356887937187723;30.0;53.72985533999999;86.8496147
0.6660942910049524;1.6474091454001332;4.308748261145729;-0.0499643112062812;0.03345575551447521;-0.0499643112062812;3.6441821360600763;0.5812470536870122;0.33784813741983244;5.145440113654694;1.501257977594618;-1.0074436626899157;0.0013061301015170315;0.09584990313041675;-0.0020393596410727;0.0009255827227913314;0.0774956663607627;30.0;53.730130280000004;86.84948516
2.087103317198531;1.4599272881201182;4.308748261145729;-0.1396961354134801;0.03582255810123064;-0.0499643112062812;3.8377210176771936;0.5964099189435932;0.3557047914143034;5.145440113654694;1.501257977594618;-1.0074436626899157;0.00045457736059803316;0.04486591210359925;-0.0122361578464362;0.0007228320701915674;0.0672988681553992;0.0;53.730417839999994;86.84938872000001
4.308748261145729;1.8489932481850997;5.392135661362149;-0.0836137452839808;0.036091480461921385;-0.0499643112062812;5.145440113654694;0.9668249174279984;0.9347504209596558;5.827293145694637;2.1831110096345605;-1.0023452635872336;0.0005164423033143754;0.04996431120628131;-0.0122361578464362;0.0010795692440735117;0.0825940654634445;0.0;53.73069798;86.84932069999999
2.996151354035535;1.8173178625988697;6.628589759430072;-0.0555725502192311;0.033048482103583555;-0.0555725502192311;3.8709128904935954;1.3083059518800655;1.711664463724804;6.892407014383242;3.054685996706048;-0.9890894259202612;0.00058620932274743;0.06322014887325378;-0.037728153359845;0.0009745548034961978;0.0774956663607627;0.0;53.73095482;86.84930106
5.392135661362149;1.8241870756553573;7.598402826154127;-0.0683185479759355;0.03424667201742972;0.0040787192821454;5.827293145694637;1.510430566668037;2.2814004967251273;7.757120948280417;3.886208057786822;-0.9890894259202612;0.0005887047153948134;0.06322014887325378;-0.0530233506678902;0.0009745548034961974;0.0805547058223718;0.0;53.73118512;86.84931632
6.628589759430072;1.783507657756694;7.598402826154127;-0.0693382277964719;0.043371766823029526;0.0224329560517997;6.892407014383242;1.4843888443438493;2.2034102412124685;7.757120948280417;3.886208057786822;-0.9819516671765066;0.0001367267221378037;0.029570714795554287;-0.0530233506678902;0.000949081003554176;0.0805547058223718;0.0;53.73137924;86.84933636
7.598402826154127;0.7972786030648029;7.598402826154127;0.0040787192821454;0.04789999545484153;0.0254919955134087;7.757120948280417;0.6858011042030507;0.47032315452612367;7.757120948280417;1.9298278025857805;-0.9819516671765066;9.180965448493286e-05;0.021413276231263434;-0.0948302233098807;0.00019672012036858874;0.0387478331803813;0.0;53.73153972;86.84935859999999
6.690845987551902;0.5792677179685887;7.598402826154127;0.0224329560517997;0.04803655249882735;0.0601611094116447;6.79153162519173;0.6214066249725444;0.3861461935597684;7.757120948280417;1.751190530035604;-0.9819516671765066;8.058038757171626e-05;0.021413276231263434;-0.1040073416947078;0.00011624370749052915;0.029570714795554204;0.0;53.73168195999999;86.84937796
6.893373305540331;1.2539120915009565;7.598402826154127;0.0254919955134087;0.020729867554276853;0.0601611094116447;6.937559852367316;1.306261496076417;1.706319096131799;7.757120948280417;3.4533730296746157;-0.9819516671765066;9.222555325949698e-05;0.021413276231263434;-0.07545630671969;0.00048524989522209897;0.058121749770571995;0.0;53.731858620000004;86.84936517999999
5.985760034688477;1.0245381689168642;6.893373305540331;0.0601611094116447;0.01994771045919165;0.0601611094116447;6.005930418244813;1.0526831184969896;1.108141747968547;6.937559852367316;2.633811933761514;-0.9819516671765066;8.4739375317353e-05;0.021413276231263434;-0.07545630671969;0.0003136916507146066;0.0458855919241358;0.0;53.732034780000006;86.84933654
4.300016815721771;0.9357275200280614;6.893373305540331;0.0183542367696543;0.027001306483391184;0.0601611094116447;4.303747918605802;0.9491410076164024;0.9008686523390796;6.937559852367316;2.633811933761514;-0.9901091057407974;4.543694112108919e-05;0.013255837666972692;-0.07545630671969;0.00027064612754727194;0.0458855919241358;0.0;53.73221896;86.8492852
5.751254255774712;0.8674046073553086;6.672630535933459;0.0071377587437544;0.027865444767853173;0.0601611094116447;5.759453361539682;0.8803004152253605;0.7749288210459422;6.716593151732376;2.412845233126574;-0.9901091057407974;4.314949786098924e-05;0.013255837666972692;-0.07545630671969;0.0002294721488654738;0.0418068726419904;0.0;53.73240452;86.84920964
5.514035506934987;1.0828578458447629;7.070332658630737;-0.0132558376669725;0.011612716204758204;0.0183542367696543;5.539680633555897;1.1062490392732827;1.223786936893061;7.137372894906333;2.8336249763005315;-0.9906189456510656;4.112199133499141e-05;0.012745997756704486;-0.07545630671969;0.0003506546543039479;0.04741511165494029;0.0;53.732581059999994;86.84910970000001
6.672630535933459;0.7744113606478581;7.224762805392815;0.0010196798205363;0.01379397293613609;0.0081574385642908;6.716593151732376;0.7900897958187495;0.6242418854569133;7.2581319694835305;1.7184513359276332;-0.9890894259202612;4.621675132339683e-05;0.014275517487508882;-0.0968695829509534;0.00017488543470399936;0.028551034975017806;0.0;53.73271038;86.84899837999998
7.070332658630737;0.6706148530973527;7.224762805392815;0.0081574385642908;0.013899099999093474;0.0081574385642908;7.137372894906333;0.6794583714616116;0.4616636785492653;7.2581319694835305;1.7184513359276332;-0.9890894259202612;6.727162678567882e-05;0.01835423676965453;-0.0968695829509534;0.00012716105032282418;0.028551034975017806;0.0;53.73282174;86.84886398
7.224762805392815;0.2867547552015443;7.224762805392815;-0.023452635872336;0.022398167264697427;0.0305903946160905;7.2581319694835305;0.29822077133376496;0.08893562845490571;7.2581319694835305;0.6857640462935031;-0.9890894259202612;9.456498386641484e-05;0.021413276231263323;-0.116243499541144;1.5544216699313823e-05;0.009177118384827196;0.0;53.732917439999994;86.84870368
6.694879219545252;0.4123443477239574;7.224762805392815;-0.0214132762312633;0.02442340716234873;0.0305903946160905;6.7213012920970625;0.43205296955968553;0.18666976850534253;7.2581319694835305;1.064524487391557;-0.9890894259202612;9.487690794733912e-05;0.021413276231263323;-0.1080860609768532;4.502104234651024e-05;0.017334556949118007;0.0;53.73299388;86.84852924
6.559214932971444;0.6597401674764105;7.224762805392815;0.0305903946160905;0.02615036443486451;0.0305903946160905;6.572367923190027;0.6715552104521266;0.4509864006854001;7.2581319694835305;1.8066898635245163;-0.9890894259202612;0.00011780332789515316;0.02651167533394494;-0.0968695829509534;0.00011925897360611531;0.028551034975017806;0.0;53.73305338;86.84831738
6.190820755819071;0.6081968501866256;7.045638135433517;0.0203935964107269;0.023778443683707254;0.0305903946160905;6.1936074820919735;0.6145778713359052;0.3777059599357725;7.059938655620634;1.60849654966162;-0.9962271846640154;6.727162678567292e-05;0.01937391659019072;-0.0968695829509534;0.00010740585853105216;0.026511675333945106;0.0;53.733095219999996;86.84809809999999
5.447384507424309;0.6352275802720602;7.045638135433517;-0.020393596410727;0.021320819885690002;0.0305903946160905;5.451442105959014;0.6415119485894154;0.4115375801829888;7.059938655620634;1.60849654966162;-0.9962271846640154;7.569357697058662e-05;0.01937391659019072;-0.0968695829509534;0.00011406023892407004;0.026511675333945106;0.0;53.7331267;86.84785821999999
7.045638135433517;0.630701086090807;7.045638135433517;-0.0061180789232181;0.024793111720899957;0.040787192821454;7.059938655620634;0.6371146069211561;0.40591502235229915;7.059938655620634;1.60849654966162;-0.9890894259202612;9.534479406871738e-05;0.02651167533394494;-0.0968695829509534;0.00011094099811484287;0.026511675333945106;0.0;53.733145279999995;86.84761567999999
6.872545149399258;0.745093232184252;7.365115748727183;-0.0081574385642908;0.023368249634964762;0.040787192821454;6.894431862021805;0.754134692467797;0.5687191343834987;7.402746740587337;1.9513046346283227;-0.9890894259202612;0.00015211497679665036;0.028551034975017764;-0.0968695829509534;0.0001755092828658448;0.03466911389823592;0.0;53.73316408000001;86.84733752
6.406096277845535;0.42149423362959426;7.4589930938358195;0.040787192821454;0.027790718313218145;0.040787192821454;6.440449489067671;0.426055614517162;0.18152338666159656;7.504255821730508;1.0638063326628373;-0.9890894259202612;0.0001126045932131076;0.028551034975017764;-0.1111451004384623;6.914317127120039e-05;0.020393596410727008;0.0;53.733183499999996;86.84707534
7.365115748727183;1.0089866692924727;7.4589930938358195;-0.0020393596410727;0.02971452672344892;0.040787192821454;7.402746740587337;0.9891869300612912;0.9784907826040817;7.504255821730508;2.439990560002075;-0.9890894259202612;0.00011697153034602562;0.028551034975017764;-0.0866727847455898;0.0003386455771884256;0.04486591210359951;0.0;53.73320546;86.84679009999999
7.4589930938358195;1.4971910020977686;7.4589930938358195;-0.0367084735393086;0.03376818717609518;0.040787192821454;7.504255821730508;1.4559541970157175;2.119802623807683;7.504255821730508;3.307886888122555;-0.9890894259202612;0.0001235219360454029;0.028551034975017764;-0.0713775874375446;0.0007129544742956814;0.06016110941164471;0.0;53.733226619999996;86.84649894
4.975716451973152;1.9148348287916594;7.4589930938358195;-0.0254919955134087;0.01564136995716963;-0.0020393596410727;5.064265261728433;1.8492311741540663;3.4196559354632265;7.504255821730508;4.042676248611375;-0.9952075048434792;8.162013450811798e-05;0.022432956051799735;-0.0571020699500356;0.0011648284928590536;0.07443662689915372;0.0;53.73324484;86.84617924
4.057343955868409;1.6025443761635259;7.4589930938358195;-0.0418068726419904;0.017343551790309185;0.0020393596410727;4.196368933607953;1.5458581276729795;2.3896773508926095;7.504255821730508;4.042676248611375;-0.9952075048434792;1.9235318323577334e-05;0.010196798205363677;-0.0571020699500356;0.0007816817467923193;0.07341694707861741;0.0;53.733258420000006;86.84587538000001
3.258696561632236;0.6645956765489084;4.975716451973152;-0.0336494340776996;0.017343551790309185;0.0020393596410727;3.4615795731191334;0.6422859722200183;0.4125312701106141;5.064265261728433;1.6026856886093;-0.9952075048434792;1.4244533028813524e-05;0.010196798205363677;-0.0571020699500356;0.0001317359368430225;0.029570714795554204;0.0;53.73326858;86.84555273999999
4.305083290440193;0.8465212881615866;5.557201676871644;0.0020393596410727;0.018163471664926573;0.0020393596410727;4.461277182691059;0.8603176520210603;0.74014646237903;5.773216687031659;2.3116371139125254;-0.9850107066381156;6.519213291285883e-05;0.020393596410727244;-0.0571020699500356;0.00020379039953616964;0.0387478331803814;0.0;53.73327406;86.84524078
4.716976193488066;1.0406943434763414;5.871563475769287;-0.0367084735393086;0.018163471664926573;0.0020393596410727;4.934614946684083;1.0455336344645032;1.0931405807965535;6.064004633090969;2.6024250599718353;-0.9850107066381156;8.650694510924312e-05;0.02549199551340886;-0.0571020699500356;0.00033355081720001876;0.0469052717446722;0.0;53.733279659999994;86.84492894
5.557201676871644;0.8138939040325288;6.267801150927694;-0.0152951973080452;0.017558045638546512;0.0020393596410727;5.773216687031659;0.806883542783207;0.6510610516143793;6.403677272509983;1.942400089818924;-0.9850107066381156;8.650694510924312e-05;0.02549199551340886;-0.07545630671969;0.00020919708360549633;0.034669113898235904;0.0;53.73328416;86.84463647999999
5.871563475769287;0.9325984154284399;7.253286087081375;-0.0418068726419904;0.011904516262013906;-0.0152951973080452;6.064004633090969;0.9040478238922912;0.8173024678843871;7.408509316432418;2.4738943697483347;-0.9850107066381156;8.55711728664751e-05;0.02549199551340886;-0.0825940654634444;0.0002781323054894167;0.044865912103599484;0.0;53.73328588;86.8443566
6.267801150927694;0.6382602744956483;7.253286087081375;-0.0254919955134087;0.013361307906841815;-0.0152951973080452;6.403677272509983;0.6168981426506537;0.38056331840582625;7.408509316432418;1.6352926294007588;-0.979912307535434;0.00016459194003356527;0.030590394616090477;-0.095849903130417;0.00013589492458865904;0.03161007443662689;0.0;53.73328454;86.84409414000001
7.253286087081375;0.5670327215346387;7.253286087081375;-0.0163148771285816;0.011522833148988812;-0.0163148771285816;7.408509316432418;0.5584119309154368;0.31182388458870663;7.408509316432418;1.3795111049617104;-0.979912307535434;0.00016188859799889702;0.03161007443662689;-0.1040073416947078;9.596864223055173e-05;0.02345263587233609;0.0;53.7332808;86.84384976
6.229570476800711;0.6319251494057313;7.253286087081375;-0.0428265524625267;0.019035540636886342;0.0050983991026817;6.415666213377687;0.6436266206045828;0.41425522675087556;7.408509316432418;1.717431646738465;-0.979912307535434;0.0001460844445654802;0.03161007443662689;-0.0983991026817579;0.00012055865727662545;0.029060874885285984;0.0;53.733276579999995;86.84362026
5.86661790579163;0.9025809732344339;7.253286087081375;-0.037728153359845;0.01911185754343352;0.0050983991026817;6.028998211470707;0.9303139498358753;0.8654840452592275;7.408509316432418;2.5245963764222985;-0.979912307535434;0.00014608444456548107;0.03161007443662689;-0.0836137452839808;0.000251670745957806;0.043846232283063086;0.0;53.73327524;86.84339364
5.584047740633771;0.7819393519668631;6.229570476800711;0.0050983991026817;0.020375744200105454;0.0050983991026817;5.691077669693953;0.8243189186522749;0.6795016796480557;6.415666213377687;2.0040567541078174;-0.979912307535434;0.00019474460118942805;0.03161007443662689;-0.0744366268991536;0.00019490056322987238;0.0326297542571633;0.0;53.73327352;86.8431564
4.791923001499614;0.8106497263932294;5.86661790579163;-0.0183542367696543;0.016112877149079816;0.0050983991026817;4.883912940010119;0.8435771875926441;0.711622471426715;6.028998211470707;2.0040435922422484;-0.9829713469970428;0.00011925897360612926;0.028551034975018097;-0.0693382277964719;0.0002237535407152226;0.03466911389823589;0.0;53.73327422;86.84290622
4.3304396237151765;0.6939175834200122;5.584047740633771;-0.0061180789232181;0.010438653118849565;0.0050983991026817;4.41160945926987;0.7116137546936646;0.5063941358692151;5.691077669693953;1.7142778319990097;-0.9829713469970428;7.870884308617781e-05;0.023452635872336258;-0.0683185479759355;0.00015642992658273724;0.030080554705822396;0.0;53.73327588000001;86.8426314
3.95637208356196;0.35478057854862066;4.791923001499614;-0.020393596410727;0.00967353215101982;-0.0061180789232181;4.024954619228459;0.3657833065444111;0.1337974273465626;4.883912940010119;0.9071131023151762;-0.9829713469970428;5.4378764774207206e-05;0.01937391659019083;-0.0683185479759355;3.711896562979908e-05;0.015295197308045294;0.0;53.73327926;86.84232246
3.914657981292073;0.2463316780869883;4.463431828913494;-0.0142755174875089;0.023514621425452048;0.0295707147955541;3.976799837694943;0.25707690280195705;0.06608853395424687;4.5574497599425206;0.5806499222475776;-0.9829713469970428;7.434190595326043e-05;0.022432956051800068;-0.0683185479759355;1.8403520774436138e-05;0.010196798205363497;0.0;53.733298500000004;86.84191161999999
4.324712876051666;0.2358976392601407;4.463431828913494;-0.0326297542571632;0.0235676221420344;0.0295707147955541;4.39534831695014;0.24620374024414887;0.06061628171020834;4.5574497599425206;0.5806499222475776;-0.9972468644845518;2.9424838300383288e-05;0.013255837666972692;-0.0683185479759355;1.8403520774436138e-05;0.010196798205363497;0.0;53.73332696;86.84148952000001
4.463431828913494;0.6164006703669844;4.463431828913494;0.0295707147955541;0.022909916051772963;0.0295707147955541;4.5574497599425206;0.627601619362023;0.3938837926258335;4.5574497599425206;1.5735787969205388;-0.9972468644845518;3.566331991883888e-05;0.013255837666972692;-0.0509839910268175;0.00012133846747893207;0.027531355154481504;0.0;53.73336444;86.84106108
4.212549084191203;0.7139377383152501;4.790099661450872;-0.0142755174875089;0.031540923714377354;0.0295707147955541;4.28921301194426;0.7136222857696497;0.5092567667470996;4.8201538813211835;1.8362829182992018;-0.9972468644845518;3.8782560728064054e-05;0.013255837666972692;-0.0509839910268175;0.00016459194003354835;0.0336494340776996;0.0;53.73341988000001;86.84064036
2.926629013350088;0.7661752720116494;4.790099661450872;-0.0061180789232181;0.03782036303921369;0.0397675130009177;2.9838709630219817;0.7579798761720836;0.5745334926818473;4.8201538813211835;1.8362829182992018;-0.9972468644845518;2.630559749115422e-05;0.013255837666972692;-0.0509839910268175;0.00018871406895823838;0.0336494340776996;0.0;53.733519060000006;86.84018658
4.790099661450872;0.7977974084405898;4.790099661450872;-0.0550627103089629;0.03566402146854983;0.0397675130009177;4.8201538813211835;0.7808772206568351;0.6097692337407434;4.8201538813211835;1.8362829182992018;-0.9972468644845518;2.672149626571761e-05;0.013255837666972692;-0.0509839910268175;0.00020431027300437426;0.0336494340776996;0.0;53.733636620000006;86.83982798
4.759921750588143;0.8507517593329352;4.973585694455303;0.0397675130009177;0.037735042459392895;0.0397675130009177;4.779536510588229;0.8317288831371147;0.6917729350445122;4.9773509291605444;1.9934799661385627;-0.9895992658305292;5.869371456029958e-05;0.018864076679922515;-0.0509839910268175;0.00022583303458804132;0.035178953808504096;0.0;53.733766939999995;86.83948214
4.748527784179278;0.12963797875281352;5.024307865659304;0.0173345569491179;0.03817608257488654;0.0397675130009177;4.7578911486637665;0.12616197977584387;0.015916845140960437;5.040395984939875;0.28250483627610823;-0.9895992658305292;5.869371456029958e-05;0.018864076679922515;-0.0836137452839808;3.1192408092237855e-06;0.004078719282145399;0.0;53.73390696;86.839146
4.973585694455303;0.9959147713588575;5.024307865659304;-0.0316100744366268;0.02887152782446973;0.0397675130009177;4.9773509291605444;0.9972848629428207;0.9945770978548806;5.040395984939875;2.364747768477141;-0.9895992658305292;0.0002177749958308812;0.03925767309064965;-0.0479249515652085;0.0002819793691541294;0.0397675130009177;0.0;53.734037799999996;86.83877507999999
5.024307865659304;1.20372353422396;5.024307865659304;-0.020393596410727;0.01922035604524879;0.0173345569491179;5.040395984939875;1.2064626849253104;1.455552210117189;5.040395984939875;2.364747768477141;-0.9895992658305292;0.00029897923156442535;0.03925767309064965;-0.0479249515652085;0.00041064805253474847;0.0397675130009177;0.0;53.734122060000004;86.83840878
2.666906842519466;1.2558545545343553;5.024307865659304;-0.0061180789232181;0.009250468791713413;-0.0061180789232181;2.6756482164627338;1.2553659591991593;1.5759436915160252;5.040395984939875;2.364747768477141;-0.9839910268175792;0.0004350821055403739;0.04486591210359958;-0.0458855919241358;0.00045873634834366636;0.0418068726419904;30.0;53.7341715;86.83800765999999
2.787817510688288;1.00549166189191;5.024307865659304;-0.023452635872336;0.007005430422073057;-0.0061180789232181;2.788487773186048;1.0081745158074527;1.0164158543235917;5.040395984939875;2.364747768477141;-0.9839910268175792;0.00036131206040214875;0.04486591210359958;-0.0458855919241358;0.0002996550670730831;0.0418068726419904;0.0;53.73420474000001;86.83756986
2.6694260891189763;0.37453884425177686;3.4028683241068003;-0.0183542367696543;0.019179741033223553;0.0224329560517997;2.691711881361268;0.3636143288851868;0.13221538017062479;3.4369668059175784;0.948623535740587;-0.9839910268175792;0.00034966689471436775;0.04486591210359958;-0.0418068726419904;4.6996561525684534e-05;0.0183542367696543;0.0;53.734251979999996;86.8370283
3.4028683241068003;0.7385383753352103;3.4028683241068003;-0.0224329560517997;0.054201521831252646;0.1029876618741715;3.4369668059175784;0.6780253126957324;0.45971832465614565;3.4369668059175784;1.8772532149175778;-0.9839910268175792;0.0002394537194550106;0.04180687264199057;-0.0244723156928724;0.00017135029512020637;0.0356887937187723;0.0;53.73430714000001;86.83649466
2.3950685276051398;1.2328036286608113;4.693629802364736;0.0224329560517997;0.05078476420898928;0.1029876618741715;2.4883432701769914;1.2121881698800072;1.4694001591970411;4.804293079488165;3.2445794884881645;-0.968695829509534;0.00032096987926948475;0.04282655246252687;-0.0244723156928724;0.0004276479149450367;0.055062710308963;0.0;53.734352720000004;86.83597704
1.3829303065769727;1.2282693978361672;4.693629802364736;0.1029876618741715;0.049269637429498095;0.1029876618741715;1.5597135910000006;1.2052793615130517;1.4526983392893098;4.804293079488165;3.2445794884881645;-0.9442235138166616;0.0008440665629768809;0.06729886815539932;-0.0244723156928724;0.0004214094333265825;0.055062710308963;30.0;53.73437156;86.83545828
4.693629802364736;1.4834645613226194;4.831333629078329;0.0071377587437544;0.043546417333953195;0.1029876618741715;4.804293079488165;1.4606109209347007;2.1333842623537143;4.929512692784522;3.3697991017845217;-0.9442235138166616;0.0006633585454289907;0.06423982869379008;-0.0244723156928724;0.0006318542132557737;0.0591414295911084;30.0;53.73435362;86.8349437
3.1522656507880096;1.5233946213095138;4.831333629078329;-0.0091771183848271;0.043964639823208126;0.1029876618741715;3.3200395690346887;1.4979855036334102;2.2439605690958415;4.929512692784522;3.3697991017845217;-0.9442235138166616;0.0007020371314634088;0.06423982869379008;-0.0244723156928724;0.0006647102164462994;0.0591414295911084;0.0;53.73426462;86.83451166
4.831333629078329;1.1991918079207633;4.831333629078329;0.0173345569491179;0.011005931041563647;0.0173345569491179;4.929512692784522;1.1885289591401063;1.4126010867146646;4.929512692784522;2.6582281635275957;-0.9442235138166616;0.0007432111101452091;0.06729886815539932;-0.037728153359845;0.0004112199133497739;0.0458855919241358;0.0;53.73411754;86.8340881
2.153182257586716;1.00008155355242;4.831333629078329;0.0142755174875089;0.014103318366081457;0.0173345569491179;2.2712845292569264;0.991980457771553;0.9840252286006598;4.929512692784522;2.6582281635275957;-0.9442235138166616;0.0009162250003636656;0.07749566636076277;-0.037728153359845;0.00029404043361647413;0.0458855919241358;0.0;53.733932;86.83369264000001
2.712237844641608;1.268242052190228;4.831333629078329;0.0163148771285816;0.041165271248462136;0.0978892627714897;2.829669893130103;1.2535757067127482;1.5714520524603661;4.929512692784522;3.323977598126891;-0.9890894259202612;0.00018320341019527925;0.03262975425716319;-0.0254919955134087;0.0004805710340082576;0.0581217497705721;0.0;53.733710380000005;86.83334814
3.1416689360682097;0.7984666396750247;3.4696827715309584;-0.0101967982053635;0.0408635972458731;0.0978892627714897;3.246901464706687;0.7696505075739536;0.5923619038088443;3.5197717886405093;1.914236693982878;-0.99214846538187;0.00011801127728243007;0.029570714795554398;-0.0254919955134087;0.00020607784279626863;0.0356887937187723;0.0;53.73345052;86.83306268000001
1.4647097320153464;0.8917187076799218;3.7381730466739103;0.0978892627714897;0.04635675752433743;0.0978892627714897;1.6055350946576312;0.8453416322172119;0.71460247515966;3.744524460073415;2.138989365415784;-0.99214846538187;0.0002045182223916592;0.03772815335984525;-0.0254919955134087;0.00026336789899240794;0.041806872641990504;0.0;53.733158120000006;86.83284708000001
3.4696827715309584;0.9613340146182261;3.7381730466739103;0.0346691138982359;0.051580078139563376;0.0978892627714897;3.5197717886405093;0.9283266761936423;0.8617904177327356;3.744524460073415;2.138989365415784;-0.99214846538187;0.0002791200650790121;0.03772815335984525;-0.0254919955134087;0.00030911676419440596;0.041806872641990504;0.0;53.73283722;86.83270026
3.7381730466739103;0.9426521423277918;3.7381730466739103;-0.0183542367696543;0.05098704997451347;0.0978892627714897;3.744524460073415;0.9044082572244491;0.8179542957357652;3.744524460073415;2.138989365415784;-0.9666564698684612;0.0005402005208113342;0.063220148873254;-0.0254919955134087;0.0002949762058592428;0.041806872641990504;0.0;53.73249108;86.83261012
2.114964627104837;0.8485796516339589;3.7381730466739103;-0.0254919955134087;0.026423286468542712;0.0346691138982359;2.1484191738659333;0.789494050753645;0.623300856175399;3.744524460073415;1.760295013848299;-0.9666564698684612;0.0005328703049096494;0.063220148873254;-0.0305903946160905;0.00024350873250699454;0.0367084735393087;0.0;53.73213248;86.83255360000001
2.838250161345461;0.980114625496244;3.7381730466739103;-0.0050983991026817;0.009980368555719127;-0.0050983991026817;2.906933620168969;0.8194024389705208;0.671420356990838;3.744524460073415;2.00722272791503;-0.9666564698684612;0.0005164423033143873;0.063220148873254;-0.0214132762312633;0.00031244395439091485;0.04588559192413591;0.0;53.731767760000004;86.83251144
1.7596995836458855;0.7188092097091396;2.838250161345461;-0.0316100744366268;0.02155362918831914;-0.0050983991026817;1.9842294462251162;0.5257210135841535;0.2763825841239496;2.906933620168969;1.3671222658695288;-0.9666564698684612;0.00020015128525875875;0.03772815335984503;-0.0183542367696543;0.00014275725436895713;0.029570714795554197;0.0;53.731399620000005;86.83246586
1.221016635870243;0.7138218420760435;2.838250161345461;-0.023452635872336;0.0214084200624219;-0.0050983991026817;1.7373017321583852;0.5395140668275351;0.29107542830478605;2.906933620168969;1.3671222658695288;-0.9666564698684612;0.0003405171216739753;0.04996431120628109;-0.0183542367696543;0.00014275725436895713;0.029570714795554197;0.0;53.73103106;86.83240961999999
1.056526423728264;0.8647446554462879;3.232824122046704;-0.0642398286937901;0.020500383208528976;-0.0081574385642908;1.5398113542994403;0.777265401337048;0.6041415041156423;3.505497207646481;1.9656858533470407;-0.974813908432752;0.00023737422558219764;0.041806872641990345;-0.0183542367696543;0.00021335607135113086;0.036708473539308596;0.0;53.73066192;86.83233743999999
2.066958146279735;0.8655614804749887;3.232824122046704;-0.0316100744366268;0.02267498313239226;-0.0081574385642908;2.333229770897835;0.7663255272423645;0.5872548137032878;3.505497207646481;1.9656858533470407;-0.974813908432752;0.00032824810782435064;0.041806872641990345;-0.0183542367696543;0.00021449979298118085;0.036708473539308596;0.0;53.73027356;86.83224604
3.232824122046704;0.9653545328050115;3.232824122046704;-0.0081574385642908;0.022725366956649416;-0.0081574385642908;3.505497207646481;0.7500502420718723;0.5625753656320742;3.505497207646481;1.9656858533470407;-0.974813908432752;0.001112841146038615;0.0795350260018356;-0.0142755174875089;0.0002632639242987646;0.040787192821454;0.0;53.729863339999994;86.83213789999999
1.7356098953209356;1.6077785966661498;3.232824122046704;-0.0101967982053635;0.013188997780772928;-0.0081574385642908;2.3282819874777037;0.6451939529339394;0.41627523690252244;3.505497207646481;1.6719866452160732;-0.974813908432752;0.0011153885260328164;0.0795350260018356;0.0183542367696543;0.0007610947574514138;0.0734169470786172;0.0;53.7294445;86.83203138
0.7752985343012896;1.5911675189216556;3.232824122046704;-0.0346691138982359;0.014355411620579647;-0.0081574385642908;1.8335105624304078;0.6482929362949111;0.4202837312498778;3.505497207646481;1.6719866452160732;-0.974813908432752;0.001124486311726401;0.0795350260018356;0.0183542367696543;0.0007373885273012875;0.0734169470786172;60.0;53.72899576;86.83190520000001
-1.0586877011906115;1.1773900956630647;1.9037796655174055;-0.0331395941674313;0.029309365719188712;-0.0101967982053635;2.063425140652192;0.36732604510619726;0.13492842341336006;2.6056890309488066;0.9053397271523287;-0.9758335882532884;0.0010680280530793876;0.07851534618129918;0.0183542367696543;0.0004089324700896702;0.0509839910268175;60.0;53.72852216;86.83177976
1.9037796655174055;1.2394549920658327;1.9037796655174055;-0.037728153359845;0.033795118320528415;0.0050983991026817;2.6056890309488066;0.45082375261746227;0.20324205592409084;2.6056890309488066;1.2019352967864128;-0.9809319873559702;0.0009501207504905952;0.07341694707861735;0.0183542367696543;0.0004619595638465308;0.0509839910268175;60.0;53.72806236;86.83163228
0.889599270825122;1.2162045280123748;1.9037796655174055;-0.0897318242071989;0.05974705992286445;0.0713775874375446;1.7003493037964779;0.6003039579844598;0.360364841971808;2.6056890309488066;1.555507673943684;-0.9809319873559702;0.00032263347436773944;0.03874783318038133;0.0183542367696543;0.0004409046883842475;0.0509839910268175;60.0;53.72754088000001;86.83140264
-0.7788877852173064;1.3062678071377964;1.9037796655174055;0.0050983991026817;0.0595836883246471;0.0713775874375446;1.4037537341623938;0.577202677466718;0.3331629308747482;2.6056890309488066;1.555507673943684;-0.9809319873559702;0.00039687140562734316;0.03874783318038133;0.0244723156928724;0.000517326088210312;0.0571020699500356;60.0;53.72702833999999;86.83114098
0.2857772233144177;1.2905669818246042;1.8558022894088928;0.0713775874375446;0.059676973839063445;0.0713775874375446;1.0501813570051226;0.3563303242218942;0.12697129996008025;2.005854633191971;0.9556732761868485;-0.974813908432752;0.0004704854887251053;0.04486591210359958;0.0244723156928724;0.0005024057196728415;0.0560823901294992;60.0;53.72653906000001;86.83087698
-1.3755905851147852;1.2914134015435406;1.8558022894088928;-0.0305903946160905;0.04373344817784712;0.0713775874375446;1.6313269951961522;0.41156840355067875;0.16938855080125434;2.005854633191971;0.9766515903988755;-0.974813908432752;0.0005154025563779762;0.06118078923218129;0.0244723156928724;0.0005040173274242752;0.0560823901294992;60.0;53.72606564;86.830593
1.8558022894088928;1.2637225184870282;1.8558022894088928;-0.0387478331803813;0.04474175652193748;0.0713775874375446;2.005854633191971;0.5569516804300186;0.31019517433382154;2.005854633191971;1.4161639327295852;-0.968695829509534;0.0008954300616354833;0.0672988681553992;0.0244723156928724;0.00048171475563830155;0.0560823901294992;60.0;53.725593079999996;86.83034572
-0.9021473273946304;1.4076576874388331;1.8558022894088928;0.0132558376669725;0.032666378446907805;0.0132558376669725;1.0292030427930956;0.5457785381534879;0.2978742127089582;2.005854633191971;1.4161639327295852;-0.968695829509534;0.0009172647473000767;0.0672988681553992;0.0244723156928724;0.0005965028174178598;0.0560823901294992;60.0;53.72519998;86.83021374
-0.4824021422333117;1.9747882428013364;4.016109749533884;-0.0173345569491179;0.03434217450844922;0.0132558376669725;0.5896907004623858;1.4029960028772681;1.9683977840895914;4.1712826871533295;3.5815919866909436;-0.968695829509534;0.000893974415924513;0.0672988681553992;0.0163148771285816;0.0012220145743615449;0.0876924645661262;60.0;53.724807399999996;86.83012836
1.2519311777004951;1.9349086122882913;4.016109749533884;-0.0764759865402263;0.03604103005819645;0.0132558376669725;1.403491804439857;1.4002575770207155;1.9607212820039248;4.1712826871533295;3.5815919866909436;-0.968695829509534;0.0008612223874276227;0.0672988681553992;0.0163148771285816;0.0011801127728242606;0.0876924645661262;60.0;53.72441774;86.83010222
4.016109749533884;1.6574958124453976;4.016109749533884;-0.0061180789232181;0.032967369816659264;0.0081574385642908;4.1712826871533295;1.3363331362110558;1.785786250935676;4.1712826871533295;3.5815919866909436;-0.968695829509534;0.0005430598248864562;0.05200367084735391;0.0081574385642908;0.000862782007832221;0.0795350260018354;0.0;53.724035920000006;86.83012488
1.0301498181760798;1.3625493095825603;4.016109749533884;0.0081574385642908;0.035844320182152396;0.0112164780258998;1.730242012854209;1.1008173540973754;1.2117988470819465;4.1712826871533295;2.7677908827134727;-0.9768532680738248;0.00041038811580065707;0.05098399102681761;-0.0122361578464362;0.0005897444623312064;0.05914142959110841;0.0;53.72366046;86.83016925999999
0.7000994592905999;1.34833928065925;4.016109749533884;-0.0071377587437544;0.0210583016499066;0.0112164780258998;1.841936431447134;1.0227445517179041;1.0460064180686568;4.1712826871533295;2.4410406742991206;-1.0013255837666972;9.742428794153031e-05;0.02651167533394516;-0.0122361578464362;0.000574772106446916;0.05914142959110841;0.0;53.723298879999994;86.8302224
1.0229692922603886;1.0615479449818714;3.3405925471073945;0.0112164780258998;0.022099075456483003;0.0112164780258998;2.386904654134981;1.0384774339178477;1.0784353807565976;4.213891193083028;2.483649180228819;-0.9605383909452432;0.0007035967518680142;0.0672988681553992;-0.0122361578464362;0.0003065173968533814;0.0438462322830631;30.0;53.72294373999999;86.83028198
1.7289917062104858;1.166027617415513;3.3405925471073945;-0.0418068726419904;0.023635905502700345;0.0112164780258998;3.20035177496015;1.070862006690433;1.1467454373730612;4.228040539443749;2.386104107996615;-0.9605383909452432;0.0006231203389899576;0.0672988681553992;-0.0122361578464362;0.0003854341893268284;0.0438462322830631;0.0;53.72259905999999;86.8303213
3.3405925471073945;0.9856024641757154;3.3405925471073945;-0.0224329560517997;0.027713914590424802;0.0112164780258998;4.213891193083028;0.8966257380113015;0.8039377140643111;4.536562478145579;2.149657824010598;-0.9605383909452432;0.0006796825723306071;0.0672988681553992;-0.0183542367696543;0.00027730050794028805;0.037728153359845;0.0;53.722266260000005;86.83035713999999
2.966990966916129;0.6518162800975489;3.3405925471073945;-0.0448659121035994;0.02081745717169346;-0.0224329560517997;4.228040539443749;0.5050562308462537;0.25508179631662437;4.536562478145579;1.336210703185429;-0.9605383909452432;0.000837516157277501;0.0785153461812993;-0.0305903946160905;0.00011260459321309573;0.0254919955134088;0.0;53.72194516;86.83037396
2.977287969099032;0.404104112289726;3.3405925471073945;-0.061180789232181;0.0207273595550475;-0.0224329560517997;4.536562478145579;0.24997698306072252;0.06248849206014075;4.701605510408959;0.5933020526440274;-0.9605383909452432;0.0009310933815543235;0.0785153461812993;-0.040787192821454;3.3999724820572165e-05;0.015295197308045301;0.0;53.721629799999995;86.83034531999999
2.2417242784741416;1.0740121541808882;3.025860772000523;-0.0774956663607627;0.047592948017191675;-0.0448659121035994;4.108303457764932;0.25581856620312915;0.06544313881422478;4.701605510408959;0.5933020526440274;-0.9819516671765066;0.0004369016626790889;0.05710206995003586;-0.0091771183848271;0.00034966689471435815;0.0438462322830631;0.0;53.721267139999995;86.8301977
3.025860772000523;1.3418558088465165;3.025860772000523;-0.0601611094116447;0.05489723576995131;-0.0601611094116447;4.701605510408959;0.2565310124795915;0.06580816036380432;4.701605510408959;0.5933020526440274;-0.9819516671765066;0.0004411126377715461;0.05710206995003586;-0.0040787192821454;0.0005549129399615024;0.0489446313857448;0.0;53.72096051999999;86.82996788
0.5138499714764233;1.3745278909246146;3.025860772000523;-0.1641684511063526;0.04900513747581955;-0.0601611094116447;4.176652070929027;0.23645481153635856;0.05591087789869484;4.701605510408959;0.5933020526440274;-0.9819516671765066;0.00042400880066761925;0.05710206995003586;0.0020393596410727;0.0005773714737879371;0.0540430304884266;60.0;53.72074612;86.82969204
0.2301946674764349;2.819140958339988;3.025860772000523;-0.1672274905679616;0.0639860259079895;-0.0214132762312633;4.22217848597897;1.0215714823858857;1.043608293624096;6.5657269045795115;2.3890748336504846;-0.9819516671765066;0.0001426532796753431;0.028551034975017875;0.0825940654634444;0.0023890265357870543;0.1345977363107983;60.0;53.72064611999999;86.82939748
-0.1149762423682307;2.1583109888705607;0.5138499714764233;-0.1080860609768532;0.06267257774874475;-0.0214132762312633;4.228384843388331;1.0208449233421784;1.0421243575134982;6.5657269045795115;2.3890748336504846;-0.9941878250229428;0.00017407963082829162;0.03517895380850411;0.0825940654634444;0.001413276023313985;0.0917711838482715;60.0;53.72065298;86.8291125
-4.747955337532094;2.0538382578976035;0.2301946674764349;-0.0214132762312633;0.05740444203684234;-0.0214132762312633;6.5657269045795115;0.9810731369892172;0.9625045001218633;6.5657269045795115;2.343548418600541;-0.9554399918425616;0.0007442508570816196;0.07392678698888533;0.0825940654634444;0.0012591855273381652;0.0866727847455898;60.0;53.7208166;86.82892283999999
-0.990961169496678;1.8245724965676482;-0.1149762423682307;-0.0683185479759355;0.03814338590263297;-0.0142755174875089;4.754444149370142;0.8868376104239827;0.7864809472625197;6.5657269045795115;2.3373420611911806;-0.9554399918425616;0.0007412875783128549;0.07392678698888533;0.0825940654634444;0.0009968573752821626;0.0805547058223717;60.0;53.72102331999999;86.82880187999999
-2.624637129994516;1.8226497685101781;-0.1213237818626501;-0.0448659121035994;0.03738903256306534;0.0316100744366268;5.377085495206713;0.813430128035427;0.6616685731957312;6.5657269045795115;2.0813249040061947;-0.9554399918425616;0.0008903353016471087;0.07392678698888533;0.0825940654634444;0.0009968573752821626;0.0805547058223717;60.0;53.72122595999999;86.8287178
-3.156817893695509;1.2548644959880257;-0.1213237818626501;-0.0142755174875089;0.08380812895849679;0.0316100744366268;5.6034737665161165;0.45293943870906134;0.20515413513807954;5.6034737665161165;1.1190717659427998;-0.9554399918425616;0.0008903353016471087;0.07392678698888533;0.0550627103089629;0.00046658643771355036;0.0530233506678902;60.0;53.72140174;86.82866318
-0.1213237818626501;2.1377731955768167;-0.1213237818626501;0.0316100744366268;0.08842629069387083;0.0316100744366268;4.484402000573317;1.067025151690837;1.1385426743408535;7.3188107974053365;2.8344087968320197;-0.9554399918425616;0.001036315771518938;0.08055470582237167;0.1111451004384623;0.0015416327826136829;0.1091057407973896;60.0;53.72154637999999;86.82865422
-2.364439621735091;2.574878645267233;0.2924070260593668;-0.1916998062608341;0.0889026901981047;0.0316100744366268;5.041708205479785;1.326343380704031;1.7591867635373983;7.3188107974053365;3.4839154272363433;-0.962577750586316;0.000678226926619648;0.07341694707861723;0.1111451004384623;0.0021904348709329263;0.116243499541144;60.0;53.72164962000001;86.8286909
-6.08356770212804;2.6354112542358887;0.2924070260593668;-0.1193025390027531;0.08423351519082027;0.0316100744366268;7.3188107974053365;1.4659493612811558;2.149007529840629;7.3188107974053365;3.6107196040301206;-0.962577750586316;0.000679474622943338;0.07341694707861723;0.1111451004384623;0.0023126051359609917;0.116243499541144;60.0;53.72171636;86.82874228
0.2924070260593668;2.9054529066297774;1.259104877422241;-0.0382379932701131;0.05872727284163322;-0.0382379932701131;3.834895370168993;1.5491953973157564;2.4000063790643242;7.3188107974053365;3.6107196040301206;-0.9941878250229428;0.0002923768385182314;0.041806872641990456;0.1111451004384623;0.0027917205242582793;0.133578056490262;60.0;53.721757339999996;86.82880374
-0.4079642100645664;3.910889483761008;4.726758358406074;-0.0652595085143265;0.05349919045368821;0.0101967982053635;3.708091193375216;1.623019213541105;2.634191367523587;7.3188107974053365;3.6107196040301206;-0.9248495972264708;0.0017559246262076416;0.11114510043846249;0.1111451004384623;0.004685307644846434;0.18762108697868862;60.0;53.721763880000005;86.828841
1.259104877422241;1.9835267563013756;4.726758358406074;-0.1111451004384623;0.04401840982299429;0.0101967982053635;3.7525443340037;0.9172278326132717;0.8413068969204399;5.803178497831509;2.0950873044562934;-0.9248495972264708;0.0012289288914887405;0.08973182420719916;0.0071377587437544;0.0010366276955998126;0.0836137452839807;60.0;53.72174771;86.82885555
4.726758358406074;2.3406035066694724;5.076610619397068;0.0101967982053635;0.046567533766400195;0.0101967982053635;5.803178497831509;1.1602719576644756;1.3462310157425543;5.888681386492061;2.1805901931168448;-0.9248495972264708;0.0012025193193039524;0.08973182420719916;0.0071377587437544;0.0015609720756308944;0.0958499031304169;60.0;53.72173005;86.82883789
1.93275191089599;1.9699517061231142;5.076610619397068;-0.0563373100846334;0.04658064945591788;0.0101967982053635;3.724835462818498;1.3477213745474015;1.8163529034119372;5.888681386492061;2.974173289117696;-0.9248495972264708;0.0012414058547256489;0.08973182420719916;-0.0163148771285816;0.0010862756118133474;0.0723972672580809;60.0;53.72170595;86.82883939
5.076610619397068;2.46891731971494;5.076610619397068;-0.0938105434893443;0.03821164246189804;0.0101967982053635;5.888681386492061;1.568037260954051;2.4587408517402825;5.888681386492061;3.2810427066726486;-0.9248495972264708;0.0019295623645879622;0.12134189864382594;0.0122361578464362;0.0017597197025254843;0.1009483022330987;60.0;53.72166681;86.82884121
0.9285917222671596;2.105364502572823;5.076610619397068;-0.0662791883348628;0.024871357883715552;-0.0254919955134087;2.9145080973743647;1.3753669668369763;1.8916342934663444;5.888681386492061;3.2810427066726486;-0.980422147445702;0.0006504136960706941;0.0657693484245947;0.0122361578464362;0.0013620164993490235;0.1009483022330987;60.0;53.721634710000004;86.82886543
-0.6693327015114036;2.108352577354534;5.076610619397068;-0.0499643112062812;0.025992836691646426;-0.0254919955134087;2.607638679819412;1.463866979773191;2.1429065344702836;5.888681386492061;3.5080179948773287;-0.9941878250229428;0.000528919266551269;0.05200367084735391;0.0122361578464362;0.0013646678540368664;0.1009483022330987;60.0;53.72160994000001;86.82888674
1.428794431554984;0.8579303953317101;1.428794431554984;-0.0254919955134087;0.021369530983876464;-0.0112164780258998;2.669515340908362;0.35423415382343004;0.1254818357350015;2.9145080973743647;0.9398546705518984;-1.0043846232283062;0.0002960159527956296;0.041806872641990456;0.0122361578464362;0.00024049346639140574;0.037728153359844904;60.0;53.721595980000004;86.82889326
1.3428583200495947;0.8699118575237247;1.428794431554984;-0.0418068726419904;0.025200742623157878;0.0132558376669725;2.380663391614732;0.4053643274989291;0.16432023800865903;2.669515340908362;0.9326823963284856;-1.020699500356888;0.00015960115473875457;0.02549199551340875;0.0122361578464362;0.00024714784678442375;0.037728153359844904;60.0;53.72160785999999;86.82885906
1.0851686792351145;1.7514106103002258;5.15399951002056;-0.0112164780258998;0.024666980098637423;0.0132558376669725;1.9746534268224663;1.4096680458631918;1.9871639995277497;5.238086425761325;3.5012534811814486;-0.9370857550729071;0.001706016773259973;0.10604670133578054;-0.0193739165901906;0.0007805380251622667;0.0652595085143265;0.0;53.72164996;86.82882436
1.144522035391833;2.349539815763754;5.763712405879435;0.0132558376669725;0.025610005222311598;0.0132558376669725;1.7368329445798765;1.931007897478493;3.72879150012431;5.788015146199005;4.051182201619128;-0.8687672070969715;0.005417913336240332;0.17436524931171615;-0.0193739165901906;0.001262564704881502;0.0683185479759356;0.0;53.72170774;86.82879510000001
5.15399951002056;2.349539815763754;5.763712405879435;-0.0479249515652085;0.025610005222311598;0.0132558376669725;5.238086425761325;1.931007897478493;3.72879150012431;5.788015146199005;4.051182201619128;-0.8687672070969715;0.005417913336240332;0.17436524931171615;-0.0193739165901906;0.001262564704881502;0.0683185479759356;0.0;53.72170774;86.82879510000001
5.763712405879435;2.349539815763754;5.763712405879435;-0.0061180789232181;0.025610005222311598;0.0132558376669725;5.788015146199005;1.931007897478493;3.72879150012431;5.788015146199005;4.051182201619128;-0.8687672070969715;0.005417913336240332;0.17436524931171615;-0.0193739165901906;0.001262564704881502;0.0683185479759356;60.0;53.72170774;86.82879510000001
2.7441064778391606;4.691883239138628;2.7441064778391606;-0.0346691138982359;0.03143360484687551;-0.0346691138982359;3.9865513303876723;2.9973179918032797;8.983915143987646;10.42971825474474;7.209310711348921;-0.9850107066381156;0.0007191929559141385;0.07137758743754452;0.1764046089527888;0.006977741690241108;0.2243295605179973;90.0;53.72845013999999;86.85137878
-2.425524448961545;4.691883239138628;2.7441064778391606;-0.0622004690527174;0.03143360484687551;-0.0346691138982359;3.905005852216698;2.9973179918032797;8.983915143987646;10.42971825474474;7.209310711348921;-0.9850107066381156;0.0007191929559141385;0.07137758743754452;0.1764046089527888;0.006977741690241108;0.2243295605179973;90.0;53.72845013999999;86.85137878
-0.0550489359707788;4.691883239138628;2.7441064778391606;-0.1019679820536351;0.03143360484687551;-0.0346691138982359;3.2204075433958192;2.9973179918032797;8.983915143987646;10.42971825474474;7.209310711348921;-0.9850107066381156;0.0007191929559141385;0.07137758743754452;0.1764046089527888;0.006977741690241108;0.2243295605179973;90.0;53.72845013999999;86.85137878
-9.871786004439157;4.224002404048835;0.7784930447093146;-0.0484347914754767;0.02465327709814472;-0.0484347914754767;10.42971825474474;3.026603600639894;9.160329355406372;10.42971825474474;7.209310711348921;-0.9850107066381156;0.0008289902323989348;0.07137758743754452;0.1764046089527888;0.005711641845775814;0.19068012644029772;90.0;53.728448099999994;86.85125898
-1.8251904030649784;5.247651290798618;4.226500203240967;-0.1040073416947078;0.06348028986575702;0.0509839910268175;3.947115687096683;2.962423732450807;8.77595437058777;10.42971825474474;7.209310711348921;-0.99214846538187;0.0006994377641223688;0.06423982869379019;0.1764046089527888;0.008695923502657056;0.2498215560314061;90.0;53.7284427;86.85112045999999
0.7784930447093146;5.80216537517235;4.226500203240967;-0.0703579076170082;0.05921653933139222;0.0509839910268175;3.6988325069976264;2.7085096665229043;7.336024613648015;10.42971825474474;6.730885747747114;-0.99214846538187;0.00041901801537284656;0.05608239012949956;0.1764046089527888;0.010634843589672642;0.2498215560314061;90.0;53.728451899999996;86.85097606
4.226500203240967;2.6978727525708814;4.226500203240967;0.0509839910268175;0.060218978653858155;0.0509839910268175;5.6268748418366945;0.969423383833773;0.9397816971237228;5.6268748418366945;1.928042334839068;-0.99214846538187;0.0004419444353206647;0.05608239012949956;0.0326297542571632;0.002255938927926703;0.10604670133578051;0.0;53.72849384;86.85080808000001
4.093645076096215;1.526838957226297;4.226500203240967;-0.0723972672580809;0.05435668191854229;0.0509839910268175;5.581239397820544;0.8710727973923508;0.7587678183569353;5.6268748418366945;1.928042334839068;-0.99214846538187;0.000819268598543508;0.0652595085143266;-0.0142755174875089;0.0006909118392438092;0.05914142959110841;0.0;53.72857282;86.85063106
3.9924207754258094;0.8506755651126982;4.226500203240967;-0.0734169470786173;0.06853355992388384;0.0509839910268175;5.546437039921083;0.4991013395354371;0.2491021471260677;5.6268748418366945;1.1880832847343026;-0.9727745487916796;0.0009846923361261826;0.08463342510451699;-0.0397675130009177;0.00019672012036858977;0.0336494340776996;0.0;53.72869000000001;86.8504308
2.153503385642151;0.7907604773454782;4.093645076096215;-0.0173345569491179;0.040187546781610975;-0.0173345569491179;4.438791557102392;0.47417725066815586;0.22484406505121113;5.581239397820544;1.1424478407181518;-0.9727745487916796;0.0009139895444503661;0.08463342510451699;-0.0397675130009177;0.00017176619389477245;0.032629754257163204;30.0;53.72887565999999;86.85022222
3.744738238415515;0.7152849853063044;3.9924207754258094;-0.1305190170286529;0.04032185864345572;-0.0173345569491179;5.398745557322153;0.4280823725301014;0.1832545176710005;5.546437039921083;1.1076454828186915;-0.9727745487916796;0.0011901983181074282;0.08463342510451699;-0.0397675130009177;0.00013230779765804925;0.030590394616090505;30.0;53.72909194;86.85002378
3.291664724890719;0.6185481278559343;3.744738238415515;-0.0652595085143265;0.04044544294543394;-0.0173345569491179;5.075849661557591;0.3631103986944775;0.13184916164006238;5.398745557322153;0.9599540002197609;-0.9727745487916796;0.0012546626281647881;0.08463342510451699;-0.0397675130009177;8.936624918435574e-05;0.024472315692872393;0.0;53.729332320000005;86.8498392
3.557416483139461;0.2022403197588704;3.744738238415515;-0.0642398286937901;0.027584176769737723;-0.0642398286937901;5.212282790473551;0.21580490087302373;0.046571755240815596;5.398745557322153;0.5406783269855264;-0.939634954624248;0.0006181815410419918;0.06882838788620371;-0.0560823901294993;1.0709393445011707e-05;0.00815743856429079;0.0;53.72960843999999;86.84966988
3.248646871336613;0.8728433417625632;5.322459438956924;-0.0774956663607627;0.005649799195348275;-0.0642398286937901;4.940761680333578;0.5271306022849912;0.27786667186533753;6.161304957755702;1.3032377274190754;-0.9330070357907616;0.0009973252614035523;0.07545630671969006;-0.0560823901294993;0.0001732998206259761;0.03110023452635869;0.0;53.72996236;86.84953228
3.4670744216111107;0.9431332958480396;5.322459438956924;-0.0734169470786173;0.004858215254235424;-0.0642398286937901;4.858067230336626;0.548060026122548;0.30036979223344795;6.161304957755702;1.3032377274190754;-0.9330070357907616;0.0006217686679726055;0.05200367084735402;-0.0560823901294993;0.0002381800294579004;0.03110023452635869;0.0;53.730295739999995;86.84944582
5.322459438956924;1.1885974752500421;5.988884174429022;-0.0723972672580809;0.007224631216036864;-0.0723972672580809;6.161304957755702;0.728779093473537;0.5311189670841103;6.50597925301818;1.6479120226815533;-0.9330070357907616;0.001217855586615908;0.08361374528398069;-0.0560823901294993;0.0004723570332106289;0.0509839910268176;30.0;53.73062546;86.84939154
4.902372475383236;1.5650202886783575;7.744503676834213;-0.0734169470786173;0.01340016029448314;-0.0520036708473539;5.692747907309442;1.2218526646327272;1.4929239340700957;8.16145326748331;3.3033860371466837;-0.9330070357907616;0.0014078173518978433;0.08361374528398069;-0.0571020699500356;0.0008707360718957563;0.0795350260018355;30.0;53.7309365;86.84936465999999
5.988884174429022;1.1829541966160262;7.744503676834213;-0.0897318242071989;0.027826238400901728;-0.0173345569491179;6.50597925301818;1.003887482603397;1.0077900777277855;8.16145326748331;2.4687053601738684;-0.9330070357907616;0.0010491046588367266;0.08361374528398069;-0.0846334251045171;0.0005091640747595093;0.052003670847353994;0.0;53.73120332;86.84936012
7.744503676834213;1.1299145616464283;7.744503676834213;-0.0520036708473539;0.034538408477260495;-0.0101967982053635;8.16145326748331;0.9615298913513485;0.924539731962136;8.16145326748331;2.4687053601738684;-0.9839910268175792;0.00013703864621871395;0.03262975425716308;-0.0846334251045171;0.00041309145783531277;0.052003670847353994;0.0;53.73137682;86.84936466
7.044717776844551;0.6448677369643782;7.744503676834213;-0.0173345569491179;0.03661346371366938;-0.0010196798205363;7.476180188905172;0.6226122924947994;0.38764606676562974;8.16145326748331;1.6554740144651303;-0.9982665443050882;5.2195296207735495e-05;0.018354236769654086;-0.1070663811563169;0.0001180112772824248;0.02957071479555419;0.0;53.73152118;86.84936566
7.1892028068338805;0.6302128964853846;7.744503676834213;-0.0101967982053635;0.0274216152772046;0.023452635872336;7.428354994971463;0.7300466191113207;0.5329680660758699;8.16145326748331;1.970630496709287;-0.9941878250229428;1.3308760786038516e-05;0.009177118384827265;-0.1050270215152442;0.00013443927887768768;0.03161007443662689;0.0;53.73165354;86.84935465999999
6.743718115304132;0.9325708214866537;7.1892028068338805;-0.0010196798205363;0.01630850288449043;0.023452635872336;6.938721744999691;1.0271915103351514;1.0551223989046097;7.476180188905172;2.452610378366999;-0.9941878250229428;2.0794938728183834e-05;0.01223615784643628;-0.0866727847455898;0.0002669030385762008;0.0397675130009177;0.0;53.73181604;86.84932260000001
6.028753240707255;1.048442215546482;7.1892028068338805;0.023452635872336;0.017755316700054136;0.023452635872336;6.190822770774023;1.1104020778213388;1.2329927744299465;7.428354994971463;2.467389391123347;-0.9931681452024064;3.119240809227415e-05;0.013255837666972692;-0.0846334251045171;0.00034592380574328865;0.0418068726419904;0.0;53.731987260000004;86.84927878
4.921717681736003;0.8386125702774022;6.743718115304132;-0.0132558376669725;0.018034213088148534;0.023452635872336;5.023569810538173;0.893857460213598;0.798981159179504;6.938721744999691;1.9777561411515752;-0.9931681452024064;3.2959977884169745e-05;0.013255837666972692;-0.0846334251045171;0.0002155395399175947;0.0336494340776996;0.0;53.73216866;86.84921954
4.869376472552639;0.49630706475620384;6.028753240707255;-0.023452635872336;0.01909008384505864;0.023452635872336;4.960965603848116;0.5220543398310317;0.2725407337364143;6.190822770774023;1.2298571669259069;-0.9850107066381156;7.351010840412173e-05;0.021413276231263434;-0.0846334251045171;6.966304473940608e-05;0.020393596410727105;0.0;53.73235486;86.8491395
4.99477366352444;0.8614926506938053;6.914035511275309;0.0061180789232181;0.015031201192242926;0.0122361578464362;5.035621946472795;0.8279542964528509;0.6855083170147354;6.917448516194642;1.9564829123465257;-0.9850107066381156;7.662934921334902e-05;0.021413276231263434;-0.0846334251045171;0.00021782698317769435;0.0356887937187723;0.0;53.73253392;86.84904207999999
5.498683875996021;1.111422643031274;7.267660603777432;0.0122361578464362;0.01800536294475454;0.0122361578464362;5.513025025513345;1.082414915907826;1.1716220501797459;7.271302930517425;2.310337326669309;-0.9850107066381156;5.0947599884044076e-05;0.01835423676965442;-0.0846334251045171;0.000365938934269163;0.041297032731722305;0.0;53.73266142;86.84893918
6.914035511275309;1.0967236586525864;7.404176552115362;-0.0142755174875089;0.023756570398162043;0.0122361578464362;6.917448516194642;1.0827810598548717;1.1724148235804392;7.409352576296076;2.3737306298232808;-0.9850107066381156;7.694127329427073e-05;0.01835423676965442;-0.0876924645661262;0.0003729572260899238;0.04282655246252681;0.0;53.73276897999999;86.84882146
7.267660603777432;0.8717471711074212;7.741281406537077;-0.0285510349750178;0.025674881843609998;0.0122361578464362;7.271302930517425;0.8679389267413301;0.753317980552892;7.747131709086616;2.2341066835732706;-0.9850107066381156;6.009737292444315e-05;0.01835423676965442;-0.0948302233098807;0.00024285889067174159;0.03925767309064951;0.0;53.73285928;86.84869160000001
7.404176552115362;0.7618987325446294;7.741281406537077;-0.0448659121035994;0.024563492162112614;0.0091771183848271;7.409352576296076;0.7565064552119726;0.5723020167773843;7.747131709086616;1.9662276714225406;-0.9850107066381156;6.477623413828408e-05;0.01835423676965442;-0.1009483022330988;0.00016986865573582677;0.03313959416743141;0.0;53.73293892;86.84855108000001
7.741281406537077;0.9159235570811114;7.741281406537077;-0.0520036708473539;0.03001221036530223;0.0122361578464362;7.747131709086616;0.9045764980215295;0.8182586407728942;7.747131709086616;1.9662276714225406;-0.9850107066381156;9.534479406871012e-05;0.021413276231263434;-0.1009483022330988;0.00023973964986251508;0.03313959416743141;0.0;53.733008819999995;86.84839058
5.762392019227947;0.903976435642548;7.741281406537077;0.0091771183848271;0.029740758544515532;0.0122361578464362;5.780904037664075;0.8903183985860351;0.792666850860802;7.747131709086616;1.9662276714225406;-0.9850107066381156;6.831137372207567e-05;0.021413276231263434;-0.1009483022330988;0.00023888185863997757;0.03313959416743141;0.0;53.73306907999999;86.84817436
5.8997664626123525;0.888940001870121;7.741281406537077;0.0122361578464362;0.02664273322102023;0.0122361578464362;5.935063259124944;0.884699595617498;0.7826933744857645;7.747131709086616;1.9662276714225406;-0.9850107066381156;6.103314516721184e-05;0.021413276231263434;-0.1009483022330988;0.00022463732561117357;0.03313959416743141;0.0;53.73311774;86.84794142
6.2421568110377015;0.8548211894365232;7.633326578664921;-0.0224329560517997;0.013592756548981807;0.0122361578464362;6.296141018239921;0.8664706124637628;0.7507713222633282;7.688843159044305;1.9079391213802301;-0.989089425920261;3.899051011534092e-05;0.01733455694911812;-0.1009483022330988;0.00021075670401011294;0.0316100744366269;0.0;53.73315376000001;86.84769584
7.333793653610896;0.7305320616980914;7.633326578664921;-0.0020393596410727;0.013992296027665496;0.0122361578464362;7.383285185185773;0.7360375223018932;0.54175123423631;7.688843159044305;1.753779899919361;-0.989089425920261;5.2715169675941035e-05;0.01733455694911812;-0.1040073416947078;0.00015357062250761545;0.028551034975017903;0.0;53.733176119999996;86.84744171999999
7.633326578664921;0.5582323679606906;7.633326578664921;-0.0010196798205363;0.012110173631310837;0.0112164780258998;7.688843159044305;0.5596918016179255;0.31325491279831935;7.688843159044305;1.392702140804384;-0.989089425920261;4.9387979479431054e-05;0.01733455694911812;-0.1091057407973896;8.869041367569059e-05;0.02345263587233609;0.0;53.73318898;86.84718322
6.988797950582033;0.7756689501348942;7.633326578664921;0.0112164780258998;0.016730208464968865;0.0112164780258998;7.042111727972738;0.7488827357356038;0.5608253518828422;7.688843159044305;1.8497953908662437;-0.989089425920261;5.718608150249913e-05;0.01733455694911812;-0.1004384623228306;0.00017176619389477356;0.032119914346895095;0.0;53.73320166;86.84696038
7.50958584813926;1.0942694197189633;7.633326578664921;-0.0015295197308045;0.019871987481078882;0.0112164780258998;7.572328596236033;1.0560219448148638;1.1151823479305671;7.688843159044305;2.354048963258358;-0.986030386458652;8.08923116526251e-05;0.020393596410727022;-0.0897318242071989;0.00036734259263331546;0.0428265524625268;0.0;53.7332158;86.84672876
5.71893450041839;0.9630009879034002;7.50958584813926;-0.0336494340776996;0.024457440841513318;0.0112164780258998;5.8390477681780615;0.9258139976454257;0.8571315582362042;7.572328596236033;2.2375344004500857;-0.986030386458652;0.000180708017547891;0.03364943407769949;-0.0897318242071989;0.00028437078710787355;0.04078719282145411;0.0;53.7332306;86.84647220000001
5.197284348262205;1.0993574538544284;7.50958584813926;-0.0305903946160905;0.019132247880549878;-0.0015295197308045;5.334794195785947;1.059457440870502;1.1224500690158732;7.572328596236033;2.842424922267096;-0.986030386458652;0.00017155824450749198;0.03364943407769949;-0.0795350260018354;0.00036708265589921306;0.05098399102681761;0.0;53.733243279999996;86.84620328000001
5.817649588223615;0.7105189313057962;5.817649588223615;-0.0479249515652085;0.015905044156754845;-0.0081574385642908;5.945328397858471;0.663282432659936;0.4399435854752826;5.945328397858471;1.5027761015225574;-0.986030386458652;0.00014556457109726496;0.03364943407769949;-0.0734169470786173;0.00017202613062887497;0.03059039461609049;0.0;53.73325296;86.84592112
4.555160494443265;0.6620893206066728;5.817649588223615;-0.0081574385642908;0.01734055402833186;-0.0081574385642908;4.729903673968937;0.6328873621461298;0.4005464131642865;5.945328397858471;1.5027761015225574;-0.986030386458652;0.00014525264701634232;0.03364943407769949;-0.0734169470786173;0.0001509712551665917;0.03059039461609049;0.0;53.73326152;86.84557128
4.197242489238422;0.726827086587222;5.817649588223615;-0.0142755174875089;0.018829596525562743;-0.0081574385642908;4.442552296335913;0.7199885486373281;0.5183835101688862;5.980435291397072;1.5378829950611586;-0.9982665443050882;8.037243818441727e-05;0.021413276231263323;-0.0734169470786173;0.00017800467551322676;0.03059039461609049;0.0;53.73326588;86.84521212
5.462900841720868;0.6571970462594148;5.704883969805787;-0.0428265524625267;0.016530138985752573;-0.0081574385642908;5.687556939350019;0.6816329919814285;0.46462353575755416;5.980435291397072;1.5378829950611586;-0.9982665443050882;5.5106587629672885e-06;0.006118078923218029;-0.0734169470786173;0.00013641479805686512;0.026511675333945092;0.0;53.733266019999995;86.8448641
5.704883969805787;0.7068754828906746;6.07472800745893;-0.0448659121035994;0.016841703128020875;-0.0071377587437544;5.980435291397072;0.7096584418506662;0.5036151040899154;6.31413134436931;1.8715790480333965;-0.9992862241256244;4.4397194184663895e-05;0.016314877128581706;-0.0734169470786173;0.0001655277122763182;0.03466911389823589;0.0;53.7332631;86.84452325999999
5.448800509473431;0.841473043072493;7.467089530833;-0.0305903946160905;0.01716275930859264;-0.0071377587437544;5.73140199426247;0.8231094826767071;0.6775092204723164;7.682564588153622;1.995007648803603;-0.9992862241256244;4.127795337543636e-05;0.016314877128581706;-0.095849903130417;0.00022479328765163427;0.035688793718772316;0.0;53.73326082;86.84419842
6.07472800745893;0.784568244155822;7.467089530833;-0.0071377587437544;0.01662109385702049;-0.0071377587437544;6.31413134436931;0.759550713684285;0.5769172866583067;7.682564588153622;1.9511625938911523;-0.9992862241256244;4.543694112107182e-05;0.016314877128581706;-0.095849903130417;0.00019474460118941282;0.035688793718772316;0.0;53.73325652;86.84394324
7.467089530833;0.7954353161298742;7.467089530833;-0.0499643112062812;0.016992284256120267;-0.0071377587437544;7.682564588153622;0.7673529573764761;0.588830561194424;7.682564588153622;1.9511625938911523;-1.0003059039461608;4.190180153728064e-05;0.015295197308045294;-0.095849903130417;0.00019994333587145782;0.035688793718772316;0.0;53.73325314;86.84370434
6.380847020698261;0.6973059195373995;7.467089530833;-0.0346691138982359;0.017047265725808614;-0.0071377587437544;6.6369273246841445;0.6669818389340222;0.4448647734678099;7.682564588153622;1.7490838395561665;-1.0003059039461608;4.5228991733789676e-05;0.015295197308045294;-0.0989089425920261;0.00014972355884290052;0.03262975425716322;0.0;53.73325325999999;86.84346894000001
5.640818210551747;0.8656332293917631;7.467089530833;-0.0469052717446721;0.016652342416017412;-0.0081574385642908;5.9334807485974554;0.8632849515187481;0.7452609075187272;7.682564588153622;2.1970087225827477;-1.0003059039461608;2.110686280910179e-05;0.01121647802590009;-0.0938105434893443;0.0002341510100793152;0.037728153359845015;0.0;53.73325594000001;86.84323098
6.784681872912748;1.5080266888628264;6.784681872912748;-0.0295707147955541;0.01400714984928722;-0.0081574385642908;6.971854619861458;1.5037109601813703;2.261146651769579;6.971854619861458;3.815189070968794;-0.9992862241256244;2.6721496265711614e-05;0.012236157846436502;-0.0509839910268175;0.0007187770571395733;0.0683185479759356;0.0;53.7332581;86.84298226
5.319720529861272;1.4810280089216517;6.784681872912748;-0.0081574385642908;0.015346096607823411;-0.0081574385642908;5.485555865570874;1.486907043519951;2.210892556069241;6.971854619861458;3.815189070968794;-0.9992862241256244;9.877595895886224e-06;0.008157438564291297;-0.0509839910268175;0.0006855051551744838;0.0683185479759356;0.0;53.733257419999994;86.84271022
2.9194457675370824;1.4510801702595286;6.784681872912748;-0.0295707147955541;0.009619640187678835;-0.0081574385642908;3.1566655488926636;1.4501943193669868;2.1030635639242785;6.971854619861458;3.815189070968794;-0.9870500662791885;5.853775251983208e-05;0.020393596410727244;-0.0509839910268175;0.0006647102164463025;0.0683185479759356;0.0;53.733257019999996;86.84241286
4.130818402340619;0.8813176640219658;5.319720529861272;-0.0132558376669725;0.015819832097517902;0.0122361578464362;4.2417582663884845;0.8447832992182974;0.7136588226381515;5.485555865570874;2.3288903166782107;-0.9870500662791885;8.265988144451981e-05;0.023452635872336036;-0.0509839910268175;0.0002492273406572473;0.0428265524625268;0.0;53.733256340000004;86.8420845
4.252839450540938;0.7356260660109639;4.755449695261352;-0.0214132762312633;0.0160157912452714;0.0122361578464362;4.330848565759422;0.6509553005440073;0.4237428033063389;4.773199527383822;1.6165339784911583;-0.9870500662791885;7.616146309196322e-05;0.023452635872336036;-0.0509839910268175;0.00017228606736297797;0.0326297542571633;0.0;53.73327064;86.84165336
4.672377852941954;0.29411316335266474;4.755449695261352;0.0122361578464362;0.013615685027266672;0.0122361578464362;4.718421042540739;0.2756105226192557;0.07596116017845927;4.773199527383822;0.587349423155878;-0.9870500662791885;9.180965448492206e-05;0.023452635872336036;-0.0723972672580809;3.25440791096017e-05;0.011216478025899895;0.0;53.7333;86.84122704
4.755449695261352;0.5269814431283611;4.755449695261352;-0.020393596410727;0.014176850242838475;0.0122361578464362;4.773199527383822;0.5342956487961836;0.28547184032253475;4.773199527383822;1.3272071696450944;-0.9870500662791885;9.35252369299968e-05;0.023452635872336036;-0.0601611094116447;8.993810999938107e-05;0.0234526358723361;0.0;53.733346299999994;86.84080742
4.173267635889167;0.5650869467595752;4.755449695261352;-0.0101967982053635;0.013481385851769924;0.0122361578464362;4.185850104227944;0.568097610722032;0.32273489530808147;4.773199527383822;1.3272071696450944;-0.9890894259202612;8.156814716129227e-05;0.021413276231263323;-0.0601611094116447;9.908788303978071e-05;0.0234526358723361;0.0;53.733412;86.8404072
3.430671664400619;0.6976593102332045;5.268498050485692;-0.0193739165901906;0.009635839424841442;0.003059039461609;3.4459923577387275;0.6926852665897199;0.4798128785504713;5.268798520618519;1.8228061628797918;-0.9890894259202612;4.803630846210514e-05;0.01580503721831339;-0.0601611094116447;0.00014587649517818778;0.031610074436626896;0.0;53.73350142;86.84004094
4.714116144829995;0.6792863139385436;5.268498050485692;-0.0163148771285816;0.01520998663217733;0.0173345569491179;4.715392576479981;0.6730957088898223;0.45305783332589245;5.268798520618519;1.8228061628797918;-0.9890894259202612;5.011580233492372e-05;0.016314877128581706;-0.0601611094116447;0.00013568697520137916;0.031610074436626896;0.0;53.73360634000001;86.8397721
5.268498050485692;0.6929235909575241;5.268498050485692;0.003059039461609;0.02492486297864855;0.040787192821454;5.268798520618519;0.6898793618344659;0.4759335338851299;5.268798520618519;1.8228061628797918;-0.9890894259202612;4.283757378005822e-05;0.016314877128581706;-0.0601611094116447;0.0001406777604961424;0.031610074436626896;0.0;53.73372816;86.83951504
4.349178073841098;0.3976959472135876;5.268498050485692;0.0173345569491179;0.021791108871693807;0.040787192821454;4.353740408183251;0.38403842391049314;0.14748551103965563;5.268798520618519;0.9150581124352684;-0.9890894259202612;0.00019708403179633552;0.03619863362904052;-0.0764759865402263;3.94583962367218e-05;0.015295197308045294;0.0;53.73386505999999;86.8392833
4.846868579587041;0.7228904532657806;5.268498050485692;0.040787192821454;0.020951877160576806;0.040787192821454;4.872650120856651;0.6902721031249633;0.47647557635256;5.268798520618519;1.8382161163046096;-0.9952075048434792;0.0002674229120443955;0.035688793718772205;-0.0601611094116447;0.00013880621601060616;0.031610074436626896;0.0;53.73399182000001;86.83901582
4.294092324363169;0.5793230449133404;4.846868579587041;-0.003059039461609;0.02126221926212439;0.040787192821454;4.357373152088219;0.5495466841071046;0.3020015580131138;4.872650120856651;1.4420677165427414;-0.974813908432752;0.0005096839482277131;0.05608239012949945;-0.0601611094116447;0.00010090744017849653;0.0244723156928724;0.0;53.734090300000005;86.83871494
3.3396070935131887;0.855259272791334;4.846868579587041;-0.0132558376669725;0.027513410494749754;0.040787192821454;3.4305824043139097;0.825205950103167;0.6809648600856705;4.872650120856651;2.1383000361504227;-0.974813908432752;0.0005521056232331979;0.05608239012949945;-0.0469052717446721;0.00021699518562856703;0.037728153359845;0.0;53.7341584;86.83838367999999
3.770315835617929;0.6321938540671205;4.294092324363169;-0.0005098399102681;0.017167302325209563;-0.0005098399102681;3.855735655155315;0.6145522069791944;0.3776744151029987;4.357373152088219;1.623023067381991;-0.974813908432752;0.0005142328410744898;0.05608239012949945;-0.0469052717446721;0.00012237821441534426;0.030080554705822396;0.0;53.734198400000004;86.83800896
2.6269898393972326;0.42611267144100756;3.770315835617929;-0.0346691138982359;0.01638007011402442;-0.0005098399102681;2.7343500847062283;0.4189073090641412;0.17548333358735993;3.855735655155315;1.1213855704490867;-0.9493219129193432;0.0012694790220086432;0.0815743856429082;-0.0469052717446721;4.1381928069079705e-05;0.017334556949117993;0.0;53.73421294;86.83755758
3.141365701280709;0.45351163734658473;3.770315835617929;-0.0367084735393086;0.018663205075683857;-0.0005098399102681;3.252181366443427;0.441345227386911;0.19478560973720419;3.855735655155315;1.1213855704490867;-0.9493219129193432;0.0009692520941205446;0.07239726725808115;-0.0469052717446721;4.483908663263974e-05;0.017334556949117993;0.0;53.734237719999996;86.83709084
3.4727765404992006;0.554164379231971;3.4727765404992006;-0.0071377587437544;0.013294998277154399;-0.0071377587437544;3.580699915536118;0.4944009518360653;0.24443230117640735;3.580699915536118;1.2930297836646627;-0.9493219129193432;0.0011697153034602155;0.07239726725808115;-0.0336494340776996;9.162769877104687e-05;0.0239624757826042;0.0;53.73428024;86.83661624000001
2.8950509996462097;0.5726191939705354;3.4727765404992006;-0.040787192821454;0.013880385704892972;-0.0071377587437544;3.036191284532664;0.5176611950648695;0.26797311287598885;3.580699915536118;1.2930297836646627;-0.9493219129193432;0.001294536923176119;0.0795350260018356;-0.0336494340776996;0.00010909544730271838;0.025491995513408694;0.0;53.734307820000005;86.83604989999999
2.009731180235648;0.6069525202275428;3.4727765404992006;-0.0285510349750178;0.031350801887471275;-0.0071377587437544;2.2876701318714554;0.5361132700473048;0.28741743832081434;3.580699915536118;1.2930297836646627;-0.9493219129193432;0.0010889269665012523;0.0795350260018356;-0.0336494340776996;0.00012001279013501364;0.025491995513408694;0.0;53.734300399999995;86.83547928
3.2894274051522565;0.5320411954040423;3.2894274051522565;-0.0173345569491179;0.027223732592581214;-0.0173345569491179;3.4981288032745135;0.5216990759254856;0.2721699258215056;3.5227442037359102;1.2350740718644548;-0.9584990313041704;0.0008393877017630608;0.07035790761700844;-0.0336494340776996;0.00010948535240387199;0.025491995513408694;0.0;53.73425689999999;86.83493914
2.413808290621218;0.5830199002044943;3.2894274051522565;-0.0876924645661262;0.0288192618365486;-0.0173345569491179;2.7540076327941034;0.5425406726386225;0.2943503814671689;3.5227442037359102;1.2350740718644548;-0.9584990313041704;0.0008699562616934855;0.07035790761700844;-0.0336494340776996;0.0001250815564500076;0.025491995513408694;0.0;53.73415372000001;86.83442124000001
3.1490448621179654;0.5028520200755017;3.2894274051522565;-0.0326297542571632;0.0479596515075338;0.0469052717446721;3.5227442037359102;0.4168883630464566;0.1737959072435542;3.5227442037359102;0.8407601161571518;-0.9635974304068522;0.0005538731930251217;0.0652595085143266;-0.037728153359845;9.0977856935791e-05;0.021413276231263295;0.0;53.73398072;86.83390007999999
2.1529557277803573;0.4734979337034456;3.1880280274771784;-0.020393596410727;0.053033154375225176;0.0469052717446721;2.6819840875787584;0.39612593326191053;0.15691575500261962;3.5227442037359102;0.8407601161571518;-0.9635974304068522;0.0008188007124221399;0.07953502600183548;-0.037728153359845;8.494732470461889e-05;0.020393596410727;0.0;53.73376204;86.83350732000001
2.412668378369757;0.46990260136875095;3.1880280274771784;0.0469052717446721;0.034836656328882026;0.0469052717446721;2.8306566614446322;0.3646859209552283;0.13299582094296303;3.5227442037359102;0.8407601161571518;-0.9890894259202612;0.00048088295808918727;0.05404303048842651;-0.037728153359845;7.694127329426899e-05;0.020393596410727;0.0;53.73350995999999;86.83317332
3.1880280274771784;0.42298076570064114;3.1880280274771784;0.0275313551544814;0.030636245845345415;0.0469052717446721;3.4152782381705316;0.30227181434284883;0.09136824974611768;3.4152782381705316;0.7332941505917732;-0.9635974304068522;0.0008439625882832396;0.07953502600183548;-0.037728153359845;6.654380393017891e-05;0.020393596410727;0.0;53.73321684;86.83291091999999
3.00904888385311;0.37946713932304355;3.1880280274771784;-0.020393596410727;0.042623348319759245;0.0469052717446721;3.207723722066327;0.3550360162764459;0.12605057285344876;3.4152782381705316;0.9119426144377942;-0.962577750586316;0.0010685479265476045;0.08055470582237167;-0.0387478331803813;6.207289210362021e-05;0.0193739165901907;0.0;53.73289122;86.83272866
2.6656939772842896;0.5850848883475466;3.1880280274771784;-0.0091771183848271;0.03205591828747164;0.0275313551544814;2.8583533915966464;0.5547054639715141;0.30769815175985277;3.4152782381705316;1.3863869776542095;-0.962577750586316;0.001083104383657329;0.08055470582237167;-0.0300805547058223;0.00012066263197027034;0.028041195064749704;0.0;53.73254906;86.83263738000001
2.300360863933408;0.534644085054205;3.00904888385311;-0.0622004690527174;0.023815582164018908;-0.0091771183848271;2.5033356237327373;0.48064518316376414;0.2310197920985284;3.207723722066327;1.1788324615500048;-0.962577750586316;0.000675107685810425;0.062200469052717366;-0.0300805547058223;7.699326064109035e-05;0.0219231161415316;0.0;53.73219362;86.83258914
1.7255995248033078;0.37913345134788085;2.6656939772842896;-0.020393596410727;0.02354776085293345;-0.0091771183848271;2.028891260516322;0.32342532374305893;0.10460394003830248;2.8583533915966464;0.8294621310803243;-0.962577750586316;0.0006903919657756363;0.062200469052717366;-0.0300805547058223;3.410369951421719e-05;0.014785357397777102;0.0;53.73182763999999;86.83256107999999
1.8778702693780749;0.689702386881023;2.3438813494204105;-0.0560823901294993;0.024097690013452598;-0.0071377587437544;2.1991227610257518;0.4862725024473058;0.23646094663636502;2.55396178796282;1.2061232497760126;-0.962577750586316;0.0005070845808867098;0.062200469052717366;-0.0112164780258998;0.0001387542286637883;0.029570714795554204;0.0;53.7314635;86.83252462
2.3438813494204105;0.6382101873548633;2.3438813494204105;-0.0224329560517997;0.01826052689563974;-0.0071377587437544;2.55396178796282;0.4447065286744013;0.19776389664563612;2.55396178796282;1.2061232497760126;-0.9635974304068522;0.0004895128576613999;0.061180789232181176;-0.0112164780258998;0.00012222225237488456;0.029570714795554204;0.0;53.73101156;86.83243107999999
0.6391597861355619;0.6711172514949343;2.3438813494204105;-0.0071377587437544;0.01826052689563974;-0.0071377587437544;1.3478385381868074;0.5132993599372379;0.263476232911978;2.55396178796282;1.2061232497760126;-0.9635974304068522;0.0005625030925973071;0.061180789232181176;-0.0112164780258998;0.000133867418062666;0.029570714795554204;0.0;53.73056750000001;86.8323147
1.9389996036708277;0.8499980220131421;2.3438813494204105;-0.020393596410727;0.021078042269802588;0.0275313551544814;2.2005150121117953;0.5514029555537863;0.30404521939345075;2.55396178796282;1.2061232497760126;-0.9635974304068522;0.0003987429501128929;0.0530233506678901;-0.0056082390129499;0.00021249828012860007;0.0351789538085041;0.0;53.730123000000006;86.83218764
1.2351260711961416;1.3146476194376806;1.9389996036708277;-0.020393596410727;0.020124150459865944;0.0275313551544814;1.5002760692092405;0.47375540164625524;0.22444418058900462;2.3148184001707937;0.9669798619839862;-0.9635974304068522;0.0009597384096523777;0.0831039053737126;0.0285510349750178;0.0005377311218373488;0.061180789232180996;0.0;53.72967963999999;86.83205660000002
0.3247437180706214;1.4256699287266612;1.9389996036708277;0.0275313551544814;0.024333842283637636;0.0275313551544814;1.3603403433095342;0.4857828197996459;0.23598494801249523;2.3952293141569445;1.0348889708474103;-0.9635974304068522;0.0010754102563278883;0.0831039053737126;0.0285510349750178;0.0006294368016286258;0.061180789232180996;30.0;53.729232380000006;86.83192678
-1.562311729409306;1.6684584415382933;1.7272054749091614;-0.0152951973080452;0.029539052608952614;0.0275313551544814;2.3148184001707937;0.5599180381566795;0.3135082094532248;2.5872071046058585;1.2268667612963242;-0.979912307535434;0.0006796825723305935;0.06678902824513078;0.0356887937187723;0.0008662911537426069;0.06525950851432641;0.0;53.728868399999996;86.83183928
1.7272054749091614;1.5849344266458523;1.7272054749091614;-0.037728153359845;0.031822343231063116;0.0275313551544814;2.3952293141569445;0.5064496450194703;0.2564912429403475;2.5872071046058585;1.2268667612963242;-0.979912307535434;0.000735361020775297;0.06678902824513078;0.0356887937187723;0.0007801221263877073;0.06525950851432641;0.0;53.728496199999995;86.8317538
-2.0243296850207657;1.5648615008006042;1.7272054749091614;-0.0499643112062812;0.014098709890199183;-0.0152951973080452;2.5872071046058585;0.419236949249697;0.17575961961619302;2.5872071046058585;0.9668963437215057;-0.979912307535434;0.0005992061594525255;0.06678902824513078;0.0356887937187723;0.0007598470611277313;0.06525950851432641;30.0;53.728122600000006;86.83165668
0.7396383174461372;1.3872377418195112;1.7272054749091614;-0.0453757520138676;0.011544243741979389;-0.0214132762312633;1.7694631547275619;0.46333840149655137;0.21468247430137943;2.5872071046058585;0.987909876252048;-0.979912307535434;0.00030911676419441474;0.04588559192413577;0.0356887937187723;0.0005863652847878823;0.06525950851432641;30.0;53.727750879999995;86.83153072000002
-0.0574057618895953;1.0579695835268421;0.7396383174461372;-0.0474151116549403;0.018279733906390937;-0.0091771183848271;1.6203107608843528;0.40773972539934616;0.16625168366873422;2.5872071046058585;0.987909876252048;-0.9982665443050882;0.0001369346715250742;0.027531355154481574;0.0356887937187723;0.00034930298328662173;0.0489446313857448;0.0;53.7273586;86.8313586
-0.2630306341263889;1.5809491133257174;0.7396383174461372;-0.0214132762312633;0.01817420171627202;-0.0091771183848271;1.5992972283538105;0.9405225143344434;0.8845825999699835;3.8185874104194553;2.2192901820656448;-0.9982665443050882;0.00015939320535151216;0.027531355154481574;0.0591414295911083;0.0007666054162143909;0.0723972672580808;0.0;53.7269481;86.83113754
-1.111784661473224;1.5550045206741234;-0.0574057618895953;-0.0091771183848271;0.019989365864428957;-0.0091771183848271;1.988975536009445;1.1037816865666177;1.218334011599847;3.8185874104194553;2.2192901820656448;-0.9982665443050882;0.00025858506308493114;0.03670847353930862;0.0591414295911083;0.0007631222639774234;0.058121749770571995;0.0;53.72645666;86.8308509
-3.3867705072605703;1.6128634508840303;0.1708495046943462;-0.0122361578464362;0.02335712348586245;0.0122361578464362;3.8185874104194553;1.0895750295632707;1.1871737450478022;3.8185874104194553;2.2192901820656448;-0.9982665443050882;0.0003072452197088733;0.03670847353930862;0.0591414295911083;0.0008211401430290465;0.0622004690527173;30.0;53.72596606;86.83056509999999
-3.0415474257808137;1.4607351967108106;0.1708495046943462;-0.0520036708473539;0.03945910588536625;0.0122361578464362;3.6374618386996747;0.9863547955418479;0.9728957826884006;3.8185874104194553;2.127812598247362;-0.9982665443050882;0.00027730050794028924;0.03670847353930862;0.0591414295911083;0.000674067938873987;0.0622004690527173;30.0;53.72547806;86.83032797999999
0.1708495046943462;1.7248598666115043;0.2807061754251267;0.0122361578464362;0.05299343815883256;0.0122361578464362;1.6907748121720934;0.9804769965048391;0.9613351406751504;3.8185874104194553;2.127812598247362;-0.9992862241256244;0.0002736613936628447;0.03568879371877243;0.0591414295911083;0.0009385795594964462;0.06423982869379;30.0;53.72501208;86.83017432
-1.4470568110435844;1.8145017527158556;1.6812622142018123;-0.0866727847455898;0.05459764170124853;0.0122361578464362;2.207744953977976;0.7889676697302966;0.6224699838796544;3.6374618386996747;1.9466870265275813;-1.0054043030488429;0.00020295860198702288;0.029570714795553954;0.0550627103089629;0.0010561749380043077;0.08463342510451699;30.0;53.724546759999996;86.83009812
0.2807061754251267;1.7845287340051184;3.2993662446732666;-0.1177730192719486;0.06468580675999118;0.0285510349750178;2.0237003409890777;0.9823936201645987;0.965097224940106;4.150731816289961;2.459957004117868;-0.9901091057407974;0.0003036061054314344;0.04384623228306306;0.0254919955134087;0.0009646772076003117;0.0825940654634443;30.0;53.7241573;86.83011314000001
1.6812622142018123;1.8505240329058674;3.2993662446732666;-0.0040787192821454;0.06464078444254083;0.0285510349750178;2.978786681481236;0.9290121201238601;0.8630635193370296;4.150731816289961;2.1270314753008837;-0.9901091057407974;0.0002490193912699635;0.04384623228306306;0.0254919955134087;0.001045465544559294;0.0825940654634443;0.0;53.723765979999996;86.83016726000001
3.2993662446732666;1.1240935181826637;3.2993662446732666;0.0285510349750178;0.06275215990116975;0.0285510349750178;4.150731816289961;0.8918019422446885;0.7953107041913987;4.150731816289961;2.1270314753008837;-0.9901091057407974;0.0003039180295123654;0.04384623228306306;-0.0050983991026817;0.0003767003150609986;0.0520036708473539;0.0;53.72337344;86.83023552
2.299724161352276;0.5778908863499758;3.2993662446732666;-0.1019679820536351;0.04847180780828707;0.0285510349750178;3.740854000401801;0.5088560179645728;0.2589344470187616;4.21638170163909;1.2375950201578543;-0.9901091057407974;7.829294431161252e-05;0.020393596410727133;-0.0295707147955541;9.596864223055605e-05;0.027531355154481497;0.0;53.722984159999996;86.83029167999999
2.467716053669617;0.4607274122597393;3.2993662446732666;-0.0336494340776996;0.047494536301972916;0.0285510349750178;4.056003183526294;0.38488780499189346;0.1481386224314778;4.798820129913581;1.0579661295117804;-0.9901091057407974;7.143061453131258e-05;0.020393596410727133;-0.040787192821454;6.217686679726149e-05;0.016314877128581595;0.0;53.72260704;86.83033952000001
2.397834349855877;0.3741694621157194;3.131517949705201;-0.0152951973080452;0.03237704219485776;-0.0152951973080452;4.21638170163909;0.39362087412111857;0.15493739254387348;4.798820129913581;1.0579661295117804;-0.9931681452024064;5.271516967594532e-05;0.01733455694911812;-0.0382379932701131;4.29415484736945e-05;0.016824717038849794;0.0;53.7222433;86.83038026
3.131517949705201;0.3586412285148078;3.131517949705201;-0.0458855919241358;0.027154898771700377;-0.0152951973080452;4.798820129913581;0.32975080546459407;0.10873559370454856;4.798820129913581;0.7428169463872871;-0.9931681452024064;0.0001275769490973906;0.029570714795553954;-0.0382379932701131;4.023820643903095e-05;0.016824717038849794;0.0;53.721895159999995;86.83039052
2.168570237142999;0.3870929020461614;3.131517949705201;-0.0520036708473539;0.0262594776838093;-0.0152951973080452;4.394658580079115;0.34421755789375785;0.11848572716234254;5.080006053264866;0.8636243516257762;-0.9901091057407974;0.0001484758625192127;0.03262975425716297;-0.0382379932701131;4.424123214420578e-05;0.016824717038849794;0.0;53.72155764;86.8303346
2.5024789872748623;0.8233421236021188;4.32003936673416;-0.0887121443866625;0.018824073839852025;-0.0438462322830631;4.76694218174228;0.6729159136221783;0.4528158268059709;6.162706968490328;1.7680483884112128;-0.9707351891506067;0.0003927124178817024;0.05200367084735358;-0.0382379932701131;0.00017800467551323;0.0351789538085042;0.0;53.721240480000006;86.83022224
2.8860677864202544;1.3409898094896553;4.32003936673416;-0.0438462322830631;0.07328086364915086;-0.0438462322830631;5.080006053264866;0.692145765351204;0.4790657604936039;6.162706968490328;1.7680483884112128;-0.954420312022025;0.0007618225803069237;0.06831854797593528;-0.0101967982053635;0.0005188337212681153;0.0632201488732538;0.0;53.720965220000004;86.83004938
4.32003936673416;2.477477900874743;4.32003936673416;-0.0469052717446721;0.07635488865706505;-0.0438462322830631;6.162706968490328;0.6126720050585187;0.3753669857824256;6.162706968490328;1.533443908120617;-0.954420312022025;0.0008404274486994461;0.06831854797593528;0.037728153359845;0.001866657674935161;0.1111451004384623;0.0;53.72073888;86.82977696
0.5969220728757069;2.7061656697125516;4.32003936673416;-0.2166819618639747;0.07678432792934163;-0.0438462322830631;4.629263060369711;0.6391440264836115;0.40850508658968343;6.162706968490328;1.5588760443577634;-0.954420312022025;0.000697982118411414;0.061180789232181065;0.037728153359845;0.002200364454175644;0.1111451004384623;60.0;53.72060778;86.82948714
-2.099574379287616;2.4693827705181777;4.32003936673416;-0.1662078107474253;0.07864402497254566;-0.0356887937187723;4.901195738603224;0.6417281112454217;0.4118149687626164;6.162706968490328;1.5588760443577634;-0.954420312022025;0.00070307687839982;0.061180789232181065;0.037728153359845;0.0018167498219875274;0.1111451004384623;60.0;53.720586559999994;86.82923552
-1.2361430247206473;1.0977940536468052;0.5969220728757069;-0.0836137452839808;0.07150129849396633;-0.0356887937187723;4.603830924132565;0.17329245449195765;0.030030274783847215;4.945646940821304;0.34181601668873984;-0.954420312022025;0.0006490100377065481;0.061180789232181065;0.037728153359845;0.00038179507504940407;0.0479249515652085;60.0;53.72065168;86.82902416
0.1187924710637324;1.555792925097869;0.1187924710637324;-0.0356887937187723;0.06269414122314071;-0.0020393596410727;4.945475912723515;0.6274927482952207;0.3937471491630892;6.2153774257117105;1.611546501579146;-0.9788926277148976;0.000732293767312899;0.0662791883348629;0.0672988681553992;0.0008045561793933237;0.0693382277964719;60.0;53.72079828000001;86.82885844
-0.1187858331984443;1.5069304328178066;0.1187924710637324;-0.0968695829509534;0.0379274292105583;-0.0020393596410727;4.945646940821304;0.6319232176943904;0.399326953061232;6.2153774257117105;1.611546501579146;-0.9788926277148976;0.0007418594391278624;0.0662791883348629;0.0672988681553992;0.0007572476937867118;0.0693382277964719;60.0;53.72099704;86.82878072
-3.6841961448797087;1.8897119676536636;0.1187924710637324;-0.0020393596410727;0.03702575233071332;-0.0020393596410727;6.2153774257117105;0.6919485014003895;0.4787927285902449;6.418619058818254;1.4731431460947393;-0.9788926277148976;0.0015921644837231727;0.09279086366880784;0.0713775874375446;0.0012312683220955967;0.0734169470786173;60.0;53.72119482000001;86.82872762
-1.3181373510346674;1.6036343453621926;-0.1187858331984443;-0.0571020699500356;0.04095636376082121;-0.0020393596410727;5.5005206085852505;0.5857354499468731;0.3430860173244659;6.418619058818254;1.4729721179969495;-0.9788926277148976;0.0011866631785236402;0.09279086366880784;0.0713775874375446;0.0008887756812424576;0.0693382277964719;60.0;53.72136432;86.82869232
-3.800300999545037;1.3316820325503609;-1.3181373510346674;-0.078515346181299;0.04436837696719637;-0.0020393596410727;6.418619058818254;0.5339313283896886;0.28508266343597743;6.834561912063111;1.3340413034778607;-1.0105027021515245;0.0006226004655217341;0.061180789232180954;0.0876924645661262;0.0005830900819381998;0.06423982869379019;60.0;53.72150336;86.82870335999999
-2.9526107096930843;1.3680985994866883;-1.3181373510346674;-0.1040073416947078;0.022509302124058033;-0.0571020699500356;5.732972951914897;0.5334436972104136;0.2845621780935154;6.834561912063111;1.3340413034778607;-1.0105027021515245;0.0007129544742956797;0.061180789232180954;0.0876924645661262;0.0006238481618454346;0.06423982869379019;60.0;53.721595060000006;86.82873362000001
-4.929090993099198;2.2573266253450535;0.8555073894078432;-0.113184460079535;0.016009297917923326;-0.0774956663607627;6.834561912063111;0.9188203169554918;0.8442307748501904;6.834561912063111;2.413303612099348;-1.0105027021515245;0.0006870647755790953;0.061180789232180954;0.0876924645661262;0.0016748243651676935;0.1029876618741714;60.0;53.721645280000004;86.82877872
-4.07470440081723;3.3968881912312834;2.9925661390016662;-0.0774956663607627;0.02931468647183644;-0.037728153359845;6.043062582517462;0.910909724068979;0.8297565254034235;6.834561912063111;2.413303612099348;-1.0105027021515245;0.0003373978808647296;0.04588559192413566;0.0876924645661262;0.0037170952976623367;0.14071581523401638;60.0;53.72165887999999;86.82881791999999
0.8555073894078432;3.8139002370686605;2.9925661390016662;-0.0856531049250535;0.027859847236288787;-0.037728153359845;4.421258299963763;0.950914882021596;0.9042391128501458;6.834561912063111;2.413303612099348;-0.9839910268175792;0.0006771871796832026;0.07239726725808093;0.0876924645661262;0.004645797261262897;0.14071581523401638;60.0;53.72164617999999;86.82884106
2.9925661390016662;3.201826432289713;3.829621229557359;-0.037728153359845;0.02398524504596775;-0.037728153359845;5.154561961759063;0.5960391586931297;0.35526267869561395;6.043062582517462;1.6218042825536987;-0.9839910268175792;0.0006657499633827039;0.07239726725808093;0.07545630671969;0.003365192947034696;0.1437748546956255;60.0;53.72162754000001;86.82883266
2.930401249064756;1.2396384839883374;3.945828602302434;-0.0632201488732537;0.042637982108810125;-0.037728153359845;4.991493107371157;0.4112819090659379;0.16915280872492242;5.442652477058546;1.0213941770947832;-0.9788926277148976;0.00038127520158117464;0.041806872641990345;-0.0152951973080452;0.0004697576658696065;0.05302335066789031;60.0;53.721608720000006;86.8288292
3.829621229557359;2.002992322099817;3.945828602302434;-0.1009483022330988;0.04701265853708663;-0.037728153359845;5.442652477058546;0.7658082313097812;0.5864622471418153;5.442652477058546;1.8603370369079633;-0.9788926277148976;0.0002820833438477479;0.036708473539308506;0.0163148771285816;0.0012352713478007643;0.0846334251045171;60.0;53.72157496;86.8288364
3.945828602302434;2.0272695215921592;3.945828602302434;-0.15091261343938;0.040859780417814295;-0.0438462322830631;5.39266950802809;0.9445904836031411;0.892251181713616;5.442652477058546;1.8632867561053907;-0.9788926277148976;0.0007770028855784632;0.06933822779647192;0.0163148771285816;0.0012539867926561277;0.0846334251045171;60.0;53.72153614;86.82885902000001
-0.9316133570091684;2.134887686463813;3.945828602302434;-0.0438462322830631;0.06141656076258852;0.0112164780258998;3.582315440150583;1.1401239714871787;1.2998826703596973;5.442652477058546;2.453520873105548;-0.9788926277148976;0.0009994047552763727;0.07545630671968995;0.0163148771285816;0.0013998113004874972;0.0846334251045171;60.0;53.72151606;86.82887478
1.5543880642657208;1.9199430707105427;3.945828602302434;-0.0907515040277353;0.06930598042109254;0.0112164780258998;3.5793657209531555;0.9029627021571326;0.8153416414869106;5.39266950802809;2.403537904075092;-0.9472825532782706;0.0020791819487371473;0.10706638115631695;0.0163148771285816;0.0010841441305937114;0.0846334251045171;60.0;53.72151212;86.82887084000001
0.387854581609284;1.3740318272552203;2.773032678440501;0.0112164780258998;0.045660711305096996;0.0112164780258998;2.9891316039529983;0.5412697907506674;0.2929729863792712;3.856463644535227;1.3362106280088426;-0.9472825532782706;0.0030948067562215414;0.14479453451616198;0.0163148771285816;0.0005432677742737267;0.062200469052717394;60.0;53.72153818;86.82886618
2.773032678440501;1.6072821689660448;4.371997076135445;0.0101967982053635;0.0456390735851226;0.0112164780258998;3.856463644535227;0.8784561073786338;0.7716851325908218;4.82163784489047;2.301384828364086;-0.919241358213521;0.005577670453019493;0.17283572958091153;-0.0071377587437544;0.0006316462638684954;0.0632201488732538;60.0;53.72159902;86.8288451
0.8543239632371801;2.0546011674862896;5.009595045988867;-0.0662791883348628;0.03375432850638606;0.0112164780258998;2.5202530165263846;1.1712867752449585;1.371912709863734;5.2795555029819825;2.759302486455598;-0.919241358213521;0.005312015110766957;0.17283572958091153;-0.0071377587437544;0.0011382109712869822;0.0785153461812991;60.0;53.72168226;86.82882594
4.371997076135445;1.826898615458354;5.009595045988867;-0.0433363923727949;0.028095833750250994;0.0101967982053635;4.82163784489047;1.473669063432942;2.171700508519324;5.2795555029819825;3.4571676470264556;-0.919241358213521;0.004318536913028089;0.17283572958091153;-0.0163148771285816;0.0008949101881672647;0.0693382277964719;60.0;53.721766939999995;86.82881846000001
5.009595045988867;1.826898615458354;5.009595045988867;-0.023452635872336;0.028095833750250994;0.0101967982053635;5.2795555029819825;1.473669063432942;2.171700508519324;5.2795555029819825;3.4571676470264556;-0.919241358213521;0.004318536913028089;0.17283572958091153;-0.0163148771285816;0.0008949101881672647;0.0693382277964719;60.0;53.721766939999995;86.82881846000001
1.3065880187371424;1.826898615458354;5.009595045988867;-0.0336494340776996;0.028095833750250994;0.0101967982053635;1.822387855955527;1.473669063432942;2.171700508519324;5.2795555029819825;3.4571676470264556;-0.919241358213521;0.004318536913028089;0.17283572958091153;-0.0163148771285816;0.0008949101881672647;0.0693382277964719;60.0;53.721766939999995;86.82881846000001
1.4972497734831984;0.9678390213783967;1.4972497734831984;-0.0876924645661262;0.05090362790507561;-0.0209034363209952;4.708386502122508;0.10517051133028467;0.011060836453473536;4.708386502122508;0.230538683885241;-0.9554399918425616;0.0031481457740593073;0.13969613541348003;0.0163148771285816;0.00030118869380428993;0.0428265524625267;60.0;53.72842954;86.85127625999999
1.3664964411967238;0.9678390213783967;1.4972497734831984;-0.0209034363209952;0.05090362790507561;-0.0209034363209952;4.677997190847607;0.10517051133028467;0.011060836453473536;4.708386502122508;0.230538683885241;-0.9554399918425616;0.0031481457740593073;0.13969613541348003;0.0163148771285816;0.00030118869380428993;0.0428265524625267;60.0;53.72842954;86.85127625999999
-0.8453019575465925;0.9678390213783967;1.4972497734831984;-0.1529519730804527;0.05090362790507561;-0.0209034363209952;4.560234553254378;0.10517051133028467;0.011060836453473536;4.708386502122508;0.230538683885241;-0.9554399918425616;0.0031481457740593073;0.13969613541348003;0.0163148771285816;0.00030118869380428993;0.0428265524625267;60.0;53.72842954;86.85127625999999
0.0607959178548562;1.1556337174206754;1.3664964411967238;-0.1029876618741715;0.05266253884078565;-0.0209034363209952;4.477847818237267;0.11100526095315892;0.012322167959278908;4.7274509766763755;0.24960315843910852;-0.9554399918425616;0.0031712801433944077;0.13969613541348003;0.0285510349750178;0.000413481362936466;0.0514938309370857;60.0;53.72844596;86.85111348000001
0.4986422476501472;2.076461684671953;3.801522025477441;-0.0484347914754767;0.04073362445353414;-0.0484347914754767;4.493981825872461;0.5737926140015425;0.3292379638827231;5.8287517109481914;1.3509038927109245;-0.9554399918425616;0.0026754768167677532;0.13969613541348003;0.0285510349750178;0.0013392460414416694;0.09483022330988061;60.0;53.7284625;86.85095082
-1.6005738895956891;2.4690777720809907;4.048773135865662;-0.1121647802589986;0.028174364209356796;-0.0484347914754767;4.7274509766763755;0.7365848521091568;0.5425572443566684;5.963735685785574;1.485887867548307;-0.9554399918425616;0.0005052650237479734;0.06016110941164454;0.0285510349750178;0.00184144381172724;0.09788926277148971;60.0;53.728492300000006;86.85078605999999
3.801522025477441;2.5098737390869377;4.048773135865662;-0.0672988681553992;0.027675902413094564;-0.0423167125522585;5.8287517109481914;0.6711806693397352;0.4504834908953349;5.963735685785574;1.469753859913113;-0.9778729478943612;0.00019165135405359543;0.03772815335984492;0.0285510349750178;0.0019207245156284281;0.09788926277148971;60.0;53.72854188;86.85061548
4.048773135865662;2.354573192227704;4.048773135865662;-0.058121749770572;0.028093058076351995;-0.0423167125522585;5.963735685785574;0.5871644242568204;0.34476206111284335;5.963735685785574;1.2362847091091984;-0.9778729478943612;0.00025759730349533735;0.03874783318038111;0.0285510349750178;0.0016937477594103326;0.09788926277148971;0.0;53.72863252;86.85042963999999
3.600318783492313;0.9339470265745708;4.048773135865662;-0.0423167125522585;0.010383725598532468;-0.0423167125522585;5.62929462027309;0.600271853296674;0.3603262978602237;5.963735685785574;1.2821596135327331;-0.9778729478943612;0.00039661146889323007;0.05200367084735402;-0.037728153359845;0.00024070141577869322;0.0316100744366269;0.0;53.72876728;86.85026744
2.180516645169837;0.8673547727869003;4.048773135865662;-0.0458855919241358;0.010696922471057533;-0.0423167125522585;4.789028304098448;0.545187080064603;0.29722895226936785;5.963735685785574;1.2821596135327331;-0.9666564698684612;0.0006950188396426261;0.063220148873254;-0.037728153359845;0.00020295860198704487;0.0316100744366269;0.0;53.72894374;86.85010598
2.0944487763425417;1.517226271753403;5.840183882632404;-0.0601611094116447;0.010557503094152982;-0.0423167125522585;4.681576072252841;0.9663786312837591;0.9338876590018717;7.072396927786016;2.3908208555331756;-0.9554399918425616;0.001032416720507358;0.07443662689915365;-0.037728153359845;0.0006018055267935545;0.060161109411644695;0.0;53.72915809999999;86.84995681999999
3.252066243381367;1.5788452427113142;5.840183882632404;-0.0683185479759355;0.019454251074068445;-0.0458855919241358;5.229776135245595;1.0483872245725818;1.099115772647001;7.072396927786016;2.5569815691883164;-0.9554399918425616;0.0010166125670739406;0.07443662689915365;-0.037728153359845;0.0006532730001458028;0.060161109411644695;30.0;53.72939682;86.84981153999999
5.840183882632404;1.5055238236898052;5.840183882632404;-0.0550627103089629;0.018391021679446288;-0.0550627103089629;7.072396927786016;1.0152129574916502;1.030657349058943;7.072396927786016;2.5569815691883164;-0.9554399918425616;0.0008874759975719389;0.07443662689915365;-0.037728153359845;0.0006080440084120093;0.060161109411644695;30.0;53.729661220000004;86.84967146
2.3315001427348747;1.3369716031159102;5.840183882632404;-0.0968695829509534;0.01802556289350843;-0.0550627103089629;4.5154153585977;1.0461341214780246;1.0943966001205985;7.072396927786016;2.5573355984163246;-0.9554399918425616;0.00034410424860456757;0.048944631385744675;-0.0402773529111858;0.0004894088829677375;0.05761190986030389;30.0;53.7299299;86.84953565999999
3.933561340428584;1.3744776708330761;5.840183882632404;-0.0897318242071989;0.020201501739735873;-0.0550627103089629;5.40353068885431;1.1350671605974858;1.2883774590668386;7.072396927786016;2.6915176290414857;-0.9554399918425616;0.0007397799452550321;0.07137758743754441;-0.0402773529111858;0.0005032895045687981;0.05761190986030389;30.0;53.73025679999999;86.84942224
3.033686180816343;1.5041030647024667;6.156408068506356;-0.092790863668808;0.017930135324020206;-0.058121749770572;4.515061329369692;1.0657102576921305;1.1357383533502272;6.905408965833535;2.5245296670890047;-0.9584990313041704;0.0006894042061860183;0.06831854797593562;-0.0402773529111858;0.00061963718675297;0.06372998878352198;30.0;53.73057336000001;86.84933432
2.8946695443811223;1.7585008532814894;6.640714173282131;-0.058121749770572;0.0201809037208799;-0.058121749770572;4.380879298744531;1.3110148635842238;1.718759972538761;7.180740525897974;2.7998612271534435;-0.9584990313041704;0.0007117067779719913;0.06831854797593562;-0.0520036708473539;0.0008533203107109013;0.06220046905271741;0.0;53.730875780000005;86.84927322
6.156408068506356;2.1783173094208332;7.651709923217427;-0.1050270215152442;0.024571956494604467;-0.0469052717446721;6.905408965833535;1.6615530578995936;2.7607585642154904;8.05354145920952;3.6726621604649887;-0.9584990313041704;0.0006510895315793432;0.06831854797593562;-0.0520036708473539;0.0013904535780598143;0.0815743856429081;0.0;53.731140960000005;86.8492568
6.640714173282131;1.9412267353620292;7.651709923217427;-0.0632201488732537;0.03201372448214043;-0.0163148771285816;7.180740525897974;1.4838627126683028;2.2018485500473344;8.05354145920952;3.6726621604649887;-0.9584990313041704;0.0006205209716489186;0.06831854797593562;-0.0520036708473539;0.0010984926383161542;0.0815743856429081;0.0;53.73137596;86.8492614
7.651709923217427;0.6340295877895281;7.651709923217427;-0.0469052717446721;0.03796442022802693;-0.0122361578464362;8.05354145920952;0.5121749002815292;0.26232312847839445;8.05354145920952;1.148132493375984;-0.9584990313041704;0.0002611844304259504;0.040787192821454044;-0.1040073416947078;0.00015149112863479513;0.029570714795554204;0.0;53.73152228;86.84926948
7.55887840505174;0.6658317235120071;7.651709923217427;-0.0163148771285816;0.02657043789292416;0.0010196798205363;7.925912044839737;0.6761793618319318;0.45721852936743856;8.05354145920952;1.6701924543957523;-0.9788926277148976;7.777307084339376e-05;0.0203935964107268;-0.1040073416947078;0.00015149112863479513;0.029570714795554204;0.0;53.731645979999996;86.84928054
6.80768427654612;1.2816541225802784;7.651709923217427;-0.0122361578464362;0.02074240300172722;0.0061180789232181;7.150521456249155;1.3018041188360236;1.6946939638184362;8.05354145920952;3.170489843926095;-0.979912307535434;7.09107410630948e-05;0.021413276231263212;-0.0795350260018354;0.0005014699474300799;0.0540430304884266;0.0;53.7317652;86.84928712000001
6.058655100698635;1.175519856843077;7.55887840505174;0.0010196798205363;0.011409483618394518;0.0061180789232181;6.383349004813767;1.202506858415354;1.4460227445359644;7.925912044839737;3.0428604295563124;-0.979912307535434;8.182808389538953e-05;0.021413276231263212;-0.0795350260018354;0.000414547103546284;0.05200367084735391;0.0;53.73188264;86.84928168
4.541369396117898;0.8755049100746951;6.80768427654612;0.0061180789232181;0.017159729962649223;0.0061180789232181;4.883051615283424;0.9095447938331966;0.8272717319890721;7.150521456249155;2.267469840965731;-0.979912307535434;9.180965448491655e-05;0.023452635872336036;-0.0795350260018354;0.00022697675621809267;0.0397675130009177;0.0;53.732012399999995;86.84925783999999
5.414406656431532;0.5713027757508635;6.058655100698635;-0.020393596410727;0.018782601936994468;0.0061180789232181;5.631152397432165;0.5651617425581116;0.3194077952513212;6.383349004813767;1.5002973895303429;-0.979912307535434;9.742428794152599e-05;0.023452635872336036;-0.0795350260018354;8.505129939825808e-05;0.024472315692872393;0.0;53.73216114;86.84922226
5.107018945865101;0.43532757525965143;5.643820642725681;-0.0367084735393086;0.016225409834539472;0.0061180789232181;5.257543314101304;0.3622066979428453;0.13119369203465958;5.780455509137404;0.8974038938539799;-0.9901091057407974;0.00011364434014950699;0.029570714795554176;-0.0795350260018354;5.947352476259574e-05;0.018354236769654295;0.0;53.732313520000005;86.84916472
5.643820642725681;0.5830177027180893;6.640710617476969;-0.0295707147955541;0.014191510898506602;0.0010196798205363;5.780455509137404;0.566501022894809;0.3209234089408649;6.761786544004808;1.504243229903504;-0.9809319873559702;0.00021346004604477618;0.03874783318038133;-0.0897318242071989;8.421950184913054e-05;0.024472315692872407;0.0;53.732464379999996;86.8490903
5.482500736155466;0.9056760070489632;7.297809239594142;-0.020393596410727;0.014766005978766782;0.0010196798205363;5.6106449173346755;0.8912385947648714;0.7943062327984628;7.406942320563721;2.149399006462417;-0.9809319873559702;0.00021501966644938992;0.03874783318038133;-0.0897318242071989;0.00023061587049552398;0.03772815335984499;0.0;53.73260634;86.84900186
6.640710617476969;0.9891637008537937;7.727272800140299;0.0010196798205363;0.012926226544546284;0.0010196798205363;6.761786544004808;0.9747661358786891;0.950169019655871;7.825810874238795;2.2151659569041193;-0.9809319873559702;0.00023675037742033975;0.03874783318038133;-0.0978892627714897;0.0002708540769345539;0.0356887937187723;0.0;53.732727739999994;86.84890822
7.297809239594142;0.8472114322364674;7.727272800140299;-0.0122361578464362;0.019895518557979917;0.0010196798205363;7.406942320563721;0.837194587857945;0.7008947779386344;7.825810874238795;2.2151659569041193;-0.9809319873559702;0.00023363113661111236;0.03874783318038133;-0.0978892627714897;0.0001878822714091119;0.0356887937187723;0.0;53.73281837999999;86.8488043
7.727272800140299;0.4267989973328505;7.727272800140299;-0.0295707147955541;0.031367379965879835;0.0010196798205363;7.825810874238795;0.409510628117744;0.16769895454138922;7.825810874238795;1.0640243302339867;-0.9809319873559702;6.37364872018757e-05;0.01937391659019061;-0.1142041399000713;5.5626461097881054e-05;0.019373916590190693;0.0;53.732888960000004;86.84869568
6.8473947212153226;0.37257565882496035;7.727272800140299;-0.0520036708473539;0.02612649734948295;-0.0122361578464362;7.000858029657852;0.3444800269902816;0.11866648899522511;7.825810874238795;0.8249528445809426;-0.9839910268175792;3.722294032344403e-05;0.016314877128581595;-0.1193025390027531;3.503947175698191e-05;0.014275517487508896;0.0;53.732938479999994;86.84858648
6.95338058848973;0.4120173462684931;7.727272800140299;-0.0774956663607627;0.021862563131235087;-0.0224329560517997;7.115676817193851;0.3861756176340598;0.14913160765504754;7.825810874238795;1.001195916440781;-0.9839910268175792;3.659909216159864e-05;0.016314877128581595;-0.116243499541144;4.418924479738153e-05;0.017334556949117993;0.0;53.7329751;86.84846438000001
6.8849780099927855;0.26795127833771176;6.95338058848973;-0.0224329560517997;0.026839088612398664;-0.0081574385642908;7.043930215430275;0.2630160751465539;0.06917745578549768;7.115676817193851;0.6564052240490987;-0.9901091057407974;1.5388254658853313e-05;0.010196798205363455;-0.1091057407973896;2.672149626570923e-05;0.013255837666972498;0.0;53.73300454;86.84832997999999
6.664418157420672;0.4967093416378521;6.95338058848973;-0.0367084735393086;0.02819926341175669;-0.0081574385642908;6.824614957798014;0.4970681515499314;0.24707674728526557;7.115676817193851;1.2082666640071027;-0.9901091057407974;2.370623015012524e-05;0.01223615784643628;-0.1009483022330988;7.725319737518849e-05;0.02141327623126331;0.0;53.73303301999999;86.84818437999999
6.28816383841592;0.4912969715040449;6.928808004361635;-0.0081574385642908;0.012273806836062157;-0.0081574385642908;6.459271593144752;0.4784976442073258;0.22895999551196056;7.043930215430275;1.1365200622435268;-0.9901091057407974;4.2421675005487865e-05;0.016314877128581706;-0.1009483022330988;7.725319737518849e-05;0.02141327623126331;0.0;53.73306021999999;86.84802214
5.750629346560316;0.6844131133687862;7.575372124976155;-0.0112164780258998;0.025367033372210766;-0.0081574385642908;5.907410153186748;0.6534311266921218;0.4269722373301357;7.663463218122276;1.7560530649355277;-0.9901091057407974;4.4917067652869875e-05;0.016314877128581706;-0.1009483022330988;0.0001471241915018769;0.0316100744366269;0.0;53.733082919999994;86.8478298
6.928808004361635;0.7269327261217868;7.575372124976155;-0.0308453145712246;0.03850067821551784;0.0346691138982359;7.027336915969065;0.6985236527630628;0.4879352934694519;7.663463218122276;1.7560530649355277;-0.9901091057407974;4.67886121384055e-05;0.016314877128581706;-0.1009483022330988;0.00016396809187170335;0.0316100744366269;0.0;53.733101420000004;86.84762814
7.575372124976155;0.8268002325445752;7.575372124976155;-0.0713775874375446;0.038190548724579665;0.0346691138982359;7.663463218122276;0.8038703026832221;0.6462074635360151;7.663463218122276;1.7560530649355277;-0.9890894259202612;5.167542273952716e-05;0.017334556949117896;-0.1009483022330988;0.00019890358893504762;0.0316100744366269;0.0;53.7331184;86.84741984
6.0872256546721735;0.8714352621773378;7.575372124976155;0.0346691138982359;0.042069516735027644;0.0346691138982359;6.208992509619435;0.8537050525202632;0.7288123166986253;7.663463218122276;1.9145719084648043;-0.986030386458652;7.829294431159989e-05;0.020393596410727022;-0.0968695829509534;0.0002384139725185913;0.0356887937187723;0.0;53.733131779999994;86.84721306
7.515159898385304;1.0308693685950399;7.575372124976155;-0.023452635872336;0.04177328432593372;0.0346691138982359;7.62385341877386;1.016415435163929;1.0331003368394789;7.663463218122276;2.104405892235773;-0.9839910268175792;5.999339823080281e-05;0.01937391659019083;-0.0938105434893443;0.00033739788086473307;0.0387478331803814;0.0;53.73314404;86.84697956
5.609880759356543;0.8151650428165957;7.515159898385304;0.0183542367696543;0.0271836007126706;0.0346691138982359;5.748891309657472;0.8081941061196624;0.6531777131665601;7.62385341877386;2.0647960928873568;-0.9839910268175792;0.000172286067362979;0.0305903946160907;-0.0938105434893443;0.00020930105829913847;0.036708473539308714;0.0;53.73315848;86.8467636
5.443818207925701;1.0249647706661367;7.515159898385304;-0.0275313551544814;0.018741038261499116;0.0183542367696543;5.559057325886503;1.0185951403282016;1.037536059900229;7.62385341877386;2.7090764715418;-0.9839910268175792;0.00015409049597582102;0.0305903946160907;-0.0836137452839808;0.00032648053803243813;0.04690527174467221;0.0;53.73317446;86.84653382
6.194411760115822;0.6097569476266573;6.194411760115822;-0.0112164780258998;0.019387328787428878;0.0183542367696543;6.285553927761804;0.5984861235181356;0.3581856400437651;6.285553927761804;1.4268540201827244;-0.9839910268175792;0.00014993150823018386;0.0305903946160907;-0.0825940654634444;0.0001261213033864148;0.027531355154481504;0.0;53.73318836;86.8462866
4.797610933373495;0.5964594810927133;6.194411760115822;0.0010196798205363;0.019934675294459574;0.0010196798205363;4.91477694723206;0.5793496236573866;0.3356459864319555;6.285553927761804;1.4268540201827244;-0.9839910268175792;0.00013464722826497078;0.0305903946160907;-0.0825940654634444;0.00012300206257718756;0.027531355154481504;0.0;53.7332;86.84601152
4.723277122884862;0.6740326104356994;6.194411760115822;-0.0265116753339451;0.020144806508885865;0.0010196798205363;4.85869990757908;0.669505325238904;0.44823738052325074;6.285553927761804;1.4268540201827244;-0.9676761496889976;0.0003209698792694731;0.046905271744672294;-0.0825940654634444;0.00013901416539788698;0.027531355154481504;0.0;53.73321437999999;86.84572381999999
5.140559201208354;0.4931456305305114;5.95262086303251;-0.0520036708473539;0.01930536944365018;0.0010196798205363;5.327763088222593;0.5076095532066152;0.25766745850661943;6.126476163652815;1.2677762560737351;-0.9676761496889976;0.00022489726234527815;0.039767513000918076;-0.0825940654634444;5.531453701695914e-05;0.018354236769654392;0.0;53.73322838;86.84541526
5.95262086303251;0.4795548061879522;5.95262086303251;-0.0305903946160905;0.013689937373404288;-0.0178443968593861;6.126476163652815;0.4908971473910545;0.24098000931667468;6.126476163652815;1.2677762560737351;-0.9676761496889976;0.00031504332173194164;0.04588559192413588;-0.0825940654634444;5.822582843890444e-05;0.018354236769654392;0.0;53.733242;86.84510632
4.986708445735601;0.434607422758264;5.95262086303251;-0.0178443968593861;0.015532973849000063;-0.0178443968593861;5.237236222519474;0.4233202108686223;0.17920000092985489;6.126476163652815;0.8892399411333409;-0.9676761496889976;0.0003318872221017688;0.04588559192413588;-0.0866727847455898;5.167542273952712e-05;0.017334556949117993;0.0;53.733253219999995;86.84480522000001
5.5113642522098365;0.44501305788363077;6.082078201487653;-0.0438462322830631;0.014346355149032498;-0.0178443968593861;5.761804842849621;0.4294691725270107;0.1844437701510353;6.323215448388806;1.0859792258693322;-0.9676761496889976;0.00031847448662209046;0.04588559192413588;-0.0866727847455898;6.165699332905426e-05;0.020393596410727105;0.0;53.733264440000006;86.844499
5.897365895943725;0.49252575700942147;6.197111840214598;-0.0550627103089629;0.01584445952994183;-0.0178443968593861;6.123762594831528;0.5089242882031977;0.2590039311231314;6.527095222186274;1.2898589996667997;-0.9931681452024064;6.862329780299586e-05;0.020393596410727133;-0.0866727847455898;7.766909614975345e-05;0.021413276231263392;0.0;53.73326933999999;86.84421718000002
6.082078201487653;0.26063845056206547;6.197111840214598;-0.0295707147955541;0.01622861358811687;-0.0163148771285816;6.323215448388806;0.2824559209713894;0.07978134729179576;6.527095222186274;0.765290379336653;-0.9952075048434792;4.803630846209666e-05;0.01835423676965431;-0.0978892627714897;1.611607751433765e-05;0.010196798205363497;0.0;53.73327168000001;86.84394816
6.197111840214598;0.14582221046204796;6.197111840214598;-0.020393596410727;0.015113980346985608;-0.0163148771285816;6.527095222186274;0.1751358343433505;0.030672560471141513;6.527095222186274;0.40333262735474573;-0.9952075048434792;1.6843900369825972e-05;0.010196798205363677;-0.1029876618741715;5.718608150247078e-06;0.0050983991026817;0.0;53.73327059999999;86.84370132000001
5.883420068626114;0.12251647608106953;6.197111840214598;-0.0163148771285816;0.010513091806898746;-0.0163148771285816;6.170148138666999;0.14102831375289457;0.019888985279984873;6.527095222186274;0.35694708351927495;-0.9829713469970428;6.945509535212571e-05;0.021413276231263434;-0.1029876618741715;5.718608150247078e-06;0.0050983991026817;0.0;53.73326804;86.84344788000001
6.157477334634767;0.4349871324917949;6.197111840214598;-0.0331395941674313;0.010550114195713162;-0.0163148771285816;6.45721218322778;0.45919430049883836;0.21085940561061747;6.527095222186274;1.1440641430996825;-0.9829713469970428;9.440902182594307e-05;0.026511675333945273;-0.0907515040277353;5.0635675803117574e-05;0.017334556949117896;0.0;53.73326464;86.84319872
6.034261060384288;0.8277142759307148;6.157477334634767;-0.0428265524625267;0.009592580668005914;-0.0163148771285816;6.289239332193024;0.8487745024085522;0.7204181559388854;6.45721218322778;2.0413003775575005;-0.9829713469970428;0.00010002365528255138;0.026511675333945273;-0.0734169470786173;0.00019911153832232934;0.03466911389823589;0.0;53.73326012;86.84294844
5.134679184009005;1.2439386803771606;6.157477334634767;-0.0305903946160905;0.005727479012943313;-0.0275313551544814;5.383031079086591;1.254122224387717;1.5728225537031952;6.45721218322778;2.9532247008778394;-0.9829713469970428;0.00011593178340960888;0.026511675333945273;-0.0571020699500356;0.0004564489050835693;0.050983991026817596;0.0;53.733259499999996;86.84267646
4.1791183741478255;1.0777742488566502;6.034261060384288;-0.0275313551544814;0.011156061504319666;-0.0122361578464362;4.415911805670279;1.080407266789887;1.167279862132394;6.289239332193024;2.785251849843083;-0.9829713469970428;0.0001234179613517543;0.026511675333945273;-0.0571020699500356;0.0003329269690381752;0.0469052717446722;0.0;53.7332639;86.84234294000001
3.2389911426632496;0.718884662260365;5.134679184009005;-0.0336494340776996;0.008610107813840969;-0.0122361578464362;3.5039874823499404;0.7040692695343758;0.4957135363026694;5.383031079086591;1.879043596736651;-1.0043846232283062;8.837848959472195e-06;0.008157438564290853;-0.0571020699500356;0.00016448796533991052;0.0336494340776997;0.0;53.733273759999996;86.84198416
4.05234764677571;0.5523873476834988;4.718374391303298;-0.0122361578464362;0.00971643050847078;-0.0122361578464362;4.2629858307611554;0.5307069213520926;0.2816498363710162;4.885100829318501;1.381113346968561;-1.0043846232283062;9.5656718149585e-06;0.008157438564290853;-0.0571020699500356;9.690441447332241e-05;0.026511675333945203;0.0;53.73328896;86.84161536
4.718374391303298;0.6764876650112726;4.835239416059912;-0.0316100744366268;0.013105960243140324;-0.003059039461609;4.885100829318501;0.6266785995991001;0.3927260671954892;4.925083788892834;1.4210963065428932;-1.0074436626899157;5.4066840693215066e-06;0.005098399102681395;-0.0571020699500356;0.0001468122674209565;0.028551034975017903;0.0;53.73331518;86.8412371
3.694678543404831;0.5461221739846741;4.835239416059912;-0.0152951973080452;0.012829339033385623;-0.003059039461609;3.8484099236717095;0.5377802806194004;0.28920763022308105;4.925083788892834;1.1048247707858723;-0.9911287855613338;8.14121851208229e-05;0.021413276231263323;-0.0642398286937901;0.00010168725038080348;0.021413276231263406;0.0;53.733348160000006;86.84087072
4.835239416059912;0.6547088710078935;5.067347692235158;-0.003059039461609;0.012417506620471825;-0.003059039461609;4.925083788892834;0.6461471822794287;0.41750618116764526;5.177725473213691;1.3574664551067297;-0.9911287855613338;8.941823653117272e-05;0.021413276231263323;-0.0642398286937901;0.00013880621601060594;0.024472315692872407;0.0;53.733394499999996;86.84053818000001
3.706425706380461;0.698940183790824;5.067347692235158;-0.0326297542571632;0.018169195147553215;0.0163148771285816;3.8202590181069613;0.6911552959274504;0.47769564308856155;5.177725473213691;1.3574664551067297;-0.9911287855613338;7.382203248503723e-05;0.021413276231263323;-0.0642398286937901;0.00015461036944402335;0.024472315692872407;0.0;53.733456000000004;86.84022592000001
5.067347692235158;0.5682661055997124;5.067347692235158;-0.0163148771285816;0.02039359641072701;0.0163148771285816;5.177725473213691;0.569234909666489;0.3240283823830159;5.177725473213691;1.3574664551067297;-0.9911287855613338;5.822582843890187e-05;0.021413276231263323;-0.0642398286937901;0.00010657406098192537;0.024472315692872407;0.0;53.733535800000006;86.83993196
4.999262719671749;0.5771493720020267;5.067347692235158;0.0163148771285816;0.02337603478842748;0.0163148771285816;5.1475083330101405;0.5853955192344944;0.34268791393982334;5.177725473213691;1.3574664551067297;-0.9911287855613338;1.8923394242641308e-05;0.011216478025899868;-0.0642398286937901;0.00010834163077382081;0.024472315692872407;0.0;53.73363488;86.83965728000001
