acc_X;acc_X_std;acc_X_max;acc_Z;acc_Z_std;acc_Z_max;acc;acc_std;acc_var;acc_max;acc_range;fb_tilt_max;fb_tilt_var;fb_tilt_range;tilt_max;tilt_var;tilt_range;class;lat;lon
3.880704011891248;2.355937610250998;3.880704011891248;-0.037728153359845;0.04176083735318163;0.0346691138982359;4.498268196101821;0.9611831121785174;0.9238729751371803;4.498268196101821;2.365752505634674;-0.9768532680738248;0.0005394207106090132;0.05914142959110846;0.0305903946160905;0.0016851178598381376;0.09890894259202601;0.0;53.728393800000006;86.85159891999999
3.044668431833656;2.355937610250998;3.880704011891248;-0.040787192821454;0.04176083735318163;0.0346691138982359;3.7286711001220496;0.9611831121785174;0.9238729751371803;4.498268196101821;2.365752505634674;-0.9768532680738248;0.0005394207106090132;0.05914142959110846;0.0305903946160905;0.0016851178598381376;0.09890894259202601;0.0;53.728393800000006;86.85159891999999
1.462039478235252;2.355937610250998;3.880704011891248;-0.07545630671969;0.04176083735318163;0.0346691138982359;2.551681771405665;0.9611831121785174;0.9238729751371803;4.498268196101821;2.365752505634674;-0.9768532680738248;0.0005394207106090132;0.05914142959110846;0.0305903946160905;0.0016851178598381376;0.09890894259202601;30.0;53.728393800000006;86.85159891999999
-0.4576647921902499;1.9676529418079576;3.044668431833656;-0.0560823901294993;0.043354982546880014;0.0346691138982359;2.132515690467147;0.6007188403366537;0.36086312513541396;3.7286711001220496;1.5961554096549024;-0.9411644743550523;0.001377872640129275;0.09483022330988089;0.0305903946160905;0.0011361314774141623;0.0825940654634444;30.0;53.72845982;86.85140894
-1.7667472110189777;2.9206603076547535;5.878761054688518;0.0346691138982359;0.04426866866920404;0.0346691138982359;2.7617543788380474;1.6851004349847543;2.8395634759858077;6.32153236442907;4.189016673961923;-0.9411644743550523;0.0013062340762106906;0.09483022330988089;0.0305903946160905;0.0026168350895542825;0.1340878964005301;30.0;53.728530639999995;86.85115208
2.171524078944238;3.244736048032197;5.878761054688518;-0.0081574385642908;0.03728181466333967;0.0346691138982359;3.094744412884559;1.783302540888602;3.1801679523397444;6.32153236442907;4.189016673961923;-0.9411644743550523;0.0009480412566177725;0.07851534618129918;0.0305903946160905;0.0032540959868793866;0.1340878964005301;30.0;53.72861604;86.8508842
5.878761054688518;2.9885111954191443;5.878761054688518;-0.0509839910268175;0.03248284456552253;0.0346691138982359;6.32153236442907;1.505160978956387;2.265509572572949;6.32153236442907;3.559777985591023;-0.9411644743550523;0.0007272509946713094;0.06831854797593573;0.0305903946160905;0.0027571489386226835;0.1340878964005301;0.0;53.72872102;86.85065125999999
4.617213128630143;1.8102728200919875;5.878761054688518;-0.0346691138982359;0.034890338392565216;-0.0081574385642908;5.237638495145043;1.3891505831293711;1.9297393426086717;6.32153236442907;3.2267879515445115;-0.9411644743550523;0.0010274779225594266;0.08361374528398102;-0.0265116753339451;0.0010365757082529978;0.07698582645049451;0.0;53.72886396;86.85041532
4.189764870923652;1.8563449995036891;5.878761054688518;-0.020393596410727;0.032409139994150064;-0.020393596410727;4.955027813047646;1.2656018549256378;1.601748055191215;6.32153236442907;3.1230599105301002;-0.9809319873559702;0.0003036580927782706;0.04384623228306317;-0.0265116753339451;0.0010662084959406556;0.07698582645049451;0.0;53.72904628;86.85017780000001
1.4752361692542029;1.4811219272037295;4.617213128630143;-0.0978892627714897;0.03560566583513851;-0.020393596410727;3.19847245389897;1.0126070192611576;1.0253729754569663;5.435815727338442;2.2373432734394716;-0.9809319873559702;0.00030225443441411846;0.04384623228306317;-0.0265116753339451;0.0006721963943884483;0.055062710308963;0.0;53.729260939999996;86.85000334
1.957755201365164;1.316285695150698;4.357676465462099;-0.0825940654634444;0.031847655117245646;-0.020393596410727;3.616114119627264;0.9226412860701544;0.8512669427611884;5.435815727338442;2.2373432734394716;-0.9350463954318344;0.0010764500032642904;0.08973182420719894;-0.0265116753339451;0.0005315186338923041;0.049964311206281205;0.0;53.72949562;86.84983353999999
4.357676465462099;1.1410968699590418;4.357676465462099;-0.092790863668808;0.025587665893097314;-0.0346691138982359;5.435815727338442;0.84345107464693;0.7114097153230611;5.435815727338442;2.2373432734394716;-0.9350463954318344;0.0013293164581989723;0.08973182420719894;-0.0265116753339451;0.00039770320317646026;0.049964311206281205;0.0;53.72974409999999;86.8496929
2.424447318637404;1.0153830376505897;4.357676465462099;-0.0887121443866625;0.023728104982604446;-0.0346691138982359;4.223306999562973;0.6867089690723004;0.4715692082043416;5.435815727338442;1.8197016077111776;-0.9350463954318344;0.0017703771086236893;0.11114510043846226;-0.0326297542571632;0.00032835208251797684;0.04384623228306311;60.0;53.73000746;86.84957738
1.829955165028424;0.9369939662179352;4.357676465462099;-0.0346691138982359;0.02600283509055892;-0.0346691138982359;4.093643474880689;0.5634643531261271;0.3174920772438448;5.435815727338442;1.342172252457753;-0.9350463954318344;0.0026287921793230018;0.133578056490262;-0.0326297542571632;0.00028052372344316103;0.04384623228306311;60.0;53.73028934;86.84948038
2.725592705160933;0.9900125085836392;4.488324314700261;-0.0836137452839808;0.04274818391564391;0.0168247170388498;4.672305065506357;0.8958438488513129;0.8025362015247338;6.323416778996013;2.2297733041153247;-0.9350463954318344;0.0030110551404937884;0.133578056490262;-0.0326297542571632;0.00038314674606673433;0.0509839910268176;60.0;53.73057046;86.84941846
2.8919714440948026;1.4916238843812266;5.540744175800584;-0.0499643112062812;0.04299253573417553;0.0168247170388498;5.064545777525172;1.2131439867193823;1.471718332513397;7.041079593563535;2.9474361186828464;-0.9839910268175792;0.001236830968205399;0.08463342510451721;-0.0326297542571632;0.0006690771535792221;0.0632201488732538;0.0;53.7308393;86.84936986
4.488324314700261;1.5603639067906276;6.231670208358746;0.0168247170388498;0.043531491807107935;0.0168247170388498;6.323416778996013;1.2266037860812056;1.5045568480287481;7.505159057898832;2.832853992392475;-0.9839910268175792;0.0017360654597221967;0.08463342510451721;-0.0499643112062812;0.0006536888989203678;0.058121749770571995;0.0;53.731080240000004;86.84931896
5.540744175800584;1.8439815541851035;7.801799681285229;-0.0897318242071989;0.04751697022916193;0.0168247170388498;7.041079593563535;1.3943678811863567;1.9442617880841295;8.824305309890336;3.7597595323651642;-0.9839910268175792;0.0018006337444731945;0.08463342510451721;-0.0540430304884266;0.0009487690794732554;0.0836137452839808;0.0;53.73129704;86.84927464
6.231670208358746;1.2500963625739285;7.801799681285229;-0.0744366268991536;0.04782776649025876;0.0168247170388498;7.505159057898832;0.9387819574322143;0.8813115636002598;8.824305309890336;2.500888530894323;-0.9758335882532884;0.0013038946456037594;0.08922198429693073;-0.0836137452839808;0.000422345205569356;0.0540430304884266;0.0;53.73147628;86.84924396000001
7.801799681285229;0.8267360729542065;7.801799681285229;-0.1040073416947078;0.011137405870021886;-0.0744366268991536;8.824305309890336;0.6576678583366018;0.43252701188905246;8.824305309890336;1.7832257163268013;-0.9758335882532884;0.00011468408708590775;0.02549199551340886;-0.095849903130417;0.00023363113661111488;0.0418068726419904;0.0;53.73162888;86.84920199999999
6.770377066530581;1.0416059278942813;7.801799681285229;-0.0805547058223717;0.011053065865544349;-0.0744366268991536;7.923357763100328;0.9205201857418216;0.8473574123581576;8.824305309890336;2.5548407032657092;-0.9758335882532884;0.00010532636465822705;0.02549199551340886;-0.0856531049250535;0.0003521622873617458;0.0520036708473539;0.0;53.73177346;86.84916226
6.654128641615463;1.4165601764384512;7.801799681285229;-0.0876924645661262;0.01658978643827198;-0.058121749770572;7.7443982458081795;1.2528156240424302;1.569546987844824;8.824305309890336;3.043178977430137;-0.9758335882532884;0.00018850611957095547;0.03670847353930873;-0.0774956663607627;0.0006141785153368246;0.060161109411644695;0.0;53.73192196;86.84912132
4.925534074087753;1.1871873641653565;6.770377066530581;-0.0866727847455898;0.013936453197324214;-0.058121749770572;6.269464606624627;1.0679912118230355;1.1406052285312356;7.923357763100328;2.195956400282677;-0.9758335882532884;0.0001848670052935233;0.03670847353930873;-0.0774956663607627;0.00041173978681798294;0.0397675130009177;0.0;53.73207304;86.8490676
4.369478259654217;0.9897001312224177;6.654128641615463;-0.058121749770572;0.015937696714542187;-0.0550627103089629;5.781126332460199;0.8364278227653528;0.6996115026959884;7.7443982458081795;2.0169968829905285;-0.9850107066381156;0.00011468408708591304;0.027531355154481463;-0.0774956663607627;0.000299655067073088;0.0397675130009177;0.0;53.73223408;86.84900336000001
4.4484572708982695;0.9632322148346021;6.578341559747793;-0.0622004690527174;0.013404039339373848;-0.0550627103089629;5.727401362817651;0.6232345616560709;0.38842131884263487;7.14649614847959;1.4190947856619394;-0.9850107066381156;0.00010792573199925352;0.027531355154481463;-0.0774956663607627;0.00027470114059927097;0.037728153359845;0.0;53.73239336;86.84891688
5.90104061755065;1.7441845480795277;8.600127791300155;-0.0550627103089629;0.01358510512335493;-0.0387478331803813;6.799095161092445;1.330842696119898;1.7711422818156792;8.994585255433462;3.2671838926158108;-0.9768532680738248;0.0001795642959178344;0.035688793718772316;-0.0774956663607627;0.000864549577624125;0.07035790761700829;0.0;53.73253676;86.84881451999999
6.578341559747793;1.608004093804719;8.600127791300155;-0.0764759865402263;0.017162759308592585;-0.0346691138982359;7.14649614847959;1.2502776961751523;1.5631943175530465;8.994585255433462;3.2671838926158108;-0.9768532680738248;0.0001429652037562347;0.03161007443662689;-0.0774956663607627;0.0007801221263877119;0.07035790761700829;0.0;53.73266022;86.84870246
8.600127791300155;1.0743572874298768;8.600127791300155;-0.0387478331803813;0.018433374591172245;-0.0326297542571632;8.994585255433462;0.8701168227490461;0.757103285230895;8.994585255433462;2.195490094341017;-0.9768532680738248;0.00015668986331683502;0.03161007443662689;-0.1019679820536351;0.00035070664165077684;0.045885591924135896;0.0;53.73276033999999;86.84858754
7.711539826865646;0.8796321236926238;8.600127791300155;-0.0346691138982359;0.018433374591172245;-0.0326297542571632;8.105304596374465;0.8660345655335906;0.750015868698955;8.994585255433462;2.1816206502420297;-0.9768532680738248;0.00013703864621870553;0.03161007443662689;-0.1142041399000713;0.00022219392031061887;0.033649434077699686;0.0;53.73283478;86.8484623
7.831411435612854;0.7610382570926788;8.600127791300155;-0.0326297542571632;0.010032322933617808;-0.0326297542571632;8.087827694206458;0.8248765784889469;0.6804213697396319;8.994585255433462;2.1816206502420297;-0.9768532680738248;0.0001582494837214477;0.03161007443662689;-0.1142041399000713;0.000169790674715603;0.033649434077699686;0.0;53.73289432;86.84828632
6.556297469225272;0.586965929797424;7.831411435612854;-0.0550627103089629;0.02295525533232206;0.003059039461609;6.812964605191432;0.6181737586256645;0.3821387958533813;8.105304596374465;1.2923399911830327;-0.9839910268175792;8.338770430000057e-05;0.02447231569287245;-0.1142041399000713;0.00012144244217258208;0.02345263587233609;0.0;53.73296008;86.84806024
7.195834040199712;0.566262523262213;7.831411435612854;-0.0509839910268175;0.0317953761775279;0.0152951973080452;7.383090747022788;0.5401658765356379;0.291779174173514;8.087827694206458;1.2748630890150263;-0.9839910268175792;4.107000398815021e-05;0.016314877128581595;-0.1136942999898032;0.00010272699731721886;0.0239624757826042;0.0;53.7330279;86.8477799
6.648614183443264;0.3452498203147394;7.195834040199712;0.003059039461609;0.03157222494432956;0.0152951973080452;6.918325741281325;0.2475843848438755;0.06129802761852024;7.383090747022788;0.6045076939199872;-0.9839910268175792;5.2299270901369244e-05;0.01937391659019083;-0.1101254206179259;2.8333104017151935e-05;0.014275517487508993;0.0;53.73308584;86.84748456
6.503346417082181;0.8258759629944525;7.195834040199712;0.0152951973080452;0.02548791646777678;0.0152951973080452;6.8580272642725175;0.5913054272071003;0.3496421082445715;7.383090747022788;1.6114925722069344;-0.9839910268175792;5.0219777028551767e-05;0.01937391659019083;-0.0866727847455898;0.00020098308280787464;0.0377281533598451;0.0;53.73313862;86.84717894
6.262768779047261;0.6673784237432415;6.648614183443264;-0.0152951973080452;0.01915261650963405;0.0152951973080452;6.778583053102801;0.4815648889817456;0.23190474230000097;6.918325741281325;1.1467275664654712;-0.9962271846640156;8.910631245025535e-05;0.022432956051799513;-0.0866727847455898;0.00013828634254240871;0.029570714795554204;0.0;53.73317882;86.84691706
4.972268757134154;0.78917499087053;6.503346417082181;-0.0010196798205363;0.03268228920643427;0.0152951973080452;5.771598174815853;0.5752755387632307;0.33094194549932526;6.8580272642725175;1.0944492395050665;-0.9962271846640156;8.453142593005724e-05;0.022432956051799513;-0.0836137452839808;0.00019318498078480618;0.030080554705822396;0.0;53.733190119999996;86.84668772
5.939902403154771;0.7676217214156532;6.262768779047261;-0.0346691138982359;0.05490859852068083;-0.0010196798205363;6.813251337313057;0.5919618672267027;0.3504188522505245;6.813251337313057;1.186843612500966;-0.9962271846640156;6.675175331746334e-05;0.022432956051799513;-0.0805547058223717;0.00018642662569814708;0.029570714795554204;0.0;53.733174680000005;86.84648284
4.728555580376116;0.5887004476754699;5.939902403154771;-0.0693382277964719;0.05202066273503083;-0.0010196798205363;5.763578024767451;0.5026512461286957;0.2526582752347306;6.813251337313057;1.186843612500966;-0.9962271846640156;6.862329780299964e-05;0.022432956051799513;-0.0795350260018354;0.00011780332789514995;0.026511675333945092;0.0;53.73314636;86.84624971999999
4.533573758165349;0.5906892882725787;5.939902403154771;-0.1386764555929438;0.039321186169634724;-0.0346691138982359;5.626407724812091;0.5096264678472673;0.2597191367304818;6.813251337313057;1.186843612500966;-0.9911287855613338;9.981570589527057e-05;0.02753135515448135;-0.0795350260018354;0.00012061064462345433;0.026511675333945092;0.0;53.733121860000004;86.84597434
4.521024920131091;0.16030339612249642;4.87105477112944;-0.084123585194249;0.03188028591998263;-0.0550627103089629;5.637023122010598;0.06168755455632011;0.0038053543871389693;5.763578024767451;0.13717029995536034;-0.9839910268175792;0.00011042112464663921;0.02447231569287245;-0.0795350260018354;4.3669371329233295e-06;0.004588559192413605;0.0;53.73309542;86.84567142
4.814786917413794;0.8179454764836772;4.87105477112944;-0.0550627103089629;0.03155575448311994;-0.0550627103089629;5.6939371293026095;0.699400356183841;0.48916085823008365;5.744685777558657;1.6294713138803587;-0.9839910268175792;0.00023934974476136255;0.04027735291118584;-0.0520036708473538;0.0001832553975421011;0.032119914346895206;0.0;53.733058359999994;86.84535276
4.87105477112944;1.5955610589394873;4.87105477112944;-0.078515346181299;0.029001780707537554;-0.0550627103089629;5.744685777558657;1.0971211871050535;1.2036748991948016;5.744685777558657;2.365461996913745;-0.9839910268175792;0.00026664310184210105;0.04027735291118584;-0.0214132762312633;0.0007471101611567284;0.06271030896298571;0.0;53.733003800000006;86.84502683999999
2.891071176595765;1.6007484979199638;4.87105477112944;-0.1060467013357805;0.035853021315957516;-0.0448659121035994;4.115214463678298;1.085096527432684;1.1774344738464695;5.744685777558657;2.365461996913745;-0.951361272560416;0.0008047121414337739;0.07290710716834903;-0.0214132762312633;0.0007658256060120912;0.06271030896298571;60.0;53.732941600000004;86.84467792000001
1.2002318992690966;1.6106216949436074;4.87105477112944;-0.1315386968491893;0.04212030623814072;-0.0295707147955541;3.379223780644912;1.0651959712011752;1.1346424570632148;5.744685777558657;2.365461996913745;-0.9360660752523708;0.001458816939128694;0.08820230447639421;-0.0214132762312633;0.0007127985122552299;0.06271030896298571;60.0;53.73286864000001;86.84432336
2.3297147063888404;1.8819717387126338;4.854193985587981;-0.0448659121035994;0.05928804658544636;0.0152951973080452;3.90527006065868;1.1411472143474477;1.3022169648129398;5.615778731865826;3.111306577103302;-0.9360660752523708;0.0016653626680463555;0.08820230447639421;0.003059039461609;0.0009706037651378498;0.0825940654634444;60.0;53.73279032000001;86.84393784
4.854193985587981;1.8779497053787257;4.854193985587981;-0.0295707147955541;0.05773033719916112;0.0152951973080452;5.615778731865826;1.288811273702053;1.6610344992215083;5.615778731865826;3.1298026456475245;-0.9360660752523708;0.0015775040519197968;0.08310390537371282;0.003059039461609;0.0009344205717508159;0.0825940654634444;60.0;53.73271564;86.84353036
-0.1729046767379346;1.9756159061892458;4.854193985587981;0.0152951973080452;0.04521923619411027;0.0713775874375446;2.5044721547625244;1.5066651518253091;2.270039879724782;5.615778731865826;3.7505314795779707;-0.91669215866218;0.002155343411829113;0.10247782196390365;0.003059039461609;0.0010494165829176567;0.0825940654634444;60.0;53.732522419999995;86.84293266
1.2609309162724551;2.139159324396803;4.854193985587981;0.0022942795962067;0.04341055560641754;0.0713775874375446;2.485976086218302;1.6066217376196237;2.581233407791899;5.615778731865826;3.973026702988654;-0.91669215866218;0.0022671162074930917;0.10247782196390365;0.0066279188334862;0.0012391184114654862;0.08616294483532161;60.0;53.73228434;86.8424181
0.4447743166253017;2.3636852451016064;1.2609309162724551;0.0713775874375446;0.04006040937772177;0.0713775874375446;1.8652472522878554;1.3221063550928087;1.7479652141767918;4.956908654489617;3.314156625612444;-0.910574079738962;0.0029260558284423237;0.10859590088712168;0.0764759865402263;0.0014538781411807748;0.09890894259202601;60.0;53.731985099999996;86.8419755
-0.3785896376180262;2.9032625480859684;1.2609309162724551;-0.037728153359845;0.04298119782069222;0.0713775874375446;1.6427520288771726;1.629316331757189;2.6546717089307026;4.956908654489617;3.314156625612444;-0.910574079738962;0.002402335296573082;0.10859590088712168;0.0795350260018354;0.002307770312706704;0.10196798205363511;60.0;53.73164138;86.84160618
-4.800662012526855;2.410140001435875;0.4447743166253017;-0.0071377587437544;0.06150030431286651;0.0713775874375446;4.956908654489617;1.6165094623624852;2.613102841907451;4.956908654489617;3.314156625612444;-0.8310390537371265;0.004205568408387264;0.17130620985010714;0.0795350260018354;0.0015614919490991128;0.0866727847455898;60.0;53.7311935;86.84130166
-4.70157359917908;2.594054090266575;1.0512470365018338;-0.0285510349750178;0.034544428768133704;-0.0071377587437544;4.879668133696451;1.6783268759286722;2.816781102464497;4.956908654489617;3.37445090903263;-0.8310390537371265;0.007443756267139615;0.22432956051799746;0.0795350260018354;0.0018665537002415258;0.098908942592026;60.0;53.7308276;86.84123272000001
-2.302452657272973;2.38820464618858;1.0512470365018338;-0.0989089425920261;0.03600061883126284;-0.0071377587437544;2.6185499984192044;1.4563466865717314;2.120945671488461;4.956908654489617;3.37445090903263;-0.8310390537371265;0.009355954857889492;0.22534924033853365;0.0795350260018354;0.0016565248190868974;0.098908942592026;60.0;53.730458060000004;86.84115502
1.0512470365018338;2.1097175386101394;1.0512470365018338;-0.0305903946160905;0.04591617212874589;0.0244723156928724;1.5824577454569866;1.2372821070335134;1.5308670123852903;4.879668133696451;3.2972103882394643;-0.8310390537371265;0.00847549715213832;0.22534924033853365;0.0795350260018354;0.00136591555036057;0.098908942592026;60.0;53.73009218;86.84107586
-3.143403816530968;1.5895029713738376;1.0512470365018338;-0.0642398286937901;0.045752841519104914;0.0244723156928724;3.437402684463324;0.6589103807825276;0.4341628899029755;3.437402684463324;1.8549449390063373;-0.8310390537371265;0.00969012952325136;0.22534924033853365;0.058121749770572;0.000807675420202553;0.0774956663607626;60.0;53.72971808;86.84100384000001
-1.92659361106145;1.5372323103730436;1.0512470365018338;0.0244723156928724;0.034499250978933325;0.0244723156928724;2.5058552172000916;0.6592032936421965;0.43454898234872;3.437402684463324;1.8549449390063373;-0.896298562251453;0.006256469240454131;0.16008973182420716;0.058121749770572;0.0007977978243066667;0.0774956663607626;60.0;53.72939726;86.84092877999998
-1.2333106469871442;0.8891458807292446;-0.9107668731755856;-0.0316100744366268;0.03454442876813364;0.0244723156928724;2.44147032050329;0.5568954500054459;0.3101325422367681;3.6171419562713236;1.1756716357680337;-0.896298562251453;0.004319420697924066;0.16008973182420716;0.058121749770572;0.00030329418135052765;0.0438462322830631;60.0;53.729082919999996;86.84084484
-0.9107668731755856;1.427202110827807;-0.9107668731755856;-0.0550627103089629;0.03321872098096069;0.0244723156928724;2.6259490678861668;1.299546317882313;1.6888206323214776;5.499970256913107;3.058499936409817;-0.896298562251453;0.001393572818869003;0.07647598654022658;0.07545630671969;0.000582570208469998;0.06118078923218111;60.0;53.728786219999996;86.84076318
-2.339404664187054;2.3151470267690297;-0.9107668731755856;-0.0356887937187723;0.014286438451100919;-0.0265116753339451;3.6171419562713236;1.9901494911576476;3.9606949971550436;7.073390968967137;4.631920648463847;-0.896298562251453;0.005174092679652315;0.1764046089527891;0.1193025390027531;0.0019259232503104863;0.1050270215152442;60.0;53.72850542;86.8406667
-4.536109498862705;2.2220439641462058;-0.9107668731755856;-0.058121749770572;0.02439785074743628;0.0020393596410727;5.499970256913107;1.8282264637824692;3.3424120028745525;7.073390968967137;4.447441901080969;-0.896298562251453;0.004396361971218352;0.1764046089527891;0.1193025390027531;0.0017855574138952645;0.1050270215152442;60.0;53.72825657999999;86.84055097999999
-6.344247890153463;1.9808107851991008;-1.7508500157647924;-0.0265116753339451;0.030088330919666423;0.0020393596410727;7.073390968967137;1.6171679279440245;2.61523210717077;7.073390968967137;3.7934047289530266;-0.934026715611298;0.0030804582484990723;0.13867645559294406;0.1193025390027531;0.0014486794064987349;0.0907515040277353;60.0;53.72804784;86.84043951999999
-1.7508500157647924;2.5975213792386755;-0.1771774574208109;0.0020393596410727;0.030253747340137572;0.0020393596410727;3.27998624001411;1.9142127002648457;3.6642102618552324;7.073390968967137;4.54741427269189;-0.934026715611298;0.003011834950696078;0.13867645559294406;0.1193025390027531;0.0023095898698454256;0.1162434995411441;60.0;53.72788634;86.84032922
-5.460279016628323;3.1480683304308523;0.6939220178516556;-0.0764759865402263;0.031958463912312864;0.0020393596410727;6.046265494947152;2.1314388335430667;4.543031501135428;7.073390968967137;4.574652457854095;-0.934026715611298;0.002479744455988752;0.13867645559294406;0.1193025390027531;0.003373666884566441;0.1315386968491893;60.0;53.72776582;86.84022918000001
-0.1771774574208109;4.20090123564108;6.104653869606491;-0.0479249515652085;0.030881319435451172;0.0020393596410727;2.525976696275247;1.9516629081305907;3.8089881069727545;6.499705610251265;4.000967099138222;-0.934026715611298;0.000987707602241745;0.07647598654022647;0.0968695829509534;0.005286385348784515;0.2008769246456612;0.0;53.72769146;86.84015994
0.6939220178516556;4.254960189184755;6.104653869606491;-0.0683185479759355;0.023359349139637116;-0.0163148771285816;2.4987385111130425;1.9317401638186191;3.731620060509986;6.499705610251265;4.000967099138222;-0.9707351891506067;0.0003131717772463905;0.03976751300091774;0.0968695829509534;0.005494542685453606;0.2008769246456612;0.0;53.72763646;86.8401203
6.104653869606491;2.5223713643535883;6.104653869606491;-0.058121749770572;0.020149967212572097;-0.0163148771285816;6.499705610251265;1.833693082690843;3.3624303215082474;6.499705610251265;4.603986785870301;-0.9707351891506067;0.00027714454589981553;0.03976751300091774;0.003059039461609;0.0018506975594612834;0.1070663811563168;0.0;53.72757874;86.84009841999999
2.830316514954561;3.645952684989179;9.113734415205478;-0.0163148771285816;0.02132325808340916;-0.0163148771285816;3.4700511635766635;3.0767263226266137;9.466244864343485;9.217194422315862;7.3214755979348976;-0.9146527990211074;0.0016508581982834338;0.09584990313041708;-0.0122361578464362;0.003463189095791253;0.1345977363107984;0.0;53.72747922;86.84008082
0.7846591187608729;3.836949282743954;9.113734415205478;-0.0591414295911083;0.020717324521994936;-0.0163148771285816;1.895718824380964;3.411288600144786;11.636889913477773;9.217194422315862;8.251967149443145;-0.9146527990211074;0.001815710075051087;0.10400734169470771;0.0020393596410727;0.003883142883406866;0.14887325379830732;30.0;53.7273387;86.84005294
9.113734415205478;4.0207906535040205;9.113734415205478;-0.0346691138982359;0.018545842837792818;-0.0163148771285816;9.217194422315862;3.4623143469593884;11.987620637160816;9.217194422315862;8.259247698267705;-0.9146527990211074;0.0017881567812362488;0.10400734169470771;0.0142755174875089;0.004226883220583699;0.16110941164474352;30.0;53.72716011999999;86.84000748
-0.1146874970151709;4.286022214648762;9.113734415205478;-0.0183542367696543;0.053658803716668216;0.0815743856429081;0.9652272728727171;3.5879779514664074;12.873585780209076;9.217194422315862;8.259247698267705;-0.9146527990211074;0.0020330171847605834;0.11114510043846237;0.020393596410727;0.004825933417995771;0.1672274905679616;30.0;53.7269556;86.83992072000001
-0.838005891486174;4.799450005772494;9.113734415205478;-0.0163148771285816;0.04626695357032861;0.0815743856429081;0.9579467240481571;3.5503080485688314;12.604687239732623;9.217194422315862;8.259247698267705;-0.9146527990211074;0.0021219155478235585;0.11114510043846237;0.0560823901294993;0.006186286322246547;0.20291628428673392;30.0;53.72674936;86.83983223999999
-1.135347763530972;1.6808816325876206;1.460532009774409;0.0815743856429081;0.041081835732829225;0.0815743856429081;1.1437537184559605;1.001759068709227;1.003521231741178;3.2630329130024216;2.3050861889542644;-0.9758335882532884;0.0003873057338123711;0.04996431120628142;0.0560823901294993;0.0008782742371847298;0.081574385642908;30.0;53.72660716;86.83976172
-3.169832394365152;2.77181394830516;4.073087068530231;0.0163148771285816;0.036597841513976416;0.0815743856429081;3.2630329130024216;1.5690475253103244;2.461910136682453;4.717603549068272;3.759656825020115;-0.9758335882532884;0.0003407250710612415;0.04996431120628142;0.0560823901294993;0.002375509825613754;0.12745997756704391;30.0;53.72653954;86.83970434
1.460532009774409;2.77181394830516;4.073087068530231;0.0326297542571632;0.036597841513976416;0.0815743856429081;2.114354028237802;1.5690475253103244;2.461910136682453;4.717603549068272;3.759656825020115;-0.9758335882532884;0.0003407250710612415;0.04996431120628142;0.0560823901294993;0.002375509825613754;0.12745997756704391;0.0;53.72653954;86.83970434
4.073087068530231;2.77181394830516;4.073087068530231;0.0071377587437544;0.036597841513976416;0.0815743856429081;4.717603549068272;1.5690475253103244;2.461910136682453;4.717603549068272;3.759656825020115;-0.9758335882532884;0.0003407250710612415;0.04996431120628142;0.0560823901294993;0.002375509825613754;0.12745997756704391;0.0;53.72653954;86.83970434
0.4047009908632255;1.1222783395464393;3.033235341062145;-0.0050983991026817;0.05054054113952586;-0.0050983991026817;1.0353124730531291;1.1556607986172927;1.3355518814607588;3.9577684302041627;2.9224559571510333;-0.9432038339961252;0.0015421526560819075;0.0958499031304173;-0.0071377587437544;0.00042265712965027695;0.0479249515652085;90.0;53.72831384;86.85153944
3.033235341062145;1.1222783395464393;3.033235341062145;-0.0122361578464362;0.05054054113952586;-0.0050983991026817;3.554295098757372;1.1556607986172927;1.3355518814607588;3.9577684302041627;2.9224559571510333;-0.9432038339961252;0.0015421526560819075;0.0958499031304173;-0.0071377587437544;0.00042265712965027695;0.0479249515652085;90.0;53.72831384;86.85153944
2.2838884983734498;1.1222783395464393;3.033235341062145;-0.1284796573875803;0.05054054113952586;-0.0050983991026817;3.4598843560452472;1.1556607986172927;1.3355518814607588;3.9577684302041627;2.9224559571510333;-0.9432038339961252;0.0015421526560819075;0.0958499031304173;-0.0071377587437544;0.00042265712965027695;0.0479249515652085;90.0;53.72831384;86.85153944
0.5566422931069613;1.2699820296350954;3.033235341062145;-0.0509839910268175;0.04573465766761658;-0.0122361578464362;3.2420404580880833;0.3271695549101039;0.1070399176600755;3.9992480529508097;0.7572075948627264;-0.9432038339961252;0.0016329225636304155;0.0958499031304173;0.0020393596410727;0.0005330782542969167;0.0571020699500356;90.0;53.72839666;86.85135602
1.5134340563013595;1.4433297967792331;3.5590540571555893;-0.0214132762312633;0.042491417428397356;-0.0214132762312633;3.9577684302041627;0.8928436808335769;0.7971698384044501;5.525607874268647;2.2835674161805635;-0.9432038339961252;0.0011949811540149233;0.07647598654022636;0.0020393596410727;0.0006661658621572742;0.0652595085143264;90.0;53.72849698;86.85109794000002
-0.1144184794259435;1.889543029446844;4.251875828895811;-0.0560823901294993;0.02876328627435812;-0.0214132762312633;3.9992480529508097;1.1908911316763213;1.4182216875053095;6.085242554636271;2.843202096548188;-0.9432038339961252;0.0010654286857383543;0.07647598654022636;0.0020393596410727;0.0011190796276570546;0.0764759865402263;90.0;53.72860618;86.85081801999999
3.5590540571555893;2.1971654537548977;5.357611139146529;-0.0999286224125624;0.02873797125041546;-0.0214132762312633;5.525607874268647;1.3047383057241673;1.7023420464239707;6.927368037533114;2.9695996073289512;-0.9646171102273886;0.0004661185515921808;0.055062710308962926;0.0020393596410727;0.0014771684725563314;0.0948302233098807;0.0;53.72873694;86.85055453999999
4.251875828895811;2.053039151430261;5.357611139146529;-0.0428265524625267;0.028737971250415443;-0.0428265524625267;6.085242554636271;1.0712673738753742;1.1476137863298406;6.927368037533114;2.9281199845823043;-0.9880697460997246;0.00016043295228792247;0.03161007443662689;0.0020393596410727;0.001277329111378512;0.0948302233098807;30.0;53.72887758;86.85031118
5.357611139146529;1.1081528709288078;5.357611139146529;-0.0520036708473539;0.02793997136462225;-0.0428265524625267;6.927368037533114;0.7749361582356992;0.6005260493411047;6.927368037533114;2.0491943537657127;-0.9880697460997246;0.0004141312047717366;0.052003670847354244;-0.0438462322830631;0.00034155686861037196;0.0489446313857449;30.0;53.72904812;86.85008748
3.26611336388733;1.5319997064335293;5.357611139146529;-0.1040073416947078;0.026875866436700487;-0.0428265524625267;5.441130446445501;1.017750853888383;1.0358168005905326;6.927368037533114;2.6013500627388595;-0.9880697460997246;0.0004166265974191183;0.052003670847354244;-0.0254919955134087;0.0006839455347698718;0.06729886815539929;0.0;53.72923876;86.84992996
2.40584611828744;1.4491222902630354;5.357611139146529;-0.0856531049250535;0.028068064659273053;-0.037728153359845;4.878173683767401;1.0049130759439782;1.0098502902031878;6.927368037533114;2.6013500627388595;-0.948302233098807;0.0011377950725124238;0.09177118384827188;-0.0254919955134087;0.000616361983903284;0.06729886815539929;0.0;53.72947137999999;86.84979394
1.440575232575658;0.7214924944238921;3.26611336388733;-0.0479249515652085;0.027837445854561816;-0.037728153359845;4.326017974794254;0.40097417147764197;0.16078028619218143;5.441130446445501;1.1151124716512468;-0.948302233098807;0.0012261735621071942;0.09177118384827188;-0.0254919955134087;0.00015409049597582124;0.031610074436626896;0.0;53.729728939999994;86.84964701999999
2.8908486736203542;0.6558227940324742;3.014740749526595;-0.037728153359845;0.050919710675957665;-0.037728153359845;4.802301687425745;0.2127137826989169;0.04524715335008203;4.878173683767401;0.5521557089731468;-0.948302233098807;0.0012906378721645542;0.09177118384827188;-0.0254919955134087;0.0001266411768546226;0.028551034975017896;90.0;53.730010140000005;86.84949302
3.014740749526595;0.6812795814637282;3.014740749526595;-0.0836137452839808;0.055154216628032576;-0.0367084735393086;4.717740686008092;0.34593975079199457;0.11967431117802729;4.802301687425745;0.826162662415292;-0.948302233098807;0.0008331492201445612;0.07443662689915331;-0.0254919955134087;0.00013901416539789028;0.028551034975017896;90.0;53.730311740000005;86.8493799
2.921249908412177;0.9943171054906412;4.81260488828932;-0.1672274905679616;0.053640392402784974;-0.0367084735393086;4.6876681527336395;0.5601902142947861;0.31381307619163834;5.555452045927772;1.579313020917319;-0.948302233098807;0.0007061961192090123;0.07443662689915331;-0.0367084735393086;0.00029040131933904634;0.0458855919241358;90.0;53.730613819999995;86.84930822
2.1240048213276435;1.642788734019692;6.1605246109048775;-0.0367084735393086;0.060927042537510176;-0.0061180789232181;3.9761390250104527;0.9976298627295935;0.9952653430098677;6.581380825336792;2.6052418003263393;-0.9788926277148976;0.0003160830686683426;0.043846232283062725;-0.0367084735393086;0.000776379037416634;0.06933822779647189;0.0;53.73092444;86.84927580000002
4.81260488828932;1.8063202848981414;6.1605246109048775;-0.0642398286937901;0.06649610361868392;-0.0061180789232181;5.555452045927772;1.1022798420424211;1.215020850173065;6.581380825336792;2.6052418003263393;-0.9788926277148976;4.9647916213526516e-05;0.018354236769654197;-0.0367084735393086;0.0009750746769644024;0.06933822779647189;0.0;53.73120506;86.84927482
6.1605246109048775;1.6336699720009258;6.1605246109048775;-0.0061180789232181;0.02420102165775678;-0.0061180789232181;6.581380825336792;1.0255041459237404;1.05165875330678;6.581380825336792;2.6052418003263393;-0.9788926277148976;8.473937531733327e-05;0.021413276231263212;-0.0367084735393086;0.0008096509393817229;0.06933822779647189;0.0;53.731449680000004;86.84928904
5.953956020210569;0.6713834368747564;6.1605246109048775;-0.0071377587437544;0.027265712158908738;0.0010196798205363;6.354068995729529;0.6121442859496183;0.3747206268207681;6.581380825336792;1.5227540546547544;-0.9788926277148976;0.0001276289364442085;0.02549199551340864;-0.0815743856429081;0.00013256773439215125;0.024472315692872393;0.0;53.731653359999996;86.84929303999999
5.412102083955931;0.6208376980790855;6.1605246109048775;-0.0356887937187723;0.020667076268229924;0.0010196798205363;5.832170507580392;0.6299588333697791;0.39684813174061306;6.581380825336792;1.5227540546547544;-0.9824615070867748;6.857131045617797e-05;0.021923116141531418;-0.0815743856429081;0.00010574226343279773;0.024472315692872393;0.0;53.731831740000004;86.84928198
4.643270200699419;0.4890424793785811;5.953956020210569;0.0010196798205363;0.024429792088734366;0.0010196798205363;5.058626770682038;0.48368604397821147;0.23395218913929233;6.354068995729529;1.2954422250474913;-0.9952075048434792;1.528427996521889e-05;0.009177118384827043;-0.0815743856429081;7.2054462693145e-05;0.022432956051799693;0.0;53.731967600000004;86.84923864
5.088467813048228;0.3710110599168102;5.50718708112869;-0.0458855919241358;0.0216258681212289;0.0010196798205363;5.435479689915618;0.3314835216381461;0.10988132511762726;5.832170507580392;0.773543736898354;-0.9952075048434792;1.528427996521976e-05;0.009177118384827043;-0.0815743856429081;4.3669371329178436e-05;0.015295197308045294;0.0;53.73210652;86.84918300000001
5.506279640923809;0.35704677264980683;5.50718708112869;-0.0550627103089629;0.031615007986239854;0.020393596410727;5.796489223660358;0.3040847526662817;0.09246753680411374;5.796489223660358;0.7378624529783204;-0.9952075048434792;1.902736893629194e-05;0.009177118384827043;-0.0815743856429081;4.075807990723314e-05;0.015295197308045294;0.0;53.732254080000004;86.84912576
5.50718708112869;0.38999927763105957;6.09197439784899;-0.0254919955134087;0.029810597218922107;0.020393596410727;5.770683425713402;0.32584641648085944;0.10617588713341769;6.202559012557841;0.8026751202542961;-0.9839910268175792;6.685572801110649e-05;0.020393596410727022;-0.0887121443866625;4.0758079907232705e-05;0.016314877128581706;0.0;53.73242918;86.84903462
5.198630127080399;0.34756076227674404;6.09197439784899;0.020393596410727;0.028346365418813486;0.020393596410727;5.399883892303545;0.30112784988269126;0.09067798197497265;6.202559012557841;0.8026751202542961;-0.9839910268175792;0.0001128125426003884;0.028551034975017875;-0.0907515040277353;3.451959828877769e-05;0.01427551748750891;0.0;53.7325912;86.84892528
6.09197439784899;0.7590652539506028;7.181926541839619;-0.0122361578464362;0.03646977215523079;0.020393596410727;6.202559012557841;0.709836754085747;0.5038682174509892;7.285468416353815;1.8855845240502704;-0.9839910268175792;0.00012081859401073648;0.028551034975017875;-0.0907515040277353;0.00017135029512020737;0.034669113898235904;0.0;53.73273064;86.84881384
5.860974362535056;1.0988806821582364;7.951205993918198;-0.0367084735393086;0.04572442607328499;0.020393596410727;6.015798959643269;1.0815649777281664;1.169782801048129;8.106571116740202;2.7066872244366573;-0.9839910268175792;0.00010834163077382687;0.028551034975017875;-0.0907515040277353;0.0003765963403673521;0.04894463138574481;0.0;53.732843720000005;86.84868628000001
7.181926541839619;0.9827723601744678;7.951205993918198;-0.0795350260018354;0.031234508967368214;-0.0122361578464362;7.285468416353815;1.0051863083709336;1.0103995145363855;8.111415902251286;2.095616942608017;-0.9839910268175792;0.00010896547893567248;0.028551034975017875;-0.1040073416947078;0.00030329418135051453;0.035688793718772316;0.0;53.73293108;86.84855347999999
7.951205993918198;0.8969726805892086;7.951205993918198;-0.0887121443866625;0.0421622501436835;0.0173345569491179;8.106571116740202;0.8891278442098282;0.7905483233492164;8.111415902251286;2.095616942608017;-0.9788926277148976;0.00014639636864639648;0.03364943407769949;-0.1040073416947078;0.000250890935755499;0.035688793718772316;0.0;53.73297736000001;86.84843592
7.896463595133639;0.9721995123860713;7.951205993918198;-0.0560823901294993;0.047734740086654036;0.0173345569491179;8.111415902251286;0.8673593314060112;0.7523122097770827;8.111415902251286;2.0335505944973447;-0.9788926277148976;5.718608150249761e-05;0.01937391659019061;-0.0978892627714897;0.00031951423355849613;0.041806872641990414;0.0;53.7330198;86.84830428
6.535617860211169;1.1663880643632005;7.951205993918198;0.0173345569491179;0.042717769847508275;0.0173345569491179;6.844395626721647;1.0463558754550522;1.0948606180993086;8.111415902251286;2.1350716859021697;-0.9788926277148976;6.0617246392648064e-05;0.01937391659019061;-0.0968695829509534;0.00044469976470214547;0.042826552462526715;0.0;53.733058240000005;86.84814304
5.646320181818777;0.9755539861245627;7.896463595133639;0.0005098399102681;0.029738136403660326;0.0173345569491179;6.0778653077539415;0.8706725581024654;0.7580707034326909;8.111415902251286;2.1350716859021697;-0.9788926277148976;6.602393046197509e-05;0.01937391659019061;-0.0968695829509534;0.00030235840910774813;0.041806872641990414;0.0;53.73309682;86.84795634
5.55588374669802;0.4766421381903943;6.535617860211169;-0.0356887937187723;0.023990663113995433;0.0173345569491179;5.9763442163491165;0.5345679632653233;0.28576290734963605;7.2443349413530225;1.267990725003906;-0.9788926277148976;5.4378764774192705e-05;0.01937391659019061;-0.0968695829509534;6.061724639264488e-05;0.01631487712858161;0.0;53.73313344;86.84774207999999
5.828964606151756;0.3786404423354682;6.521380209897466;-0.0336494340776996;0.019204120348099336;0.0050983991026817;6.365795084706777;0.5519850932430532;0.30468754316254215;7.2443349413530225;1.267990725003906;-0.9901091057407974;2.162673627731078e-05;0.010196798205363455;-0.0968695829509534;4.19018015372823e-05;0.01631487712858161;0.0;53.733157860000006;86.84752074000001
6.521380209897466;0.36554505328506476;6.521380209897466;0.0050983991026817;0.035945702356130364;0.0050983991026817;7.2443349413530225;0.5298943440254666;0.2807880158301796;7.2443349413530225;1.267990725003906;-0.9890894259202612;2.4226103618332727e-05;0.011216478025899645;-0.0968695829509534;3.7950763178927885e-05;0.01631487712858161;0.0;53.733164280000004;86.84731212
5.87649645334035;0.3182328898066897;6.521380209897466;-0.0244723156928724;0.05252786351212734;0.0050983991026817;6.943411416706701;0.48880381810708795;0.2389291725960671;7.712992956063784;1.3471978713570074;-0.9890894259202612;2.7033420346637594e-05;0.011216478025899645;-0.0999286224125624;2.958080034083508e-05;0.013255837666972609;0.0;53.733156099999995;86.84712474
5.7434683498923365;0.5720595233649957;6.521380209897466;-0.0938105434893443;0.06436675863758497;0.0050983991026817;7.066165197634465;0.3038873880950388;0.09234754464322473;7.712992956063784;0.7695815393570831;-0.9829713469970428;5.042772641583929e-05;0.017334556949118007;-0.0866727847455898;0.00010210314915536648;0.026511675333945203;0.0;53.73313476;86.84694468000001
6.16271347363615;0.7604862357257277;6.16271347363615;-0.1223615784643621;0.045970486708880785;-0.0244723156928724;7.712992956063784;0.3688684705480578;0.1360639485644634;7.712992956063784;0.9884019616836133;-0.9829713469970428;5.5418511710601935e-05;0.017334556949118007;-0.0744366268991536;0.00019100151221834022;0.034159273987967795;0.0;53.733116159999994;86.84670592
4.984715698037944;0.7468948887067713;6.16271347363615;-0.1458142143366982;0.03521218853845622;-0.0550627103089629;7.056396549257245;0.36320430098306655;0.13191736425259798;7.712992956063784;0.9884019616836133;-0.9829713469970428;7.070279167581624e-05;0.020393596410727244;-0.0744366268991536;0.0001807080175478907;0.034159273987967795;0.0;53.733109999999996;86.84637208000001
4.297732662666831;0.6829326707010744;6.16271347363615;-0.0825940654634444;0.03678345672104637;-0.0550627103089629;6.724590994380171;0.3622582815091268;0.13123106252194577;7.712992956063784;0.9884019616836133;-0.9829713469970428;0.00012269013849627194;0.026511675333945273;-0.0744366268991536;0.0001549742808717669;0.034159273987967795;0.0;53.73310738;86.84601106
4.814252928425796;1.3634828848849827;5.0079050703832575;-0.0550627103089629;0.03423604418465891;-0.0550627103089629;7.006139179907174;0.9122346011794246;0.8321719675889837;7.130821886268004;2.161990171542982;-0.9829713469970428;0.0001330876078603637;0.026511675333945273;-0.0316100744366268;0.0005710290174758474;0.0571020699500357;0.0;53.7331;86.84560944
5.0079050703832575;1.3651537111185992;5.0079050703832575;-0.0764759865402263;0.037869815808754585;-0.0550627103089629;7.130821886268004;1.08104246441573;1.1686528098700348;7.130821886268004;2.161990171542982;-0.9870500662791885;8.110026103991247e-05;0.022432956051799624;-0.0316100744366268;0.0005780992966434289;0.0571020699500357;0.0;53.733073059999995;86.84518314
1.7952127141538043;2.181831864684728;5.0079050703832575;-0.1019679820536351;0.0382753632693453;-0.0550627103089629;4.968831714725022;1.5329841710368883;2.350040468649656;7.130821886268004;3.623844135106131;-0.9931681452024064;3.536439267462351e-05;0.016314877128581706;0.0038237993270113;0.0014838358497860525;0.0925359437136738;60.0;53.73301578;86.84479818
2.9615686977659963;2.2813757069917466;5.0079050703832575;-0.1549913327215254;0.03333588945317027;-0.0734169470786173;5.028971998732666;1.5606105298752146;2.435505225957398;7.130821886268004;3.9314141665177367;-0.9931681452024064;4.7555425504021043e-05;0.01733455694911812;0.0081574385642908;0.001628126730886218;0.0968695829509533;60.0;53.7329344;86.84443008000001
-0.2166294520303694;1.4266818853698267;2.9615686977659963;-0.116243499541144;0.04093985908001372;-0.0479249515652085;3.506977751161873;1.0339546418500092;1.069062201403181;5.028971998732666;2.230777291263533;-0.9697155093300704;0.0002594298574707657;0.040787192821454044;0.0081574385642908;0.0006279421654075382;0.060161109411644695;60.0;53.73283148;86.84394316000001
-0.4613030911131445;1.532969626634447;2.9615686977659963;-0.0734169470786173;0.06134372104992993;0.0040787192821454;3.1994077197502673;0.885542207823392;0.7841850018367276;5.028971998732666;2.230777291263533;-0.9697155093300704;0.0002703472003030571;0.040787192821454044;0.0081574385642908;0.0007150209713317963;0.060161109411644695;60.0;53.732715559999995;86.84343812
1.263459344727642;1.471371316678453;2.435365007281811;-0.0479249515652085;0.0703800710787698;0.0652595085143265;2.7981947074691327;0.666483239421731;0.44419990843008444;3.506977751161873;1.74645747148723;-0.9472825532782706;0.0006692201187829688;0.06322014887325389;0.020393596410727;0.0006282800831618721;0.0622004690527174;60.0;53.73259342;86.84292686
2.435365007281811;1.6620591622279395;2.435365007281811;0.0040787192821454;0.06542261278585433;0.0723972672580809;3.034202097260819;0.7287813821343044;0.531122302945587;3.1994077197502673;1.5448424991252028;-0.9472825532782706;0.0008943903146990547;0.07341694707861735;0.0244723156928724;0.0008167212185493063;0.06627918833486279;60.0;53.732452220000006;86.8424119
-1.230387766355029;1.6531126721742142;2.435365007281811;0.0652595085143265;0.04903271194884727;0.0723972672580809;1.760520279674643;0.7921934901442258;0.6275705258268895;3.034202097260819;1.8492580028494783;-0.9472825532782706;0.0007496575411509113;0.07341694707861735;0.0244723156928724;0.0008071555467343431;0.06627918833486279;60.0;53.73226664;86.84197032
-1.3700212433292132;1.5459529944411914;2.435365007281811;0.0723972672580809;0.052790469913206475;0.0723972672580809;1.6545652206250645;0.7870398498657034;0.619431725276629;3.034202097260819;1.9921080255287074;-0.9472825532782706;0.0008221279026186309;0.07341694707861735;0.0244723156928724;0.0007088994612436892;0.06627918833486279;60.0;53.73205014;86.84168726
-0.3525032091427396;0.7127515462471289;0.3459721788491509;0.0214132762312633;0.054714160683582785;0.0723972672580809;1.1849440944113407;0.4166457172438893;0.17359365369767496;1.760520279674643;0.9880471543168817;-0.9472825532782706;0.0015426725295501083;0.10706638115631695;0.0244723156928724;0.00015289478699895303;0.030590394616090498;60.0;53.731803;86.84147596
0.3459721788491509;0.737661088693705;0.3459721788491509;-0.058121749770572;0.050294098529508585;0.0723972672580809;1.0420940717321117;0.4009326842361893;0.16074701728883586;1.7040533018068829;0.9315801764491215;-0.9620679106760476;0.0011552108336972799;0.09228102375853997;0.0244723156928724;0.00016422802860581164;0.030590394616090498;60.0;53.731523779999996;86.84132474
-0.30473782708503;2.378123313814086;0.3459721788491509;-0.0132558376669725;0.03321715594263412;0.0214132762312633;0.7724731253577614;2.0304282895766694;4.122639039113239;5.652339402982984;4.879866277625223;-0.9620679106760476;0.0012947968599101981;0.09228102375853997;0.1009483022330988;0.001868113320646137;0.10706638115631689;60.0;53.73122078;86.84123166
-1.3351182785779188;2.3206665285238324;0.3459721788491509;-0.0295707147955541;0.02518423378245835;-0.0132558376669725;1.7040533018068829;1.99376652702497;3.9751049642852108;5.652339402982984;4.879866277625223;-0.913633119200571;0.0032949060541334458;0.14071581523401655;0.1009483022330988;0.0017599796392595967;0.10706638115631689;60.0;53.7309039;86.84116054
-5.557003523395443;2.139239716274261;-0.30473782708503;-0.0571020699500356;0.028719875428930623;-0.0101967982053635;5.652339402982984;1.8441852147928368;3.401019106460502;5.652339402982984;4.879866277625223;-0.8840624044050168;0.005523863549060314;0.17028653002957073;0.1009483022330988;0.001526348502648485;0.09534006322014889;60.0;53.73056782;86.84108558
-2.4200463917517347;1.9125048154207804;-0.5286306166563761;-0.0764759865402263;0.026221835348565876;-0.0101967982053635;2.992412284447672;1.5016045230584711;2.2548161436696583;5.652339402982984;3.9482861011761017;-0.8677475272764352;0.004620063524586719;0.168247170388498;0.1009483022330988;0.0012537268559220335;0.092790863668808;60.0;53.730145500000006;86.84098581999999
-0.5286306166563761;1.9443112858428084;-0.5286306166563761;-0.0101967982053635;0.025536822012845496;-0.0101967982053635;2.3917343385684924;1.2608557654998855;1.5897572613943025;5.652339402982984;3.260605064414492;-0.8677475272764352;0.0048197469237240805;0.168247170388498;0.1009483022330988;0.0012858550362570733;0.092790863668808;60.0;53.729721100000006;86.84089422000001
-2.6896695772870305;0.8957391697553237;-0.5286306166563761;-0.0285510349750178;0.031091039332571162;-0.0101967982053635;3.485004297735577;0.41705832752986643;0.17393764856200936;3.485004297735577;1.0932699591670847;-0.8677475272764352;0.0031288064810420456;0.12847965738758038;0.040787192821454;0.00018528290406809588;0.032629754257163204;60.0;53.72930064;86.84080656
-1.1387674759676814;2.025111955789351;-0.5286306166563761;-0.040787192821454;0.03424211763586589;-0.0101967982053635;3.0095573477452504;1.6606745717443538;2.7578400332382933;6.6445468439314554;4.252812505362963;-0.8677475272764352;0.0035026994793747467;0.12847965738758038;0.0968695829509534;0.0012105773580610585;0.0887121443866626;60.0;53.72889148;86.84070971999999
-1.5191902315036625;1.7658861435613624;-1.1387674759676814;-0.0825940654634444;0.03454141875385807;-0.0091771183848271;3.3125752212073394;1.4803530556403381;2.191445169343686;6.6445468439314554;3.634989496186205;-0.8677475272764352;0.005320177124217776;0.20393596410727022;0.0968695829509534;0.0009360841668490712;0.0774956663607628;60.0;53.72850062;86.84060045999999
-5.64015731435298;2.3117741132835796;0.5547928157602506;-0.0887121443866625;0.03250684253311158;-0.0091771183848271;6.6445468439314554;1.4725145285986343;2.1682990369340582;6.6445468439314554;3.634989496186205;-0.9457530335474662;0.0022658165238225716;0.12593045783623924;0.0968695829509534;0.0015984029653416305;0.1060467013357805;60.0;53.728204340000005;86.84049874
-2.832392022663628;2.246824438202918;0.5547928157602506;-0.0091771183848271;0.033760488617488864;-0.0091771183848271;4.474181159313306;1.3237018183092626;1.7521865037952478;6.6445468439314554;3.331971622724116;-0.9457530335474662;0.0025994193283694136;0.12593045783623924;0.0968695829509534;0.0015010826520937433;0.1060467013357805;60.0;53.72792058;86.8403737
0.5547928157602506;2.8569352652189104;1.5317047478087435;-0.061180789232181;0.06042667698360783;0.0520036708473539;3.5538260547633618;1.2618730093330701;1.5923234916832982;6.6445468439314554;3.0907207891680937;-0.9457530335474662;0.0025822635039186637;0.12593045783623924;0.0968695829509534;0.0024472523642259728;0.12338125828489849;60.0;53.72764634;86.84021722
-2.2635934747795923;2.522973896224646;3.108591147371538;-0.0887121443866625;0.05829769130111623;0.0520036708473539;4.136020641507887;0.4117092721487602;0.16950452477326186;4.474181159313306;0.9203551045499445;-0.9457530335474662;0.0027961394487380034;0.12593045783623924;0.0530233506678902;0.0019311219849925205;0.1050270215152441;60.0;53.72738946;86.84004225999999
1.5317047478087435;3.938955423716308;8.378852045713469;0.0520036708473539;0.06555121786891266;0.0520036708473539;3.638383632914788;2.1948021472063006;4.817156465381387;8.767334867985937;5.2135088132225755;-0.9457530335474662;0.0003230493731422626;0.04435607219333115;0.037728153359845;0.004466440914732341;0.1804833282349342;60.0;53.72716418;86.83985793999999
3.108591147371538;4.51653475947836;8.378852045713469;-0.0774956663607627;0.0644877959117479;0.0520036708473539;4.329072538918693;2.4859660207048435;6.1800270560990755;8.767334867985937;5.128951235071149;-0.9503415927398796;0.00031504332173191686;0.03976751300091774;0.037728153359845;0.0059570221227683426;0.1804833282349342;60.0;53.72698136;86.83967512000001
8.378852045713469;3.0299850405950055;8.378852045713469;0.0316100744366268;0.0989262861405544;0.0520036708473539;8.767334867985937;2.4137390102084457;5.826136009402046;8.767334867985937;5.128951235071149;-0.954420312022025;0.00042764791494501826;0.054043030488426624;-0.0265116753339451;0.002704693705680849;0.1162434995411441;0.0;53.72683764;86.83950067999999
8.071541020745023;3.786876224481068;12.76184545684619;0.0101967982053634;0.08765807327023631;0.0316100744366268;8.313319042747905;3.467777700143033;12.025482177609305;12.764686415869312;8.435613876950619;-0.913633119200571;0.001262044831413277;0.09483022330988067;-0.0520036708473539;0.0036616767859517334;0.15499133272152538;0.0;53.72673397999999;86.83933558000001
4.433674926228187;3.056716243337218;12.76184545684619;-0.1876210869786886;0.08849211293423112;0.0316100744366268;4.603579445892518;3.014431111934557;9.086794928599009;12.764686415869312;8.161106969976792;-0.913633119200571;0.001352398840187223;0.09483022330988067;-0.0795350260018354;0.00216818428649378;0.1274599775670439;60.0;53.72667216999999;86.83921233
12.76184545684619;3.2369934080483165;12.76184545684619;-0.0224329560517997;0.12060273584552769;0.1386764555929438;12.764686415869312;3.1407468493363884;9.86429077161645;12.764686415869312;8.161106969976792;-0.913633119200571;0.0014405173930478882;0.09483022330988067;-0.0795350260018354;0.0025075576865376927;0.1274599775670439;60.0;53.72664279000001;86.83913687
6.640595509441681;3.406004124215326;12.76184545684619;-0.0866727847455898;0.1323809905680841;0.1386764555929438;6.701208984540118;3.172316168568347;10.063589873360158;12.764686415869312;8.161106969976792;-0.913633119200571;0.0017844136922651808;0.0989089425920261;-0.0795350260018354;0.002740045101518758;0.1274599775670439;60.0;53.72662775;86.83909623
5.561419524038707;3.406004124215326;12.76184545684619;0.1386764555929438;0.1323809905680841;0.1386764555929438;6.012773926546121;3.172316168568347;10.063589873360158;12.764686415869312;8.161106969976792;-0.913633119200571;0.0017844136922651808;0.0989089425920261;-0.0795350260018354;0.002740045101518758;0.1274599775670439;0.0;53.72662775;86.83909623
4.872450301255477;3.406004124215326;12.76184545684619;0.0922810237585398;0.1323809905680841;0.1386764555929438;6.245823423422453;3.172316168568347;10.063589873360158;12.764686415869312;8.161106969976792;-0.913633119200571;0.0017844136922651808;0.0989089425920261;-0.0795350260018354;0.002740045101518758;0.1274599775670439;0.0;53.72662775;86.83909623
-0.3451509492039705;2.3587439756096713;6.075236302156823;-0.0010196798205363;0.038489367817562424;-0.0010196798205363;2.479535090389588;1.6816130456551175;2.82782243531748;6.6365623457634;4.157027255373812;-0.962577750586316;0.00048265052788108026;0.0530233506678901;0.0061180789232181;0.0016310510191448685;0.11012542061792589;30.0;53.72789578;86.8522785
1.4055164641269062;2.3587439756096713;6.075236302156823;-0.0662791883348628;0.038489367817562424;-0.0010196798205363;2.8461696947901296;1.6816130456551175;2.82782243531748;6.6365623457634;4.157027255373812;-0.962577750586316;0.00048265052788108026;0.0530233506678901;0.0061180789232181;0.0016310510191448685;0.11012542061792589;30.0;53.72789578;86.8522785
2.0002250658256218;2.3587439756096713;6.075236302156823;-0.0418068726419904;0.038489367817562424;-0.0010196798205363;3.216743305280021;1.6816130456551175;2.82782243531748;6.6365623457634;4.157027255373812;-0.962577750586316;0.00048265052788108026;0.0530233506678901;0.0061180789232181;0.0016310510191448685;0.11012542061792589;30.0;53.72789578;86.8522785
1.902309585216312;2.2998430535090937;6.075236302156823;-0.1070663811563169;0.02483501324094365;-0.0418068726419904;3.211972912548196;1.8951286461074808;3.591512585297173;6.6365623457634;3.79039265097327;-0.962577750586316;0.00033791775433294135;0.04486591210359969;-0.0244723156928724;0.0015869657490411252;0.0795350260018354;30.0;53.7279033;86.8521529
6.075236302156823;2.080440868186084;6.075236302156823;-0.0520036708473539;0.04613079291263476;0.020393596410727;6.6365623457634;1.7344729829874437;3.0083965287133614;6.6365623457634;3.424589433215204;-0.962577750586316;0.00032492091762782824;0.04486591210359969;-0.0336494340776996;0.001303114835401456;0.07035790761700819;30.0;53.72793332;86.85203444
5.814042209089137;2.2593701805293533;6.075236302156823;-0.0652595085143265;0.04630008905111684;0.020393596410727;6.440266270149699;1.7148283777874256;2.9406363652650533;6.6365623457634;3.424589433215204;-0.9758335882532884;0.000324920917627826;0.047924951565208596;-0.0244723156928724;0.0014996270063827666;0.0795350260018354;0.0;53.7279898;86.85192708
5.235884070035004;2.232125449604573;6.075236302156823;0.020393596410727;0.0333982112302384;0.020393596410727;5.974657035398609;1.5879090722631417;2.5214552217755912;6.6365623457634;3.3465646236952047;-0.9758335882532884;0.0006886243959837113;0.06525950851432671;-0.0244723156928724;0.0014444164440594472;0.0795350260018354;0.0;53.72806808;86.85182616
1.3684056278956125;2.302697184930289;5.814042209089137;-0.0382379932701131;0.04078974194134786;0.020393596410727;3.289997722068195;1.5328910792062829;2.3497550607102027;6.440266270149699;3.1502685480815042;-0.9901091057407974;0.0005788271194989142;0.05302335066789032;-0.0152951973080452;0.001580103419260829;0.0866727847455899;60.0;53.728160360000004;86.851729
2.017160703550471;1.8606953547561234;5.235884070035004;-0.0489446313857448;0.0437699864216782;0.020393596410727;3.7046496996176224;1.1489502880843392;1.320086764489086;5.974657035398609;2.684659313330414;-0.9901091057407974;0.0005638547636146224;0.05812174977057216;-0.0132558376669725;0.0010192639217617907;0.0774956663607628;60.0;53.72825656;86.85161528
0.8370328435970942;2.691429688292889;2.017160703550471;-0.0887121443866625;0.023522910659259065;-0.0382379932701131;3.3276761230836365;1.0672041578556837;1.138924714544459;5.789855581224632;2.499857859156437;-0.9972468644845518;0.000434302295338056;0.05098399102681772;0.0815743856429081;0.002249284547533687;0.1182828591822167;60.0;53.728352199999996;86.85148052
0.7222528962269501;2.838919167727656;2.017160703550471;-0.0831039053737126;0.02171582885842312;-0.0438462322830631;3.4036375971048907;1.0326189829135455;1.066301963873405;5.789855581224632;2.4621794581409957;-0.9931681452024064;0.000727510931405409;0.05506271030896315;0.0815743856429081;0.0025073497371504113;0.1182828591822167;60.0;53.72844164000001;86.85130884
-4.671866310103949;3.2872601995695567;3.609986192318441;-0.0438462322830631;0.024651168268142308;-0.0346691138982359;5.789855581224632;1.0649770012739792;1.134176013242517;5.789855581224632;2.4621794581409957;-0.9931681452024064;0.00064381130302448;0.05506271030896315;0.0815743856429081;0.003346737438913434;0.1458142143366982;60.0;53.72851923999999;86.85110996
-2.8768073730546364;3.9708457287081527;4.440033445647192;-0.0469052717446721;0.04369777166761727;-0.0346691138982359;4.530102955897507;0.960251125941369;0.9220822248716669;5.789855581224632;2.3862179841197415;-0.9931681452024064;0.00047495640055165013;0.05506271030896315;0.0815743856429081;0.004912284401064535;0.16110941164474352;60.0;53.72858324;86.85089236
3.609986192318441;4.401781999068946;4.440033445647192;-0.0346691138982359;0.04345559096256903;-0.0346691138982359;5.069615542142668;0.5159571357223085;0.2662117659027687;5.789855581224632;1.259752625327125;-0.9931681452024064;0.00022011442643779188;0.03568879371877243;0.0815743856429081;0.006061204765796531;0.16110941164474352;60.0;53.72864568;86.85066296
4.440033445647192;3.1278135917724152;4.440033445647192;-0.1407158152340165;0.0642374008388149;0.0397675130009177;5.60281874100107;0.44427618713931527;0.19738133045904788;5.60281874100107;1.0727157851035631;-0.9931681452024064;0.00017109035838610458;0.03568879371877243;0.0499643112062812;0.0030555043220252625;0.1294993372081166;0.0;53.728728000000004;86.8504432
4.414468572027116;1.0715018760157118;4.440033445647192;-0.0535331905781584;0.06492206207036379;0.0397675130009177;5.598359021426952;0.6777476060465465;0.4593418175018248;5.60281874100107;1.6594416068856077;-0.9941878250229428;0.00016136872453067935;0.034669113898236015;-0.0316100744366269;0.00038543418932683354;0.0479249515652085;0.0;53.728833140000006;86.85025138
3.813044618926566;1.1037011472025684;4.440033445647192;0.0397675130009177;0.06822107619170319;0.0397675130009177;5.140952254205614;0.7194372751278868;0.5175899928434388;5.60281874100107;1.6594416068856077;-0.9768532680738248;0.00039635153215912674;0.05200367084735402;-0.0316100744366269;0.00041662659741910504;0.0479249515652085;0.0;53.72897478;86.8500807
1.816816758758821;0.9730165501559619;4.414468572027116;-0.0683185479759355;0.05612941473362818;0.0397675130009177;3.9433771341154626;0.6401855677597035;0.40983756116781384;5.598359021426952;1.6549818873114894;-0.9528907922912206;0.0008524105321415455;0.07596614662995815;-0.0316100744366269;0.0003257007278301342;0.0479249515652085;0.0;53.729214760000005;86.84990084
3.029209886524156;0.8416059531245437;3.925664324781868;-0.1070663811563169;0.05706837415691857;0.0397675130009177;4.531706537725378;0.439558206694291;0.19321141707230108;5.140952254205614;1.1975751200901517;-0.9528907922912206;0.0005532753385366664;0.05608239012949934;-0.0316100744366269;0.00022952413621229754;0.037728153359845;0.0;53.72950216;86.84974792
3.142746195814158;0.7553128170703086;3.925664324781868;-0.0820842255531762;0.019246034555090153;-0.0550627103089629;4.487386060607937;0.3935933402533691;0.15491571749180438;4.78495603728876;0.8997085272070873;-0.9528907922912206;0.0004245286741358174;0.05455287039869505;-0.0316100744366269;0.00017930435918374034;0.037728153359845;30.0;53.729809640000006;86.84961507999999
3.925664324781868;0.38644712850253454;3.925664324781868;-0.0774956663607627;0.01900957778986597;-0.0550627103089629;4.78495603728876;0.36347763100001557;0.1321159882373835;4.78495603728876;0.8997085272070873;-0.9528907922912206;0.0006529090887180628;0.06474966860405829;-0.0520036708473539;6.165699332905727e-05;0.017334556949118007;0.0;53.73014958;86.8494891
3.063854069538743;0.853017742485558;5.1643703605398485;-0.0550627103089629;0.04846215409946968;0.0346691138982359;3.8852475100816726;0.621521643647831;0.38628915352270143;5.458965537765445;1.5737180276837721;-0.9528907922912206;0.0006319062006025992;0.06474966860405829;-0.052513510757622;0.00022073827459964126;0.0361986336290405;0.0;53.73049694;86.84940126000001
3.54644427749946;1.456935524641738;6.679563344939412;-0.0703579076170082;0.045380907405487066;0.0346691138982359;4.082630808703194;1.2002415372771225;1.44057974780535;6.8498504062347045;2.964602896153032;-0.9809319873559702;0.0002195945529695913;0.03670847353930873;-0.0530233506678902;0.0006236402124581461;0.0632201488732538;0.0;53.730778980000004;86.84937098
5.1643703605398485;1.6178499594319873;6.679563344939412;0.0346691138982359;0.0410957534157631;0.0346691138982359;5.458965537765445;1.3473121718766208;1.8152500884868972;6.8498504062347045;2.964602896153032;-0.9809319873559702;0.0001978638419986397;0.03670847353930873;-0.0530233506678902;0.0007898957475899538;0.0632201488732538;0.0;53.731020799999996;86.84934655999999
6.679563344939412;1.3982951279316647;6.942894069173389;-0.0295707147955541;0.038606699332400324;0.0346691138982359;6.8498504062347045;1.2209074871928567;1.4906150922835755;7.027439845072262;2.944809036369068;-0.9809319873559702;0.00022297373051292024;0.03670847353930873;-0.0632201488732537;0.0006033651471981707;0.060161109411644806;0.0;53.7312316;86.84933208000001
6.330265491945503;0.6849915831974929;6.942894069173389;-0.0101967982053635;0.027803809940727852;0.0346691138982359;6.467076032559306;0.608069031851882;0.36974794749728507;7.027439845072262;1.5684743073068175;-0.9809319873559702;0.00013667473479096723;0.03161007443662689;-0.0887121443866625;0.00017031054818380175;0.034669113898236;0.0;53.73139684;86.84932835999999
6.942894069173389;0.2753567570274219;6.94448653417211;-0.0367084735393086;0.015937696714542027;0.0020393596410727;7.027439845072262;0.26026570923692016;0.06773823940459706;7.027439845072262;0.5603638125129562;-0.99214846538187;6.1033145167210274e-05;0.020393596410727133;-0.1111451004384623;2.72413697339163e-05;0.012236157846436196;0.0;53.73153324;86.84931116
6.4749147705692645;0.7948173167406124;6.94448653417211;-0.0091771183848271;0.028143901935524185;0.040787192821454;6.51443864481914;0.8099405471781623;0.656003689963261;7.027439845072262;2.000099313649966;-0.9962271846640156;4.2317700311847814e-05;0.016314877128581484;-0.0876924645661262;0.0002019188550506363;0.0356887937187723;0.0;53.73165482;86.84928938
6.94448653417211;1.015398693345152;6.94448653417211;0.0020393596410727;0.027995736115793226;0.040787192821454;6.973203831271742;1.0387249792492692;1.0789495825163948;7.027439845072262;2.0983254211929907;-0.9931681452024064;5.645825864701078e-05;0.01937391659019072;-0.0856531049250535;0.0003344865894427899;0.037728153359845;0.0;53.73179081999999;86.84927178000001
5.005924761483365;0.9396860747012784;6.94448653417211;0.040787192821454;0.018793670059308355;0.040787192821454;5.027340531422296;0.9527364594198602;0.907706761107891;6.973203831271742;2.0440894073924705;-0.9850107066381156;3.399972482057377e-05;0.015295197308045183;-0.0856531049250535;0.0002779243561021384;0.0356887937187723;0.0;53.73193774;86.84924973999999
4.929030373562322;0.8635891390199438;6.94448653417211;0.0061180789232181;0.019837948871564676;0.040787192821454;4.9291144238792715;0.8728593969362931;0.7618835268199893;6.973203831271742;2.0440894073924705;-0.9850107066381156;4.31494978609737e-05;0.016314877128581595;-0.0856531049250535;0.00023113574396373135;0.0356887937187723;0.0;53.73209554;86.84921298
5.146226123013762;0.35300559748763133;5.79102283090522;0.0050983991026817;0.020779963972313985;0.040787192821454;5.150875794663044;0.35037081591999303;0.12275970864844166;5.792618234346168;0.8635038104668968;-0.9850107066381156;6.467225944464274e-05;0.020393596410727244;-0.0856531049250535;4.346142194189848e-05;0.016314877128581595;0.0;53.73226158;86.8491691
5.0045509874291225;0.48783646162792843;5.999826028107362;-0.0132558376669725;0.008112704917269271;0.0061180789232181;5.010696445439309;0.48691785168043067;0.2370889942850859;6.001264013031933;1.0721495891526613;-0.9850107066381156;6.321661373366995e-05;0.020393596410727244;-0.0856531049250535;8.058038757170158e-05;0.019373916590190707;0.0;53.73243218;86.84909906
5.79102283090522;0.8165620725614182;7.051771842731835;-0.0061180789232181;0.007388282219939066;0.0050983991026817;5.792618234346168;0.8142293813106586;0.6629694853895378;7.051784483645807;2.0410880382064978;-0.9850107066381156;7.402998187232312e-05;0.020393596410727244;-0.0876924645661262;0.00020035923464602315;0.034669113898235904;0.0;53.73258384;86.84901008
5.999826028107362;1.01810119747379;7.5473311128917775;-0.0040787192821454;0.006092533596936214;-0.0040787192821454;6.001264013031933;1.016814889864548;1.0339125202502526;7.550291856288742;2.539595410849433;-0.9890894259202612;3.6599092161598435e-05;0.016314877128581706;-0.0876924645661262;0.0003121320303099954;0.0448659121035995;0.0;53.73271744;86.84890816
7.051771842731835;0.9090166624440558;7.816649304710916;-0.0122361578464362;0.01005302950453012;-0.0040787192821454;7.051784483645807;0.908834406359677;0.8259799781831465;7.816779687534095;2.0241614531879266;-0.9890894259202612;3.7950763178930365e-05;0.016314877128581706;-0.1019679820536351;0.0002560896704375473;0.0356887937187723;0.0;53.73283208;86.84879751999999
7.5473311128917775;0.8411384390822011;7.816649304710916;-0.0193739165901906;0.019837948871564703;0.023452635872336;7.550291856288742;0.8390466332875881;0.7039992528312363;7.816779687534095;1.8155156745021621;-0.9890894259202612;3.254407910960172e-05;0.01325583766697247;-0.1050270215152442;0.00023051189580188428;0.03262975425716319;0.0;53.73292776000001;86.8486628
7.816649304710916;1.084758257623089;7.816649304710916;-0.0285510349750178;0.023236621614968214;0.023452635872336;7.816779687534095;1.0815266347141952;1.169699861596212;7.816779687534095;2.5900003690373294;-0.9890894259202612;3.192023094775611e-05;0.01325583766697247;-0.0907515040277353;0.00038189904974304106;0.0469052717446721;0.0;53.73300454;86.84850406
6.041046928109289;1.2123433279021676;7.816649304710916;0.023452635872336;0.022748231804928763;0.023452635872336;6.050268879610857;1.2088838455435171;1.4614001520160824;7.816779687534095;2.5900003690373294;-0.99214846538187;3.7222940323444466e-05;0.014275517487509104;-0.0907515040277353;0.00046892586832047826;0.0469052717446721;0.0;53.73306418;86.84832306000001
5.220060964833218;1.073430490310923;7.816649304710916;0.0183542367696543;0.027919496382024036;0.023452635872336;5.2267793184967655;1.0716295296069376;1.1483898487255861;7.816779687534095;2.5900003690373294;-0.99214846538187;3.7222940323444466e-05;0.014275517487509104;-0.0907515040277353;0.0003689022130379279;0.0469052717446721;0.0;53.73310798;86.84811085999999
5.382773196471599;0.6449395258695925;6.795996717601808;-0.003059039461609;0.025204868143791557;0.023452635872336;5.391703118224918;0.6538276250714296;0.4274905633065459;6.811838915266657;1.5850595967698915;-0.99214846538187;3.3583826046012374e-05;0.014275517487509104;-0.0907515040277353;0.00013017631643841174;0.028551034975017806;0.0;53.73313852;86.84788028
6.795996717601808;0.7724583740236691;6.870129259770144;-0.0397675130009177;0.022841738390281315;0.0183542367696543;6.811838915266657;0.7916794541776069;0.6267563581669535;6.937684727955928;1.710905409459163;-0.9901091057407974;4.0238206439029794e-05;0.016314877128581706;-0.0907515040277353;0.00017966827061148224;0.028551034975017806;0.0;53.7331552;86.84764608
6.243461198035852;0.790308741731728;7.487629957383833;-0.0091771183848271;0.02140234830188028;0.0127459977567043;6.300124558481616;0.8240471556830513;0.679053714789327;7.60389791380338;2.212194795578462;-0.9901091057407974;3.51434464506257e-05;0.016314877128581706;-0.0948302233098807;0.00018798624610275483;0.03670847353930862;0.0;53.73316086;86.84741622
6.870129259770144;0.5236667606514008;7.487629957383833;0.0127459977567043;0.02212846175634071;0.0127459977567043;6.937684727955928;0.5078278810731071;0.2578891567952018;7.60389791380338;1.3037733553217645;-0.9901091057407974;2.0275065259975665e-05;0.010706638115631772;-0.1091057407973896;8.60910463346686e-05;0.022432956051799707;0.0;53.73316520000001;86.84719016
7.487629957383833;0.642337713402228;7.487629957383833;-0.0316100744366268;0.02082120277831575;0.0127459977567043;7.60389791380338;0.5694895481084583;0.324318345404776;7.60389791380338;1.3560619199315687;-0.9901091057407974;2.3186356681920935e-05;0.010706638115631772;-0.1019679820536351;0.00013204786092394866;0.029570714795554218;0.0;53.733172;86.84697168
6.217712426772915;0.8307636292650719;7.487629957383833;-0.0356887937187723;0.027579464667212623;0.0127459977567043;6.455459010285997;0.6637475487299499;0.44056080844501716;7.60389791380338;1.7105185014317366;-0.9901091057407974;7.195048799950681e-05;0.021413276231263545;-0.0953400632201488;0.00020503809585986402;0.03619863362904051;0.0;53.73318126;86.84674542
5.8679636263347;1.0265089230095823;7.487629957383833;0.0010196798205363;0.02031185822043626;0.0010196798205363;6.247835993871812;0.8043746043526623;0.6470185041275021;7.60389791380338;2.141172416745899;-0.99214846538187;5.2819144369581004e-05;0.019373916590190943;-0.0836137452839808;0.00031967019559896105;0.04792495156520851;0.0;53.73319198;86.84650525999999
5.376827473113266;1.0012912685556024;6.217712426772915;-0.0540430304884266;0.02085986799783691;0.0010196798205363;5.893379412371644;0.7297523666206445;0.5325385165884315;6.455459010285997;1.8379899403479198;-0.99214846538187;7.091074106309897e-05;0.020393596410727133;-0.0652595085143265;0.0002960159527956544;0.0438462322830631;0.0;53.73319790000001;86.84618861999999
4.748258592642641;0.8568427041744391;5.8679636263347;-0.020393596410727;0.0282673932408057;0.0010196798205363;5.462725497057481;0.6359054422516498;0.4043757314852663;6.247835993871812;1.6303669239337344;-0.99214846538187;9.742428794152949e-05;0.020393596410727133;-0.0652595085143265;0.0002188147427672822;0.03670847353930859;0.0;53.73318945999999;86.84586274
3.684989063720588;1.3581924429459615;5.376827473113266;-0.0387478331803813;0.03144848622608536;0.0101967982053635;4.617469069938077;0.9847892256954813;0.9698098190459057;5.893379412371644;2.554435961731215;-0.9931681452024064;0.00010948535240387519;0.028551034975017986;-0.0326297542571632;0.0005687935615625676;0.0627103089629856;0.0;53.73316103999999;86.845522
4.33358612351099;3.191603693586054;4.748258592642641;-0.0713775874375446;0.04401427600128545;0.0101967982053635;5.143797130828272;0.8522350175390662;0.7263045251198125;5.462725497057481;2.1237820464170523;-0.9931681452024064;0.0002273926549926617;0.03976751300091785;0.0550627103089629;0.0032219678065443453;0.1386764555929437;0.0;53.73310692;86.8451914
1.829092605662772;3.2360960290310277;4.33358612351099;0.0101967982053635;0.05744699101051606;0.0101967982053635;3.338943450640429;0.8910359496086295;0.7939450634949521;5.143797130828272;2.168493141955275;-0.9931681452024064;0.0008300299793353456;0.07749566636076288;0.0550627103089629;0.003337379716485747;0.1305190170286529;0.0;53.73303014;86.8448535
-3.036352239551892;2.9925481279086097;4.33358612351099;-0.1029876618741715;0.0562563927482189;0.0101967982053635;4.047779663391931;0.8853851049446824;0.7839067840579061;5.143797130828272;2.168493141955275;-0.9503415927398796;0.002028754222321339;0.12032221882328964;0.0550627103089629;0.0028220811348014237;0.1305190170286529;30.0;53.732942019999996;86.84457594
-1.5689533392686017;2.244767029677107;2.199430309096725;-0.1386764555929438;0.0596813294092589;0.0101967982053635;2.975303988872997;0.6501172242373348;0.42265240525005704;4.047779663391931;1.8022855671639113;-0.9503415927398796;0.0019071038307614796;0.12032221882328964;0.0550627103089629;0.0016015222061508444;0.0917711838482715;30.0;53.7328585;86.84427738
2.199430309096725;2.295949025234819;2.199430309096725;-0.1019679820536351;0.03812157254126501;-0.0372183134495767;3.170121232706984;0.6458697097168407;0.417147681929716;4.047779663391931;1.8022855671639113;-0.9503415927398796;0.002152276158366732;0.12032221882328964;0.0550627103089629;0.0016550171860290907;0.0917711838482715;30.0;53.732783299999994;86.84394618
0.5404234638614273;1.521627814037819;2.199430309096725;-0.0372183134495767;0.04739098405805016;-0.0224329560517997;2.2454940962280197;0.5068231725818306;0.25686972826591203;3.170121232706984;1.1518573856922947;-0.9503415927398796;0.0020605704785754526;0.12032221882328964;0.0295707147955541;0.0007251715007984837;0.06627918833486271;0.0;53.73271328;86.84356384
2.0696044693638163;1.0934018206203662;3.123897817599119;-0.0713775874375446;0.04509936758983845;0.0152951973080452;2.9514327703161753;0.6698259268407571;0.4486667722680793;3.6463794283230513;1.628115581308362;-0.9503415927398796;0.0009393593696987518;0.07596614662995849;-0.0096869582950953;0.00034576784370282584;0.0443560721933313;0.0;53.73264392;86.84317192
0.6866637860587703;1.1032829034134168;3.123897817599119;-0.0224329560517997;0.038935883457694914;0.023452635872336;2.018263847014689;0.7036938271319257;0.49518500234357665;3.6463794283230513;1.628115581308362;-0.9850107066381156;0.0003332908804659204;0.04129703273172247;-0.0096869582950953;0.0003572050600033253;0.0443560721933313;0.0;53.732561999999994;86.84277768
3.123897817599119;1.1738161413003037;3.123897817599119;0.0152951973080452;0.03875722383027634;0.023452635872336;3.6463794283230513;0.8066003297099095;0.6506040918881346;3.6463794283230513;1.9564109997267567;-0.9850107066381156;0.00021595543869215602;0.035688793718772316;-0.0040787192821454;0.0004081006725405478;0.0499643112062812;0.0;53.7324535;86.84240294000001
0.9256620547683037;1.349725854934894;3.123897817599119;0.023452635872336;0.024521126673245276;0.0448659121035994;2.0525431268806584;0.8209464640660681;0.67395309686258;3.6463794283230513;1.9847486928972036;-0.9901091057407974;0.00015980910412606954;0.030590394616090588;0.0081574385642908;0.0005466989391638728;0.062200469052717394;0.0;53.73230530000001;86.8420653
0.2348095660284889;2.0532007714898732;3.123897817599119;0.0081574385642908;0.018931475615497812;0.0448659121035994;1.6899684285962946;0.8575711804512045;0.7354283295404724;3.6463794283230513;1.9847486928972036;-0.9901091057407974;0.0001677111808427789;0.031610074436627;0.0448659121035994;0.0012978121260257653;0.098908942592026;30.0;53.73211951999999;86.84179248000001
-0.4611349790407955;1.5811918286180373;0.9256620547683037;0.0448659121035994;0.030773389635874504;0.0448659121035994;1.6616307354258477;0.5793727280715133;0.3356727580330277;2.8685109379718936;1.2068802025460459;-0.9768532680738248;0.0003069332956279497;0.04486591210359958;0.0448659121035994;0.0007644219476479247;0.061180789232180996;30.0;53.73190426;86.84156698
-2.514322011188638;1.649445353769217;0.2348095660284889;-0.0061180789232181;0.03514568765089021;0.0448659121035994;2.8685109379718936;0.9467925919492226;0.8964162121699271;3.9331559528645053;2.2715252174386578;-0.9768532680738248;0.00033968532412483423;0.04486591210359958;0.0672988681553992;0.0008496811964334675;0.0713775874375446;30.0;53.7316827;86.84139150000001
-2.5085477170622106;1.5449022764134008;-0.1165323895226133;-0.0367084735393086;0.03504495800092156;0.0448659121035994;2.7695820604442445;1.2840793179733012;1.6488596948467786;3.9331559528645053;3.363842866042926;-0.9768532680738248;0.0003163949927492728;0.04486591210359958;0.0672988681553992;0.0007473700978908175;0.0652595085143265;30.0;53.73147242;86.84126825999999
-3.784338550906533;1.468853040495757;-0.1165323895226133;-0.040787192821454;0.013604225618564465;-0.0061180789232181;3.9331559528645053;1.3938217986688801;1.9427392064445523;3.9331559528645053;3.363842866042926;-0.9768532680738248;0.00031993013233305994;0.04486591210359958;0.0672988681553992;0.0006787468000878206;0.0652595085143265;30.0;53.73128944;86.84119792
-0.1165323895226133;1.4573437414237937;-0.1165323895226133;-0.0265116753339451;0.01637213364855812;-0.0224329560517997;0.5693130868215793;1.3692253079757024;1.874777944001157;3.9331559528645053;3.363842866042926;-0.9768532680738248;0.0002093010582991305;0.03976751300091752;0.0672988681553992;0.0006643982923653763;0.0652595085143265;0.0;53.73113540000001;86.84115139999999
-0.8216006573981791;1.5725326668620583;-0.1165323895226133;-0.0224329560517997;0.021393844942115017;-0.0224329560517997;1.0410130439334853;1.4910550667845814;2.2232452121839725;3.9331559528645053;3.363842866042926;-0.9931681452024064;0.0005736283848168741;0.05812174977057194;0.0672988681553992;0.0008125622308036654;0.0652595085143265;0.0;53.73099286;86.84112662
-1.2325637180420688;1.1560871050167933;-0.1165323895226133;-0.0642398286937901;0.022063760233167723;-0.0224329560517997;1.5447112657717346;1.12632522525962;1.2686085130561338;3.426560310598152;2.8572472237765725;-0.9931681452024064;0.0012900140240027238;0.07749566636076288;0.058121749770572;0.0004644549564939165;0.0560823901294993;0.0;53.73083756;86.84110955999999
-3.157593876144791;0.9622867357244587;-0.8216006573981791;-0.0693382277964719;0.02068467704201157;-0.0224329560517997;3.426560310598152;0.9055219972987256;0.8199700875918732;3.426560310598152;2.3855472666646667;-0.9931681452024064;0.00132276605249961;0.07749566636076288;0.058121749770572;0.00033199119679540426;0.0438462322830631;30.0;53.73064952;86.84109048
-1.9082670966736368;0.8564781936451339;-0.9347623421278382;-0.0326297542571632;0.0254205177165655;-0.0071377587437544;2.3241088100944256;0.7274700053638704;0.5292126087041096;3.426560310598152;1.8818490448264173;-0.9931681452024064;0.0011981003948241687;0.07749566636076288;0.058121749770572;0.00026284802552420264;0.0418068726419904;30.0;53.73042348;86.841059
-0.9347623421278382;1.0106156577191963;-0.5661056083246089;-0.0356887937187723;0.02457195649460438;-0.0071377587437544;1.8574217393868577;0.6358815658081118;0.40434536573457613;3.426560310598152;1.5691385712112942;-0.9992862241256244;0.0008978214795892482;0.07137758743754485;0.058121749770572;0.00035320203429814847;0.0479249515652085;30.0;53.73016818;86.84102386
-1.9149028913840809;1.274876549748999;-0.5661056083246089;-0.0071377587437544;0.018306021894574205;0.0081574385642908;2.6070880266877774;0.9336368520069668;0.8716777714254789;4.151974719807876;2.2945529804210176;-0.9992862241256244;0.0008117304332545689;0.07137758743754485;0.0683185479759355;0.0005133230625051412;0.05812174977057201;30.0;53.72985568;86.84097248
-0.5661056083246089;1.6045083566962535;0.3633859972741526;-0.0122361578464362;0.015937696714542045;0.0081574385642908;1.9261696694799542;1.0908030117727499;1.189851210492502;4.151974719807876;2.815516147221321;-0.9646171102273886;0.0006170898067587601;0.0672988681553992;0.0683185479759355;0.0008032045083759832;0.0744366268991536;30.0;53.729548799999996;86.84091648
-3.852168263185129;1.5850061827009494;0.3633859972741526;0.0081574385642908;0.007878635167566369;0.0081574385642908;4.151974719807876;1.0913237535255802;1.1909875350091614;4.151974719807876;2.815516147221321;-0.9646171102273886;0.0007524648578792108;0.0672988681553992;0.0683185479759355;0.0007826175190350839;0.0744366268991536;30.0;53.72925424;86.84085744000001
0.3633859972741526;1.581730936233373;0.3633859972741526;-0.0061180789232181;0.009875639859531242;0.0081574385642908;1.3364585725865545;1.085902279541031;1.1791837607124074;4.151974719807876;2.815516147221321;-0.9646171102273886;0.000741911426474658;0.0672988681553992;0.0683185479759355;0.000779082379451293;0.0744366268991536;30.0;53.728977799999996;86.84080628000001
-1.493229521894753;1.5544584680573745;0.3633859972741526;-0.0091771183848271;0.012796880185592824;0.0081574385642908;1.8530525082170555;1.090073884994486;1.1882610747469717;4.151974719807876;2.815516147221321;-0.9646171102273886;0.0004920082503087381;0.04996431120628131;0.0683185479759355;0.0007566238456248572;0.0744366268991536;30.0;53.728721740000005;86.84075501999999
-1.863255402395957;1.253589095856427;0.3633859972741526;-0.0183542367696543;0.03171679619658563;-0.0061180789232181;2.1582249543521836;0.6655335582798629;0.4429349171966558;2.874170604644061;1.5377120320575064;-0.9646171102273886;0.0006010257165912277;0.05914142959110835;0.0489446313857448;0.0004938797947942913;0.0550627103089629;30.0;53.72852594;86.84070258
-2.6514500536986656;0.6456887170174095;-1.493229521894753;-0.0254919955134087;0.030088330919666405;-0.0091771183848271;2.8716875200717684;0.5388389182660168;0.2903473798380911;3.112549081559492;1.2594965733424366;-0.9778729478943612;0.00034082904575487814;0.04588559192413577;0.0540430304884266;0.00014421290007992992;0.028551034975017896;30.0;53.7283413;86.84064594
-2.728086330201935;0.4317376352428364;-1.863255402395957;-0.0836137452839808;0.030466080977578205;-0.0071377587437544;2.874170604644061;0.35901626252792473;0.1288926767595198;3.112549081559492;0.9543241272073084;-0.9564596716630978;0.0007502294019659361;0.0672988681553992;0.0540430304884266;6.373648720186926e-05;0.0214132762312634;30.0;53.72817292;86.84058508000001
-3.030376433240721;1.6084649985749209;0.81983934424744;-0.0173345569491179;0.040008629176737864;0.0265116753339451;3.112549081559492;0.8258738502862611;0.6820676165866537;3.112549081559492;2.0419268596557583;-0.9564596716630978;0.0007576635925612591;0.0672988681553992;0.0540430304884266;0.0008002932169540363;0.06831854797593549;30.0;53.72802332;86.84050716
-2.624655002335556;1.866553334398987;0.81983934424744;-0.0071377587437544;0.04107550795438754;0.0265116753339451;2.6854727848272204;1.0639968553922023;1.132089308284495;3.112549081559492;2.2389562792927653;-0.9564596716630978;0.0008461460568496629;0.0672988681553992;0.0540430304884266;0.0010706274204203886;0.06831854797593549;30.0;53.72787287999999;86.84041304
0.81983934424744;1.950486215894872;0.81983934424744;0.0265116753339451;0.02457407212218535;0.0265116753339451;1.070622221903734;1.1450049357579395;1.311036302910043;3.2681230295756234;2.3945302273088966;-0.9564596716630978;0.0007209475288693066;0.06423982869379019;0.0560823901294992;0.0011652443916336107;0.0703579076170081;0.0;53.72772112;86.8403176
0.3592619868006034;1.7607356318857126;0.81983934424744;-0.0418068726419904;0.024595218389003498;0.0265116753339451;0.8735928022667266;1.05948350937324;1.1225053066338364;3.2681230295756234;2.3945302273088966;-0.9564596716630978;0.0006669846628696733;0.06016110941164454;0.0560823901294992;0.0009319251791034212;0.0703579076170081;0.0;53.72756728;86.84022008000001
-3.1661978771568964;1.7860582138825525;1.202563370492706;-0.0066279188334863;0.028724400453053682;0.0285510349750178;3.2681230295756234;0.9546986305742938;0.911449475220432;3.2681230295756234;2.3945302273088966;-0.974813908432752;0.0003494979358371832;0.04486591210359958;0.0560823901294992;0.0009984689830335987;0.0774956663607625;30.0;53.72742100000001;86.84013012
-1.0917584013850985;3.3158166941102345;5.748960014737675;0.003059039461609;0.03667411407607992;0.0285510349750178;1.3806443479746071;2.0351669095233444;4.141904349618801;5.833949582563634;4.960356780296908;-0.9702253492403384;0.0005926557537531401;0.0494544712960131;0.0560823901294992;0.0032748909256075623;0.1539716529009889;30.0;53.72725814;86.84003894
1.202563370492706;3.9434701440716324;5.748960014737675;0.0285510349750178;0.04567408739687845;0.0285510349750178;1.5048542653182118;2.1360161249718836;4.562564886139901;5.833949582563634;4.453305234589028;-0.9702253492403384;0.0004139492490578384;0.0494544712960131;0.0560823901294992;0.0047114052929502995;0.1539716529009889;30.0;53.72711346;86.83995058000001
5.748960014737675;3.145811092598771;5.748960014737675;-0.0637299887835219;0.045453021490818035;0.0285510349750178;5.833949582563634;2.341362132421187;5.481976635135889;5.833949582563634;4.453305234589028;-0.9702253492403384;0.0003951818168556545;0.0494544712960131;0.0193739165901906;0.0030045567221412186;0.11828285918221669;0.0;53.726995599999995;86.83985831999999
5.45672321679892;1.9888833011143643;5.760430147868417;-0.078515346181299;0.04946708428330763;0.0285510349750178;5.568216510207777;1.9119505209481762;3.6555547945540026;5.937556671695183;4.432702406376971;-0.9702253492403384;0.0003614940161160014;0.0494544712960131;-0.0214132762312633;0.0011981003948241488;0.0805547058223718;0.0;53.726904880000006;86.83975224
5.598546953739639;0.12468746576693082;5.760430147868417;-0.0091771183848271;0.04650231906414481;0.0244723156928724;5.737406657009552;0.14150532407962016;0.020023756742878325;5.937556671695183;0.3693401614874059;-0.9702253492403384;0.0002943263640239701;0.04027735291118606;-0.095849903130417;5.510658762972514e-06;0.006118078923218098;0.0;53.72682629999999;86.83963782000001
5.760430147868417;2.0160201372332245;5.760430147868417;0.0244723156928724;0.045945600496579406;0.0244723156928724;5.937556671695183;1.5940424572117882;2.5409713553937956;5.937556671695183;3.7133193525026504;-0.9850107066381156;0.00010246706058309614;0.02549199551340886;-0.0193739165901906;0.0012544546787775196;0.0825940654634445;0.0;53.72677728;86.8395376
5.615944889947894;2.199787719298178;6.699885201323298;0.0152951973080452;0.04152363597575617;0.0244723156928724;5.856984956008654;1.8344793663605432;3.3653145456025797;7.064504228691266;4.840266909498734;-0.9850107066381156;0.0001076657952651406;0.02549199551340886;-0.0193739165901906;0.0014880858153886328;0.09788926277148981;0.0;53.72674296;86.83946232000001
1.1063731330411188;2.241023108824284;6.699885201323298;-0.061180789232181;0.04437072034676156;0.0244723156928724;2.2242373191925324;1.9142745141409572;3.664446915489598;7.064504228691266;4.840266909498734;-0.9850107066381156;9.804813610335487e-05;0.02549199551340886;-0.0193739165901906;0.0015323790348796584;0.09788926277148981;0.0;53.72671718;86.83941094
6.699885201323298;2.31269509974821;6.699885201323298;-0.0632201488732537;0.03317173771151714;0.0152951973080452;7.064504228691266;2.041292473384323;4.166874961895489;7.095214437404394;4.8709771182118615;-0.9850107066381156;6.311263904000955e-05;0.01937391659019061;-0.0193739165901906;0.0016353139815841545;0.09788926277148981;0.0;53.72670314;86.8393969
6.044747188055722;2.3010197910110435;6.699885201323298;-0.058121749770572;0.012480147878694224;-0.0346691138982359;6.579776185456021;2.044016756233317;4.1780044997625705;7.095214437404394;4.8709771182118615;-0.9901091057407974;5.562646109786818e-05;0.01937391659019072;-0.0193739165901906;0.0016228370183472456;0.09788926277148981;0.0;53.72670404;86.8393978
6.425761854078354;2.3010197910110435;6.699885201323298;-0.0346691138982359;0.012480147878694224;-0.0346691138982359;7.095214437404394;2.044016756233317;4.1780044997625705;7.095214437404394;4.8709771182118615;-0.9901091057407974;5.562646109786818e-05;0.01937391659019072;-0.0193739165901906;0.0016228370183472456;0.09788926277148981;0.0;53.72670404;86.8393978
4.897127425250026;2.3010197910110435;6.699885201323298;-0.0652595085143265;0.012480147878694224;-0.0346691138982359;6.003831760676933;2.044016756233317;4.1780044997625705;7.095214437404394;4.8709771182118615;-0.9901091057407974;5.562646109786818e-05;0.01937391659019072;-0.0193739165901906;0.0016228370183472456;0.09788926277148981;0.0;53.72670404;86.8393978
3.057067606805398;1.1218132422653344;4.936771450514109;-0.113184460079535;0.0683588666984991;0.0254919955134087;4.326594236340902;0.82327195337929;0.677776709220952;6.1435269731063356;2.0909088465450525;-0.9584990313041704;0.0012653200342629895;0.07545630671969006;-0.0392576730906495;0.0003325110702636131;0.0443560721933313;0.0;53.72836562;86.85209298
2.2433786559265103;1.1218132422653344;4.936771450514109;-0.1223615784643621;0.0683588666984991;0.0254919955134087;4.052618126561283;0.82327195337929;0.677776709220952;6.1435269731063356;2.0909088465450525;-0.9584990313041704;0.0012653200342629895;0.07545630671969006;-0.0392576730906495;0.0003325110702636131;0.0443560721933313;30.0;53.72836562;86.85209298
4.936771450514109;1.1218132422653344;4.936771450514109;0.0254919955134087;0.0683588666984991;0.0254919955134087;6.1435269731063356;0.82327195337929;0.677776709220952;6.1435269731063356;2.0909088465450525;-0.9584990313041704;0.0012653200342629895;0.07545630671969006;-0.0392576730906495;0.0003325110702636131;0.0443560721933313;30.0;53.72836562;86.85209298
2.197007280500604;2.1667038599824013;4.936771450514109;0.0101967982053635;0.05916955200334486;0.0254919955134087;4.484195785461675;0.8068274661752742;0.6509705601748133;6.1435269731063356;2.0909088465450525;-0.9401447945345162;0.0017183897618032254;0.09381054348934426;0.0183542367696543;0.0013319158255399866;0.10196798205363511;30.0;53.7284525;86.85185729999999
2.7387858648937398;2.198367470995485;4.936771450514109;-0.0367084735393086;0.04976309152821416;0.0254919955134087;4.954636581972707;0.7011329585459127;0.4915874255593446;6.1435269731063356;1.6874061023342204;-0.9401447945345162;0.0029728444405807504;0.13255837666972592;0.0183542367696543;0.0013592091826207242;0.10196798205363511;30.0;53.7285361;86.85159274
-1.1160705098008818;1.6873686262267122;3.1221022386530453;-0.061180789232181;0.04187148533516493;0.0101967982053635;4.456120870772115;0.44789534949002646;0.20061024409479294;5.53766256439092;1.0815416936188047;-0.930967676149689;0.0036971321564832917;0.14173549505455307;0.0183542367696543;0.0007819416835264212;0.06933822779647181;30.0;53.72860888;86.85129176
1.3560489612677546;1.7416183382793349;3.1221022386530453;-0.0948302233098807;0.04881381007633611;-0.0367084735393086;4.664747592632761;0.45812706648350976;0.20988040904478616;5.53766256439092;1.0815416936188047;-0.930967676149689;0.003300988573711446;0.14173549505455307;0.0183542367696543;0.0008258709915897036;0.06933822779647181;30.0;53.72865184;86.85100192
3.1221022386530453;1.7770262605580793;3.1221022386530453;-0.0836137452839808;0.04039399543628628;-0.061180789232181;5.53766256439092;0.5154320299467502;0.26567017749502764;5.539115754342918;1.0829948835708025;-0.930967676149689;0.00392421288739503;0.14173549505455307;0.0183542367696543;0.0009040599612076637;0.0723972672580809;30.0;53.72871332;86.85069476
2.7005508225591743;0.7079522642097451;3.1221022386530453;-0.1662078107474253;0.03234973402511533;-0.0836137452839808;5.374452575692827;0.3631317866181457;0.13186469445248652;5.539115754342918;0.8743681617101569;-0.930967676149689;0.0036378665811079803;0.14173549505455307;-0.0254919955134087;0.00012497758175636763;0.028551034975017896;0.0;53.728813259999995;86.85041582
2.971330074894783;0.34586010868818473;3.1221022386530453;-0.1223615784643621;0.049222132331100406;-0.0326297542571632;5.539115754342918;0.15357584722489329;0.02358554085084376;5.539115754342918;0.35008665297424457;-0.930967676149689;0.0023867390925269645;0.11318446007953509;-0.0418068726419904;2.890496483217133e-05;0.012236157846436196;0.0;53.72895478;86.85017846
2.2815656605283943;0.3305311663167567;3.0659156798769502;-0.1040073416947078;0.05258029197248389;-0.0326297542571632;5.189029101368673;0.189364230567381;0.03585881181837623;5.539115754342918;0.4109343142587587;-0.9584990313041704;0.001643320032994501;0.10502702151524446;-0.0418068726419904;2.994471176858041e-05;0.012236157846436196;0.0;53.729142679999995;86.84998748000001
3.0659156798769502;1.2195618887638942;5.321332432540034;-0.0326297542571632;0.036569420416644745;-0.0326297542571632;5.528817970067463;0.7206025867601236;0.5192680880453814;6.90122649406329;1.7730450539791311;-0.9472825532782706;0.002023035614171078;0.11624349954114421;-0.0418068726419904;0.0003443641853386752;0.0469052717446721;0.0;53.72936988;86.84982044
2.466675109376315;1.2604976060020456;5.321332432540034;-0.0591414295911083;0.03285521677572483;-0.0326297542571632;5.128181440084159;0.750668899481244;0.5635037966483821;6.90122649406329;1.7730450539791311;-0.9472825532782706;0.002712387833010272;0.11624349954114421;-0.0418068726419904;0.00039177664563892745;0.0469052717446721;0.0;53.72962402;86.84970082
5.321332432540034;1.2086318667376712;5.321332432540034;-0.0989089425920261;0.026271353531714427;-0.0326297542571632;6.90122649406329;0.7172005376955449;0.5143766112707787;6.90122649406329;1.7730450539791311;-0.9472825532782706;0.002228905507580061;0.11624349954114421;-0.0418068726419904;0.00036931811181249247;0.0469052717446721;30.0;53.72989226;86.84959017999999
2.5058634392113173;1.187653181619132;5.321332432540034;-0.040787192821454;0.023534510681658512;-0.040787192821454;5.193870304996143;0.7936789951762132;0.6299263473839234;6.90122649406329;1.970065556451197;-0.9472825532782706;0.0021964654031640988;0.11624349954114421;-0.0418068726419904;0.0003613120604021429;0.0469052717446721;0.0;53.73017878;86.84948758
4.032661775482233;1.063317401726449;5.321332432540034;-0.0713775874375446;0.02553885771152253;-0.040787192821454;5.630058250577117;0.7656763208270236;0.5862602282752072;6.90122649406329;1.970065556451197;-0.9472825532782706;0.0005129071637305588;0.05710206995003564;-0.0418068726419904;0.00031327575194004507;0.0469052717446721;30.0;53.730471120000004;86.8494164
3.702505030185227;1.1759129432196531;5.677747702742498;-0.0907515040277353;0.02043688685576922;-0.040787192821454;4.931160937612093;0.43193691008008656;0.1865694942895328;6.063919564652786;1.132758627040693;-0.954420312022025;0.000456760829164475;0.0499643112062812;-0.0418068726419904;0.00044937862591598924;0.058121749770571995;30.0;53.730756080000006;86.8493788
4.683152721795872;0.9549641871244825;5.835073542188339;-0.0479249515652085;0.023020838679068355;-0.0326297542571632;5.401675498810589;0.48384598920434696;0.23410694126913303;6.085971965432191;1.1548110278200978;-0.9697155093300704;0.00022531316111982317;0.03466911389823579;-0.0652595085143265;0.00028988144587084136;0.03670847353930859;0.0;53.731018819999996;86.84935994
5.677747702742498;1.5917215120055404;7.973851099050398;-0.0744366268991536;0.0293943821870084;-0.0193739165901906;6.063919564652786;1.2041844582521368;1.4500602094959922;8.086418039010372;3.155257101398279;-0.9697155093300704;0.00021813890725860152;0.03466911389823579;-0.0652595085143265;0.0008139139018210012;0.07545630671968999;0.0;53.73125598;86.84935646
5.835073542188339;1.2156460977014234;7.973851099050398;-0.0326297542571632;0.0382114723976873;0.0285510349750178;6.085971965432191;1.011094289828;1.0223116629227877;8.086418039010372;2.6847425401997826;-0.9697155093300704;0.00019474460118939777;0.03466911389823579;-0.0795350260018354;0.0005011580233491611;0.06118078923218109;0.0;53.731452739999995;86.84935354
7.973851099050398;1.0418635165045713;7.973851099050398;-0.0193739165901906;0.03936941399239972;0.0285510349750178;8.086418039010372;0.9932643857700157;0.9865741400390866;8.086418039010372;2.614882112241088;-0.9952075048434792;1.5076330577916232e-05;0.009177118384827043;-0.0938105434893443;0.0003454039322750863;0.0469052717446722;0.0;53.73161802;86.84934474
6.48569672426341;1.1451642501260062;7.973851099050398;0.0285510349750178;0.024899821247966997;0.0285510349750178;6.62567353955827;1.1390701687848537;1.2974808494155552;8.086418039010372;2.8636467305978153;-0.9901091057407974;3.254407910958765e-05;0.014275517487508882;-0.0887121443866625;0.00042660816800863324;0.052003670847353994;0.0;53.731771980000005;86.84932462
5.346662191414162;1.2822947196109922;7.973851099050398;0.0071377587437544;0.02457407212218536;0.0285510349750178;5.471535926769284;1.2974770549783337;1.68344670819525;8.086418039010372;3.1491688540427507;-0.9901091057407974;3.618319338701974e-05;0.014275517487508882;-0.0856531049250535;0.0005264238739039015;0.055062710308962995;0.0;53.73192274;86.84928593999999
5.1194795599883225;0.7212901556751672;6.48569672426341;0.0132558376669725;0.027928805053099942;0.0285510349750178;5.222771308412557;0.7609107271997493;0.5789851347676513;6.62567353955827;1.9771901346280014;-0.9901091057407974;5.5418511710587616e-05;0.01937391659019072;-0.0815743856429081;0.00015253087557120788;0.0316100744366269;0.0;53.732078179999995;86.84923146
4.881798241199611;0.2714525113210231;5.346662191414162;-0.0316100744366268;0.028221377593755464;0.0295707147955541;4.937249184967621;0.3088399897995218;0.09538213929936873;5.471535926769284;0.8230525218390152;-0.9901091057407974;4.866015662392928e-05;0.01937391659019072;-0.0815743856429081;1.996314117905414e-05;0.012236157846436196;0.0;53.732246339999996;86.84917434
4.617370086357632;1.0590012544992455;7.2374298736137375;-0.0336494340776996;0.02964446171973643;0.0295707147955541;4.648483404930269;1.0407954003807225;1.0832550654536683;7.2392149064028875;2.590731501472619;-0.9901091057407974;5.375491661233306e-05;0.01937391659019072;-0.0815743856429081;0.0003360462098474033;0.0448659121035994;0.0;53.73244344;86.84906423999999
5.007886673433849;1.31357918314907;7.2374298736137375;0.0295707147955541;0.026780915532052932;0.0295707147955541;5.024466493203322;1.295206360500211;1.6775595162802026;7.2392149064028875;2.590731501472619;-0.99214846538187;4.502104234649766e-05;0.01733455694911812;-0.0815743856429081;0.0005082283025167411;0.0448659121035994;0.0;53.7326231;86.84893158
7.2374298736137375;1.2125778811396624;7.2374298736137375;-0.0295707147955541;0.025668806625988812;0.0295707147955541;7.2392149064028875;1.2008551706216717;1.4420531408088044;7.2392149064028875;2.590731501472619;-0.9850107066381156;8.390757776819498e-05;0.02447231569287245;-0.0815743856429081;0.00043336652309529;0.0448659121035994;0.0;53.73278144;86.84878272
7.202556897315669;0.9370213860436571;7.2374298736137375;-0.0244723156928724;0.025128436371593198;0.0295707147955541;7.202733306326127;0.9314582143186139;0.8676144050216208;7.2392149064028875;2.2147484131995654;-0.9850107066381156;4.086205460085974e-05;0.015295197308045405;-0.0876924645661262;0.0002674229120444065;0.0387478331803813;0.0;53.73291330000001;86.8486125
5.90957208555292;0.5978814903628722;7.2374298736137375;-0.0142755174875089;0.010901517088531825;-0.0050983991026817;5.9113084024604765;0.5939870617189076;0.35282062948946136;7.2392149064028875;1.327906503942411;-0.9850107066381156;4.086205460085815e-05;0.015295197308045183;-0.1019679820536351;0.00011676358095873576;0.024472315692872407;0.0;53.7330223;86.8484143
6.279579911369661;0.5687668491457155;7.202556897315669;-0.0305903946160905;0.011965498449438845;-0.003059039461609;6.280839816833371;0.563629674993258;0.31767841053300566;7.202733306326127;1.452281297373177;-0.9850107066381156;4.2837573780035566e-05;0.015295197308045183;-0.0999286224125624;0.00010054352875075515;0.025491995513408805;0.0;53.73308388;86.848225
6.314094050184065;0.24946844696073878;6.314094050184065;-0.0050983991026817;0.01542044501163133;0.0112164780258998;6.348402501481937;0.24962020906749344;0.06231024877489913;6.348402501481937;0.5979504925289865;-0.9850107066381156;5.6978132115198504e-05;0.015295197308045183;-0.0999286224125624;1.9443267710849728e-05;0.010196798205363511;0.0;53.73313152000001;86.84801664
5.727984972938504;0.2478183351031471;6.314094050184065;-0.003059039461609;0.0172081355029908;0.0112164780258998;5.7504520089529505;0.2523926937677744;0.06370207186735355;6.348402501481937;0.5979504925289865;-0.986030386458652;3.5351395837890556e-05;0.014275517487508771;-0.0999286224125624;1.7987621999876988e-05;0.010196798205363511;0.0;53.733168979999995;86.84778786000001
5.99343007630265;0.43502082811400866;6.894783001656062;0.0112164780258998;0.01378643318540259;0.0112164780258998;6.06828733036151;0.473835154548635;0.2245197536861288;7.03442022331506;1.2839682143621092;-0.986030386458652;4.346142194188155e-05;0.017334556949118007;-0.0999286224125624;6.259276557182505e-05;0.021413276231263406;0.0;53.7331955;86.84755326
6.235379412444464;0.43592310827656616;6.894783001656062;-0.0254919955134087;0.013839125177790046;0.0112164780258998;6.329330161345142;0.4761907498233402;0.226757630217315;7.03442022331506;1.2839682143621092;-0.9962271846640156;9.14977304038275e-06;0.007137758743754441;-0.0999286224125624;6.321661373367046e-05;0.021413276231263406;0.0;53.73321082;86.84731769999999
6.894783001656062;0.5837288460872643;6.894783001656062;-0.0152951973080452;0.014645811448369187;0.0112164780258998;7.03442022331506;0.4589121360859977;0.21060034864701324;7.03442022331506;1.224686422647892;-0.9982665443050882;1.2009077115509182e-05;0.009177118384827487;-0.092790863668808;0.00010397469364090478;0.028551034975017806;0.0;53.73322326;86.84708438
6.0938542327088525;0.670977820993161;6.894783001656062;-0.0040787192821454;0.01861299758801604;0.0035688793718772;6.413838836355518;0.4904395199353887;0.24053092271445453;7.03442022331506;1.224686422647892;-0.986030386458652;6.805143698795517e-05;0.021413276231263656;-0.092790863668808;0.00014639636864639382;0.028551034975017806;0.0;53.733235279999995;86.84685576
5.262362565392472;1.0189878433433612;6.894783001656062;0.0035688793718772;0.02328132466055213;0.0035688793718772;5.809733800667168;0.8250125728291159;0.6806457453261172;7.03442022331506;2.231640674758543;-0.986030386458652;8.20880206294777e-05;0.022432956051799624;-0.0734169470786173;0.00032107385396311377;0.0479249515652085;0.0;53.73324404;86.84661876
5.370738259006162;0.7300817673915158;6.0938542327088525;-0.0438462322830631;0.02976434741712515;0.0035688793718772;5.889293907017728;0.5912892655951323;0.34962299560803095;6.413838836355518;1.6110592877990015;-0.9778729478943612;0.0001899617652819147;0.030590394616090477;-0.0734169470786173;0.00016719130737457587;0.0336494340776996;0.0;53.73324454;86.84636326
4.159156020682056;0.5199964223854822;5.370738259006162;-0.0479249515652085;0.028203871962901434;0.0035688793718772;4.802779548556517;0.44443133416355146;0.19751921078639434;5.889293907017728;1.0865143584612111;-0.9778729478943612;0.0002997590417667103;0.041806872641990345;-0.0734169470786173;7.454985534052988e-05;0.019373916590190693;0.0;53.73323773999999;86.84607998
4.69884346406454;0.9158153925403659;5.370738259006162;-0.0652595085143265;0.023771883811307692;-0.0438462322830631;5.507012407291973;0.704108641062027;0.4957689784182144;5.889293907017728;1.8321019003405983;-0.9778729478943612;0.0004538495377425277;0.04945447129601288;-0.0520036708473539;0.0002242734141834325;0.0407871928214541;0.0;53.73321344;86.84576896
4.450970898918726;0.8469762043318915;5.117053809162836;-0.0652595085143265;0.04136935408402317;0.0096869582950953;5.236578334293179;0.7048393121714636;0.4967984559823418;5.891894376486275;1.8347023698091451;-0.9564596716630978;0.0008925707575603278;0.07086774752727631;-0.0520036708473539;0.0001733258142993889;0.0336494340776996;0.0;53.733169499999995;86.84544342000001
2.8831458426627754;1.664760904063866;5.117053809162836;-0.1040073416947078;0.06557738427985527;0.0096869582950953;4.05719200667713;1.2363324434398524;1.5285179107019555;5.891894376486275;3.0199825401836176;-0.9034363209952077;0.0025471720448148653;0.12389109819516642;-0.0173345569491179;0.0008252471434278619;0.0683185479759356;0.0;53.733105339999994;86.84512837999999
5.117053809162836;1.7931999054746712;5.117053809162836;0.0096869582950953;0.06840182180683406;0.0096869582950953;5.891894376486275;1.4116867768656538;1.992859555977338;5.891894376486275;3.1960159113459765;-0.9034363209952077;0.002586942365132512;0.12389109819516642;-0.0173345569491179;0.00097663429736902;0.0683185479759356;90.0;53.73302364;86.84478555999999
1.0802033990389477;1.765812074283725;5.117053809162836;-0.1702865300295707;0.06834365488053994;0.0096869582950953;2.8719118363026572;1.488705907790464;2.21624527989023;5.891894376486275;3.7329520776226577;-0.9034363209952077;0.004273931769456191;0.1672274905679616;-0.0173345569491179;0.0008814974526875919;0.0683185479759356;90.0;53.732935239999996;86.84442068
1.3947436144679508;2.169017119091875;5.117053809162836;-0.0356887937187723;0.06767863162744031;0.0096869582950953;2.6958784651402983;1.5750048777947199;2.4806403650771607;5.891894376486275;3.8092730685427356;-0.9034363209952077;0.004554923379020745;0.1672274905679616;0.0142755174875089;0.0013343072434937294;0.0999286224125624;90.0;53.73284182;86.84399446
0.9248176685074876;0.8484085223409343;1.3947436144679508;-0.0825940654634444;0.09469032530371517;0.0917711838482716;2.158942298863617;0.44150053803110767;0.19492272508175756;2.8719118363026572;1.0535738208201513;-0.9034363209952077;0.004417364859333822;0.1672274905679616;0.0142755174875089;0.00021855480603318126;0.037728153359844904;90.0;53.73271927999999;86.84347768
-0.7864672155911284;1.0815274674172342;1.3947436144679508;-0.0428265524625267;0.07225566615699237;0.0917711838482716;2.082621307943539;0.3989948545236111;0.1591968939363176;2.6958784651402983;1.0434169135837847;-0.962577750586316;0.0016923960883929918;0.10808606097685325;0.0183542367696543;0.0003604802628530152;0.0418068726419903;90.0;53.73256424;86.84292328000001
0.6270693540179292;1.27383331930111;2.0293966629299263;0.0917711838482716;0.0828686707441408;0.0917711838482716;1.818338015482506;0.2555940695982311;0.0653283284137854;2.2747247230893595;0.6222631715328459;-0.9737942286122158;0.0014076094025105546;0.09686958295095349;0.0183542367696543;0.0004954394151989095;0.0530233506678902;90.0;53.73236455999999;86.84240104
-1.0541043022778045;1.3801078314683928;2.0293966629299263;0.0509839910268175;0.07493224543543402;0.0917711838482716;1.6524615515565135;0.31100230239287696;0.09672243209367049;2.2747247230893595;0.7623640600243553;-0.9360660752523708;0.0016272039554801566;0.10298766187417163;0.0193739165901906;0.0005590719277071425;0.0540430304884265;90.0;53.73210252;86.8419342
2.0293966629299263;1.8145051365729066;2.0293966629299263;-0.0948302233098807;0.07925674177201107;0.0917711838482716;2.2747247230893595;0.541741799046586;0.2934841768342316;2.8419502811763637;1.3295896181113596;-0.9126134393800348;0.0019237397817440235;0.10808606097685314;0.0428265524625267;0.0009084268983405809;0.0774956663607626;0.0;53.731791380000004;86.84157186
-1.1852159378838831;1.7889268526667643;2.0293966629299263;-0.0265116753339451;0.07382862158226396;0.0805547058223717;1.5123606630650042;0.5315302047193219;0.2825243585289642;2.8419502811763637;1.3295896181113596;-0.9126134393800348;0.0018970182854783162;0.10706638115631695;0.0428265524625267;0.0009038520118203812;0.0774956663607626;120.0;53.731456460000004;86.84134958
-2.676378656686788;2.386416546162805;2.0293966629299263;0.0805547058223717;0.06835278237755973;0.0805547058223717;2.8419502811763637;1.1943031397599755;1.4263599896405357;4.65116161164847;3.138800948583466;-0.9126134393800348;0.0023179078453366914;0.10706638115631695;0.0795350260018354;0.0017273315854563463;0.1142041399000713;120.0;53.731075280000006;86.84120392
-1.8869060127797657;1.80429223310952;0.4136490664245087;-0.0591414295911083;0.05255062190975877;0.0805547058223717;2.1637723751900007;1.2498588981948267;1.5621472653967863;4.65116161164847;3.138800948583466;-0.9126134393800348;0.0023736902684750342;0.10706638115631695;0.0795350260018354;0.0010142731364670237;0.0866727847455898;120.0;53.730663500000006;86.8410891
-4.46376534209353;2.0667258980483907;0.4136490664245087;0.0183542367696543;0.05739719651700816;0.0805547058223717;4.65116161164847;1.257273828476719;1.5807374797725062;4.65116161164847;3.1726359738450025;-0.9126134393800348;0.001921660287871198;0.10706638115631695;0.0795350260018354;0.0013087294688580637;0.0866727847455898;120.0;53.73025163999999;86.84099468
0.4136490664245087;2.092078154721512;0.4136490664245087;0.0122361578464362;0.04880954983805979;0.0183542367696543;1.8192582158255595;1.2651194822294074;1.6005273043164037;4.65116161164847;3.1726359738450025;-0.9737942286122158;0.0044712237506397984;0.16926685020903431;0.0795350260018354;0.0013847349699095649;0.0866727847455898;120.0;53.72982944;86.84091040000001
0.2995483339308253;2.186644021072709;0.4136490664245087;-0.0520036708473539;0.04963338006255417;0.0183542367696543;1.478525637803467;1.330174053023018;1.7693630113356824;4.65116161164847;3.1726359738450025;-0.8371571326603446;0.011962340490732894;0.30590394616090544;0.0795350260018354;0.0014247652269613134;0.0866727847455898;120.0;53.72940226000001;86.84081602
0.0509363100189857;1.2708835206189504;0.4136490664245087;-0.0948302233098807;0.042781614417420503;0.0122361578464362;2.0838808545959555;0.800957577678332;0.6415330412403413;3.4894371627152005;2.0109115249117337;-0.8371571326603446;0.01245907958960233;0.30590394616090544;0.0387478331803813;0.0003637034783558831;0.0458855919241357;120.0;53.72901454;86.84071501999999
-2.6420408966308013;1.1594678727144903;0.2995483339308253;-0.0652595085143265;0.03006240238448588;-0.0112164780258998;3.4894371627152005;0.7877608584583619;0.6205671701190553;3.4894371627152005;2.0109115249117337;-0.8371571326603446;0.012787847570894871;0.30590394616090544;0.0387478331803813;0.00030391802951236334;0.043846232283063;120.0;53.72867154000001;86.84061778
-0.8201978044698162;0.9738965105886441;0.0509363100189857;-0.0112164780258998;0.04097793677456942;-0.0112164780258998;2.749017667596028;0.5200430045811798;0.270444726613821;3.4894371627152005;1.405556308119245;-0.8371571326603446;0.013522116857386936;0.30590394616090544;0.0387478331803813;0.00020347847545525014;0.039767513000917604;120.0;53.72834329999999;86.84050458
-1.0348141396179784;0.7427917070077547;-0.8201978044698162;-0.0560823901294993;0.038731729626379593;-0.0112164780258998;2.9917663672162904;0.42735540577202336;0.18263264284257075;3.4894371627152005;1.0959000662539329;-0.8371571326603446;0.006795474052288639;0.20393596410727044;0.0387478331803813;9.877595895885998e-05;0.025491995513408805;120.0;53.728034539999996;86.84037501999998
-1.003441463809277;2.9008913528639373;5.478635685596103;-0.1193025390027531;0.03865111121601184;-0.0112164780258998;2.560407170525491;1.465661668310955;2.1481641259560518;5.912989683252221;3.519452586790953;-0.9115937595594984;0.004645277387794703;0.1498929336188436;0.0183542367696543;0.0028393409339458196;0.12032221882328939;120.0;53.7277356;86.84020408
-1.151578654018622;3.5546654395218598;5.478635685596103;-0.0520036708473539;0.032682289206434297;-0.0326297542571632;2.3935370964612677;1.7581454525506628;3.091075432324575;5.912989683252221;3.519452586790953;-0.9115937595594984;0.003525781861363076;0.1498929336188436;0.0183542367696543;0.003995955426007242;0.12032221882328939;120.0;53.727456759999995;86.84000716
5.478635685596103;3.4335839651229825;5.478635685596103;-0.0591414295911083;0.03663049851470593;-0.0275313551544814;5.912989683252221;1.7112422539155134;2.9283500515858463;5.912989683252221;3.519452586790953;-0.9115937595594984;0.00364296134109638;0.1498929336188436;0.0183542367696543;0.0036403619737553493;0.12032221882328939;120.0;53.72718868;86.83979028
5.372320289833083;2.802786757151706;5.478635685596103;-0.0326297542571632;0.03116786105408851;0.020393596410727;5.750877621323036;1.6845559084957782;2.8377286088480367;5.912989683252221;3.519452586790953;-0.9115937595594984;0.00364296134109638;0.1498929336188436;0.0183542367696543;0.0023782131676484105;0.12032221882328939;120.0;53.726953200000004;86.8395804
4.636837505608984;1.2612978906044487;5.478635685596103;-0.0275313551544814;0.04472316157842684;0.0520036708473539;4.888082944954031;1.3466892217845488;1.8135718600706736;5.912989683252221;3.2458483834203813;-0.9411644743550523;0.0026373700915483774;0.12032221882328964;-0.0438462322830631;0.0005253841269674932;0.058121749770571995;120.0;53.726746739999996;86.83937394
2.411157401651116;1.2493382062634377;5.423902721484197;0.020393596410727;0.0430746840733851;0.0520036708473539;2.6671412998318393;1.2478466901479117;1.5571213621130986;5.750877621323036;3.0837363214911964;-0.9411644743550523;0.0013578575116034138;0.09992862241256273;-0.0438462322830631;0.00042338495250576644;0.0489446313857449;120.0;53.72657294;86.8392155
3.898777859217805;1.3456336823003663;5.423902721484197;0.0520036708473539;0.04096905514464687;0.0520036708473539;3.9721419394833504;1.3346797473175962;1.7813700278997622;5.440615202409347;3.041977945665943;-0.9411644743550523;0.0015313392879432652;0.09992862241256273;-0.0397675130009177;0.0005082283025167446;0.053023350667890295;120.0;53.72637832;86.83906696
5.423902721484197;2.3802186605249855;5.423902721484197;-0.0530233506678902;0.03810793284976907;0.0520036708473539;5.440615202409347;1.684279694103843;2.836798087970535;5.440615202409347;4.445119844550578;-0.93912511471398;0.0018050006816061259;0.10196798205363511;0.0163148771285816;0.0016105680044976147;0.10910574079738959;120.0;53.7262036;86.83897927999999
2.39357263641557;2.9151616625936363;5.423902721484197;0.0050983991026817;0.03739598413560153;0.0520036708473539;2.3986372567434042;1.9147282875809977;3.66618441526286;5.440615202409347;4.445119844550578;-0.93912511471398;0.0010251904792993368;0.07647598654022614;0.0193739165901906;0.0024421576042375675;0.11216478025899859;120.0;53.726033900000004;86.83894782
-0.9952375637159232;3.829668789107165;5.423902721484197;0.0071377587437544;0.02611057383902939;0.0091771183848271;0.9954953578587691;2.0388521702715305;4.156918172220931;5.440615202409347;4.445119844550578;-0.93912511471398;0.0022600979156723456;0.11522381972060758;0.0856531049250535;0.0045361039594717465;0.1784439685938615;120.0;53.72588052;86.83894803999999
-1.09281462145391;2.518158457363379;2.39357263641557;0.0091771183848271;0.024588876418451;0.0091771183848271;1.0963225647653512;1.478338661291364;2.1854851974687426;4.644226529005611;3.6487311711468413;-0.93912511471398;0.0024127847532840066;0.11522381972060758;0.0856531049250535;0.002014717638679812;0.1254206179259712;120.0;53.72575525;86.83897125
-4.644174086926328;1.4949013712046977;-0.9952375637159232;-0.0101967982053635;0.025178040176482973;0.0091771183848271;4.644226529005611;1.4871842918331846;2.2117171178753705;4.644226529005611;3.6487311711468413;-0.93912511471398;0.0017981903391726145;0.11522381972060758;0.0856531049250535;0.0007956143557402073;0.0693382277964719;120.0;53.725698650000005;86.83901193
-1.9421177718412923;1.7531766186656745;0.1149107263248899;-0.049454471296013;0.024444683764660854;0.0091771183848271;1.9533138914617867;1.4512802675155192;2.106214414879917;4.644226529005611;3.5479039642402594;-0.9982665443050882;0.00041927795210694024;0.05608239012949934;0.0856531049250535;0.0010520159502586772;0.0876924645661262;120.0;53.72568381;86.83903293
-1.6381786295869345;2.795194434553162;2.9295092293959577;0.0091771183848271;0.02869723960562723;0.0091771183848271;1.74529130054061;1.4306812825689401;2.0468489322931074;4.644226529005611;3.439332956103544;-0.9982665443050882;0.00047589217279441344;0.05608239012949934;0.0856531049250535;0.0025478478803235474;0.1371469358621392;120.0;53.72570445;86.83903821
0.1149107263248899;3.0766912457094326;5.214538567670259;-0.0214132762312633;0.02729048791337002;0.0091771183848271;1.2048935729020662;1.9672901510709448;3.870230538500741;6.053804512375498;4.8489109394734315;-0.9605383909452432;0.0005763317268515281;0.06067094932191286;0.0346691138982359;0.0027864698022294215;0.1223615784643621;120.0;53.72574611;86.83903891
2.9295092293959577;3.0766912457094326;5.214538567670259;-0.061180789232181;0.02729048791337002;0.0091771183848271;3.5569072014897603;1.9672901510709448;3.870230538500741;6.053804512375498;4.8489109394734315;-0.9605383909452432;0.0005763317268515281;0.06067094932191286;0.0346691138982359;0.0027864698022294215;0.1223615784643621;120.0;53.72574611;86.83903891
5.214538567670259;3.0766912457094326;5.214538567670259;-0.0254919955134087;0.02729048791337002;0.0091771183848271;6.053804512375498;1.9672901510709448;3.870230538500741;6.053804512375498;4.8489109394734315;-0.9605383909452432;0.0005763317268515281;0.06067094932191286;0.0346691138982359;0.0027864698022294215;0.1223615784643621;120.0;53.72574611;86.83903891
