acc_X;acc_X_std;acc_Z;acc_Z_std;class;lat;lon
-1.2941504714501473;1.975627495641021;-0.014785357397777;0.06139899397393809;30.0;53.722399900000006;86.83648117999999
0.7931955724126843;1.975627495641021;0.0622004690527174;0.06139899397393809;30.0;53.722399900000006;86.83648117999999
1.7027635643029129;1.975627495641021;-0.0326297542571632;0.06139899397393809;30.0;53.722399900000006;86.83648117999999
4.271419727688365;1.975627495641021;-0.0010196798205363;0.06139899397393809;30.0;53.722399900000006;86.83648117999999
3.385163188240228;1.975627495641021;-0.1060467013357805;0.06139899397393809;90.0;53.722399900000006;86.83648117999999
-0.3175092284487066;1.975627495641021;-0.1315386968491893;0.06139899397393809;90.0;53.722399900000006;86.83648117999999
3.07877851230349;1.7859894636694422;-0.0810645457326399;0.061245995109847275;90.0;53.72227742;86.83632030000001
2.9162009787329435;1.7442920372969875;0.0326297542571632;0.05047146165367537;90.0;53.72215353;86.83615545
2.861839144794451;1.6521324932677206;-0.0219231161415315;0.05089826585215628;90.0;53.72202845;86.83598685
4.834660156609945;1.6779630031566446;-0.0764759865402263;0.04709748410103858;90.0;53.721875260000004;86.83577478000001
5.467235436307047;1.8041587137254222;-0.0601611094116447;0.04929788417036809;90.0;53.7217251;86.8355555
5.134518043670027;1.1197553269360643;-0.0887121443866625;0.04339719727592072;90.0;53.72157917;86.83532509
3.905835787338354;1.2151082128406887;-0.0254919955134087;0.043299554944955854;90.0;53.72143939;86.83508803000001
4.69716277681161;1.053375238146263;-0.0642398286937901;0.030474280078436975;90.0;53.7213068;86.83484536
5.729210908838506;0.8936379863053662;-0.1244009381054349;0.027504066244035123;90.0;53.72118019;86.83460355000001
5.402385896812181;1.118403137200112;-0.0448659121035994;0.027386414080832096;90.0;53.72105913;86.83435705000001
6.645256266021949;1.1684813935246097;-0.0795350260018354;0.027362780723240762;90.0;53.720952350000005;86.83412995
5.689184008704218;1.2405708188790838;-0.0744366268991536;0.027517714082009693;90.0;53.72084898000001;86.83389858000001
6.930527318420631;1.047376505684898;-0.0448659121035994;0.030771324792739172;90.0;53.72074805999999;86.8336543
7.742882591550098;0.9717517232860581;-0.0632201488732537;0.0396206811128562;30.0;53.72067711;86.83344255
6.874676587894793;1.0503886626052417;-0.0744366268991536;0.03321854709145454;30.0;53.720610310000005;86.83322983000001
4.403784274595265;1.2891505296227248;-0.0418068726419904;0.03485588533447734;30.0;53.720545400000006;86.833019
5.874751207116211;1.6435834549731736;-0.0071377587437544;0.03197960422913231;30.0;53.72048283;86.83281563
6.8954948507766645;1.6190717625680553;0.0173345569491179;0.029610927691141504;30.0;53.720421939999994;86.83262162
7.646566072683179;1.941838647046193;-0.0071377587437544;0.029397133237243522;30.0;53.72036365;86.83243533
9.138049729713238;1.9418222969585692;-0.0081574385642908;0.030656225311226117;30.0;53.72030691;86.83226083
10.027297874228426;2.0615428860140486;-0.0469052717446721;0.02651516118963491;30.0;53.720248420000004;86.83208457999999
8.599104362759531;2.9927544727274995;-0.0520036708473539;0.03657621190869886;30.0;53.72018303;86.83190399
10.899331045168816;3.489048692315692;-0.0387478331803813;0.03695454348941216;30.0;53.72010917;86.83173797
7.888090264357972;4.143061140465943;0.0152951973080452;0.044743305751734436;30.0;53.72002344;86.83158824
5.499813724500689;4.4033717457701504;0.0081574385642908;0.04776449922379531;30.0;53.71992222;86.83146142
0.281850489616502;4.443563696797387;0.0713775874375446;0.04952467775287905;30.0;53.71980576;86.83136288
1.5493340492538583;4.323591929188973;-0.0214132762312633;0.0504771837432054;30.0;53.71967331;86.83128419
-0.228692451155283;3.9754358249555457;-0.092790863668808;0.05153795328918316;30.0;53.71952374999999;86.83122167
0.9529364612701062;2.800915997835374;-0.0723972672580809;0.051695521009280467;30.0;53.71935497;86.83117577
0.5520528036048634;1.8730190571379204;-0.0703579076170082;0.0493378239213045;30.0;53.71912708999999;86.83115269
-1.0818759174034278;1.0183393540890877;-0.0642398286937901;0.046812077962591105;30.0;53.718877369999994;86.83115385
1.1023245531046262;1.0190191206962704;-0.0693382277964719;0.02536797266583942;30.0;53.71860464;86.83118832
0.2317144447923668;1.1363951377105759;-0.0469052717446721;0.024311518306629774;30.0;53.71828576;86.83124319999999
-1.087295390225602;1.1564129463233412;-0.0142755174875089;0.033717001568677143;30.0;53.71795875;86.83131043
-1.427583398782138;1.1106066562028054;-0.0316100744366268;0.038442853336124815;60.0;53.717629120000005;86.83137760000001
0.3114310122746085;1.1521360731865549;-0.040787192821454;0.03776583666608537;60.0;53.7172982;86.83144347999999
-2.3484093372075043;1.3011403086317588;-0.0815743856429081;0.037624243299708225;60.0;53.716959900000006;86.83150454
0.3718745898616949;1.3300500805581754;0.0285510349750178;0.03950815225508112;60.0;53.71661668;86.83156068
0.4765038673547788;1.3296776401097021;-0.1085959008871214;0.040810164554017;60.0;53.71626983;86.83160551
0.9637118551801924;1.2707162771353484;-0.0479249515652085;0.04369476426066603;60.0;53.715962909999995;86.83163139000001
1.96804352463132;1.1376642111314177;-0.0305903946160905;0.05330933713482181;60.0;53.71566381;86.83163436999999
1.393158262680657;1.731410691592071;-0.0887121443866625;0.06304193340103809;60.0;53.71537971;86.83160883000001
-0.0596154256960038;1.3485233557792564;-0.078515346181299;0.07317186599715514;60.0;53.71514748;86.83155324
0.4678747003232992;1.323313980531081;-0.116243499541144;0.05903157035269004;60.0;53.71494363000001;86.83146459
0.0574064894362262;1.3979139125773068;-0.1641684511063526;0.07182162828798586;60.0;53.71478366;86.83136094
4.493323775045974;1.493697001915785;-0.188640766799225;0.0833594056746687;60.0;53.71466678;86.8312543
1.6526070673841209;1.7620741150075627;-0.205975323748343;0.08959756892685154;60.0;53.714599129999996;86.83113801
0.9079887934728044;2.0029708523455696;-0.1560110125420618;0.0938425569585029;60.0;53.71458189;86.83101581000001
2.9698030168388634;2.0070472986944248;0.0101967982053635;0.09646989063033591;60.0;53.714614319999995;86.83088696
3.2998003797883326;1.8713441945318658;0.0356887937187723;0.09953297335455738;60.0;53.71468828;86.83075355999999
4.65623221465976;1.5773713570410193;0.0224329560517997;0.09588099470634978;60.0;53.714800479999994;86.83062767999999
5.131802603116848;1.594468872385459;-0.0050983991026817;0.08443902586474841;60.0;53.71495671;86.83050487
5.342505961653848;1.4067751701191131;-0.0142755174875089;0.05607559185198727;60.0;53.71514644;86.83038996
4.59176035911474;0.8427162605685663;0.0142755174875089;0.017021833419052845;60.0;53.715355609999996;86.83029193
5.382094939589148;0.6110706860527403;0.0163148771285816;0.01784650083656634;60.0;53.71556152000001;86.83020343999999
4.802384987474368;0.312785704818679;0.0326297542571632;0.016244711774806804;60.0;53.715767189999994;86.83010959
4.796710702739897;0.2999948776056219;0.0193739165901906;0.015902592512168783;60.0;53.71596924000001;86.83001723999999
5.32359604033278;0.2946382588801868;-0.0091771183848271;0.016375044132523317;60.0;53.71616599;86.82992727
4.630268884583772;0.32275099726635137;0.0295707147955541;0.012600027485361093;60.0;53.716359239999996;86.8298466
4.878591271443385;0.4879016144971393;0.0168247170388498;0.012483965764528098;60.0;53.716552820000004;86.82976882
4.811174688553348;0.49669173367710906;0.0152951973080452;0.012471003343165659;60.0;53.716752109999995;86.82969675000001
4.922133776969336;0.5845315986216187;0.0356887937187723;0.011811596910009662;60.0;53.71696381;86.82962941
4.2996630310077;0.8834029830097215;0.0224329560517997;0.019682212558664897;60.0;53.71717751;86.82957431
3.681365053646572;1.3567466656834308;0.0183542367696543;0.01756963860931806;60.0;53.71739934;86.82952478
3.924290067552162;2.2341639491518697;0.023452635872336;0.021141867074703745;60.0;53.71763658;86.82947786000001
3.5868783723524262;2.4422173240702305;0.0142755174875089;0.03126722542974046;60.0;53.717887499999996;86.82943438
2.3279544983408726;2.494541009623067;0.0683185479759355;0.03422794457332335;60.0;53.71815392;86.8293936
0.6457188510213405;2.2804891501616744;0.0040787192821454;0.036804179796899254;60.0;53.718451619999996;86.82936874
-2.018480210801883;2.242280469139328;-0.0132558376669725;0.03645598980070699;60.0;53.718789949999994;86.82939987
-0.7800430242822982;2.0846710844056093;-0.0520036708473539;0.039577503201948236;60.0;53.71914091;86.82946411
-0.7040883098001267;1.8128030631067487;-0.0305903946160905;0.03904854520009499;60.0;53.719505579999996;86.8295523
1.027271568325711;1.321333908605328;-0.0458855919241358;0.04148981836449531;60.0;53.71988173;86.82966221000001
-1.3984166507196332;1.0434153731081826;0.0163148771285816;0.0359613267581165;60.0;53.72027138;86.82977026
-0.6307000583970211;0.9173174571973239;0.0509839910268175;0.036563457078525895;60.0;53.72068921;86.82987321
-1.5217481189138715;0.8373565575139392;-0.0071377587437544;0.04157969442599856;60.0;53.72111221;86.82997365
-0.2365026601070551;0.8376623825184881;0.0458855919241358;0.04120513832481273;60.0;53.72153839;86.83007215
-2.087874622489782;0.9038953877869599;-0.0331395941674313;0.040872113141886005;60.0;53.72197879;86.83015927
-0.9882737827613975;1.1087761663159548;-0.0316100744366268;0.04114677973999901;60.0;53.72240803;86.83023011
-0.5915074011718165;1.5618882601640154;-0.0723972672580809;0.039977900925029675;60.0;53.72281117;86.83024157
-0.7197907191904553;1.5746497676879387;-0.0479249515652085;0.034809825737527535;60.0;53.72321727999999;86.8302304
0.2836045724669236;1.6411084410583694;-0.0163148771285816;0.03735769582307111;60.0;53.723621109999996;86.83021183000001
1.9069140372241125;1.6452068122982906;-0.0489446313857448;0.03196302742879629;60.0;53.72404486000001;86.83022342000001
3.080889853871418;1.5379481206036991;-0.0326297542571632;0.04157215717534557;60.0;53.72446178;86.83026146
0.7304753384184882;1.3779878518379833;-0.0744366268991536;0.04247238127243398;60.0;53.72485372999999;86.83032829
2.376227628128966;1.2526569683459299;0.0163148771285816;0.03828607681920062;60.0;53.72524204;86.83041707999999
1.2160409106272605;0.9555274887864138;0.0193739165901906;0.0363417283141292;60.0;53.725627450000005;86.83052857
3.043537581585412;0.7623800264318293;0.0520036708473539;0.046760223382761874;60.0;53.72599964999999;86.83067549
1.87784198907966;0.8938550995261685;0.0061180789232181;0.04509398786719111;60.0;53.72636702;86.83084061999999
2.635550942853357;0.8767241388450498;-0.0091771183848271;0.04295328541197862;60.0;53.7267377;86.83102185999999
2.4817903056990613;0.8082648203192041;-0.0071377587437544;0.028830133352992345;60.0;53.72710694;86.83120934
1.7436752450802595;0.8081388222529221;0.0846334251045171;0.02930586729069458;60.0;53.72747527;86.83138823
3.62446375161887;0.8343878630043365;0.0448659121035994;0.030329118847788432;60.0;53.72780738;86.83153089999999
2.889667393548126;0.8704898518671581;0.0336494340776996;0.037685297874413944;60.0;53.72818213000001;86.83165733
1.1122569466544094;1.1106002946283278;0.0168247170388498;0.041234006470108546;60.0;53.72855946;86.83177866
2.3631818819117494;1.2735407884368408;0.0071377587437544;0.041672114367870064;60.0;53.72894955;86.83190251
3.7896971108231496;1.4700382211480998;0.0;0.041636613857180385;60.0;53.72935559;86.83202183
1.5487340327790304;2.0915968986482762;-0.058121749770572;0.03176324918541619;60.0;53.72977784;86.83212152
0.2066672470264199;2.014965357745838;-0.040787192821454;0.027596790771289778;60.0;53.730203599999996;86.83221192
0.1760868126222842;1.9871569940767648;-0.0173345569491179;0.023617630307424406;60.0;53.730629009999994;86.83229685
-0.4449992650250697;1.9826805204317821;-0.0061180789232181;0.025702989138436168;60.0;53.73105724;86.83237435999999
-3.0091111067770124;1.9233490654833139;-0.0193739165901906;0.04064319209117963;60.0;53.73149004;86.83245388
-1.0301087084206997;1.2930719954873053;0.0122361578464362;0.04014900722312346;60.0;53.731921799999995;86.83256308
-1.5942633664198285;1.0505746541858896;-0.0071377587437544;0.041897274938257206;60.0;53.73230295;86.83270103
-0.5602520232940293;0.9963905377529269;-0.0591414295911083;0.04179457388119819;60.0;53.732677079999995;86.83287804
-2.0408595630017814;0.8660357290400575;-0.1254206179259712;0.04164157326615528;30.0;53.73302264;86.83306999999999
-0.1713652130134456;0.8035088576204539;-0.0652595085143265;0.04471579894374046;30.0;53.73333252;86.8332826
-1.6585850092094458;0.8339096863884399;0.0071377587437544;0.05654500293478806;30.0;53.73360282;86.8335145
-2.0004718100074723;0.9025932264680809;-0.0285510349750178;0.059608791927003454;30.0;53.73385370999999;86.83375771000001
-1.2322954181052748;1.429019349407522;-0.0224329560517997;0.059552269691403106;30.0;53.73408142999999;86.83398799
-1.626142128922708;1.72501559559281;0.0244723156928724;0.05760604414680031;30.0;53.73429208;86.83419096
-3.150837724222872;1.8042046733346155;0.0805547058223717;0.041791809616672185;30.0;53.7344832;86.83435904000001
-0.345823000979377;1.8238338799278777;0.0469052717446721;0.03906910177651165;30.0;53.73466225999999;86.8344741
2.087015840840316;1.8313098028746153;-0.0183542367696543;0.04194894427936913;30.0;53.73484845;86.83450669
1.980906296940549;1.8454912582040441;-0.0071377587437544;0.04707528740302607;30.0;53.73503184;86.83445712
1.476054928147543;1.7646235499715581;-0.020393596410727;0.05030650818001679;30.0;53.73523307000001;86.83435627
0.4077410447656419;1.599079653599524;-0.0479249515652084;0.05010199360576401;30.0;53.73544766;86.83421245999999
1.2193444060529768;0.8402429468712491;-0.0479249515652085;0.03525752795301724;30.0;53.735683800000004;86.83403132000001
2.3029618176406044;0.6690632322460514;-0.0741817069440195;0.02155980905156667;30.0;53.73594085;86.83382757
0.6397720015686696;0.6657850201263712;-0.0652595085143265;0.01986168386849273;30.0;53.73629046;86.83362678
0.8230291742469442;0.7411832137305969;-0.0560823901294993;0.016192467926461968;30.0;53.73666256;86.83345104
1.643450380986784;0.8520019828828704;-0.0397675130009177;0.013061618015988702;30.0;53.73706651;86.83331227000001
2.0735484452856707;0.9245897595633673;-0.0520036708473539;0.012849387501992868;30.0;53.737507640000004;86.83321836
0.7380472432448305;0.9255623611076408;-0.0520036708473539;0.01989335907179512;30.0;53.737951550000005;86.83320146999999
-0.0;0.8474444723285475;-0.0744366268991535;0.019442370614289235;30.0;53.73840242;86.83325554000001
-0.2883065476717399;1.009709635863167;-0.0367084735393086;0.019572954173853824;30.0;53.738848940000004;86.83337694
2.305525759649481;1.0243178727662614;-0.0560823901294993;0.01973606616999204;30.0;53.73930182;86.83357894000001
0.9804488303500472;1.2656053158793994;-0.1050270215152442;0.03019603118808899;30.0;53.7397438;86.83384939999999
0.4099025443339104;1.3008785329196166;-0.0540430304884266;0.04433021453577734;30.0;53.740165520000005;86.83417896
-0.8010919036077124;1.299518860653006;-0.0683185479759355;0.050985803758717155;30.0;53.740505389999996;86.83455467
0.2381604842491614;1.3747692763765373;-0.0509839910268175;0.04945464649842097;30.0;53.740845109999995;86.83496095000001
3.1888379330349728;1.3140853219840782;0.0142755174875089;0.0502634237226028;30.0;53.74122518;86.83538966
2.380499957661092;1.2697951984482563;0.0489446313857448;0.049322718551874804;30.0;53.74158781;86.83580605
0.9930992914447746;1.637019751464894;0.037728153359845;0.03891577602791344;30.0;53.74195616000001;86.83619744
-0.7168476606599061;1.7905362424026594;-0.0091771183848271;0.03598252331865325;30.0;53.742321489999995;86.83655252999999
0.8496589645941394;1.8371057636246302;0.003059039461609;0.028549466971919436;30.0;53.742698069999996;86.83686767
-0.171886479109461;1.9055944244308032;-0.0020393596410727;0.021645624847377073;30.0;53.74307387;86.83712059
-2.5707317644174026;1.5525823064390938;-0.0020393596410727;0.021681621144139598;30.0;53.74346475;86.83732203
-1.917483301834925;1.196468957321943;-0.0229427959620678;0.01904949431219873;30.0;53.743868150000004;86.83747711000001
-1.4206169275363203;1.02100445435561;0.0132558376669725;0.013388192830965392;30.0;53.74427876;86.83759588000001
-1.5417450479916277;1.045665505995089;-0.0025491995513408;0.021992237375315093;30.0;53.744681330000006;86.83768869
-1.4998481634216467;0.8456677449633355;-0.0010196798205363;0.023226240699393406;30.0;53.7450593;86.83775433999999
0.0583744151106273;0.7944856739716468;-0.0326297542571632;0.022825358103062243;30.0;53.745434;86.83781416000001
-0.7662509245769108;0.7174311933988471;0.0035688793718772;0.022312964383286164;30.0;53.745805100000005;86.83788574
-0.2306225825134324;1.043443225157161;-0.0601611094116447;0.02237759069927472;30.0;53.7461823;86.83797622
-0.8203150690546007;1.0965168382943737;-0.0397675130009177;0.019571847442251416;30.0;53.74655746999999;86.83809027
-0.7461604064484043;1.0705543968739861;-0.0193739165901906;0.020515311528578883;30.0;53.74693117;86.83823869
0.1715293017327041;1.0611938006622663;-0.0132558376669725;0.01956055520313237;30.0;53.747295830000006;86.83842159000001
-3.4181275706882555;1.03494256915195;-0.0249821556031405;0.019226966658013562;30.0;53.74766481;86.83864464999999
0.1773358003939481;1.0604954053505362;-0.023452635872336;0.02060388336159006;30.0;53.74803947;86.83890667
-0.6937507596924697;1.2586704522103276;0.0050983991026817;0.015579667330169628;30.0;53.74841848999999;86.83920377000001
-0.0286741362138194;1.3467210331726676;-0.0132558376669725;0.014963412925660247;30.0;53.74876797;86.83953276999999
-0.5212295540963334;1.3876557071695494;-0.0244723156928724;0.015114362529488381;30.0;53.74912088999999;86.83989337
0.0580461253289173;1.3371780493098415;0.0122361578464362;0.015431023600764178;30.0;53.749468560000004;86.84026408000001
-2.8306718323726616;1.1346969877248052;-0.003059039461609;0.01623146083820897;30.0;53.74982076;86.84064444
-2.385626380776801;1.031741683077392;-0.0361986336290404;0.01931867972849476;30.0;53.75016658;86.84102098000001
-2.153742853085566;1.0286682285318727;-0.0224329560517997;0.01958121579260182;30.0;53.75051520000001;86.8413824
-2.2171471153008597;0.8983818575715941;-0.0045885591924135;0.024103442281843433;30.0;53.750886460000004;86.84174598
-1.3051348428259184;0.8470790532065391;0.0081574385642908;0.024539494031803145;30.0;53.751256639999994;86.84209568000001
-1.6210883453138636;0.6078047658867771;0.0275313551544814;0.02579742924719852;30.0;53.75162897;86.84244240999999
-2.152910208359242;0.5447709031624726;-0.0214132762312633;0.030455271854627944;30.0;53.75199464999999;86.84278761
-1.2123530398777036;0.9137322018176252;-0.0520036708473539;0.03552368494627004;30.0;53.75235284;86.84314068
-2.553934176291033;1.1345332068731802;-0.0305903946160905;0.036807828675628144;30.0;53.752701;86.84349652
-1.0710557098660962;1.989782067681718;-0.0520036708473539;0.03528413065626971;30.0;53.75304738;86.84386594
-1.3727630377169286;1.981249468518591;-0.0744366268991536;0.03252141043157594;30.0;53.753384069999996;86.84423847
0.667915626167722;2.0685359692644427;-0.0836137452839808;0.022075014917490844;30.0;53.75371951999999;86.84461488
0.8210524568803308;2.059116798186355;-0.0632201488732537;0.02010325768686239;60.0;53.754053490000004;86.84500772999999
4.201975922263277;2.0094530988442116;-0.0418068726419904;0.020168663693874912;60.0;53.75438152;86.84541512000001
0.1120030270534697;1.7161044068643216;-0.0152951973080452;0.019690648353645753;60.0;53.754706209999995;86.84583452999999
2.022388218385593;1.7995528647212942;-0.0418068726419904;0.02130401583003274;60.0;53.75503194;86.84627033999999
2.4269588286739223;1.523676734028862;-0.0545528703986947;0.020476700936004164;60.0;53.755370240000005;86.84673408
1.681881436040531;1.4737020734479696;-0.0560823901294993;0.020238354095200913;60.0;53.75571013;86.84720197
-0.3918243668347458;1.4367994135237496;-0.0351789538085041;0.019137228880756967;30.0;53.75604556999999;86.84766541
3.918897861096152;1.3554708799590436;-0.0774956663607627;0.02103744423294756;30.0;53.756377150000006;86.84813011
2.3378384258210194;1.61982527295748;-0.0397675130009177;0.020214079085256794;30.0;53.75670482;86.84859345999999
2.072722945093127;1.6254468260222206;-0.0122361578464362;0.020268870715032174;30.0;53.75702149999999;86.8490663
1.3960285226928812;1.6198335627230052;-0.0356887937187723;0.03912111040626483;30.0;53.75732987;86.84956155
-0.2277960013246486;1.674345353516709;-0.0132558376669725;0.039922052992083644;30.0;53.757597909999994;86.85006510999999
4.9124688667996494;1.7994845867381906;-0.058121749770572;0.03950961429890257;30.0;53.75782898;86.85057522000001
1.586927166952833;1.9297785122992648;-0.037728153359845;0.044224836823144674;30.0;53.758007840000005;86.85106640000001
1.6486967773723211;2.310152652115012;-0.1473437340675027;0.044818540219180546;30.0;53.758133910000005;86.85150990999999
3.2776385106195347;2.6961965546308853;-0.0764759865402263;0.04292035873164449;30.0;53.75822258000001;86.85192882
-1.099690766610959;2.7848787433716544;-0.0642398286937901;0.04272665975296288;30.0;53.758280189999994;86.85232947
4.847591871307526;2.690825210805813;0.0132558376669725;0.04095241452813313;30.0;53.75830648;86.85271159999999
6.072569169670226;2.6939168491585166;-0.0723972672580809;0.041218418781366596;30.0;53.75829467;86.85310427
6.906513218900477;2.5425271912789507;-0.0662791883348628;0.041011190543835035;30.0;53.75825419;86.85347594999999
5.890904293319413;2.441588800052188;-0.0397675130009177;0.03146909724470751;30.0;53.75818191;86.85380559000001
7.089190291398098;2.402960992206256;-0.0892219842969307;0.03414130226518753;30.0;53.75809508;86.85410276
5.001721723182965;1.3898977671337678;-0.0805547058223717;0.034160584496595155;30.0;53.75800360000001;86.85437992
4.492916200584904;1.5604034502753477;-0.0978892627714897;0.0329802018051311;30.0;53.757908670000006;86.85465619
2.621934847560929;1.5790158360604356;-0.0723972672580809;0.03279754346928715;30.0;53.75780698;86.85495386
4.710361843225912;1.5747699709672196;-0.0193739165901906;0.03309908725099425;30.0;53.75769742;86.85525901999999
3.731302541188624;1.4549639267798067;-0.0652595085143265;0.03236959274128332;30.0;53.757575689999996;86.85558785
2.9028834779702506;1.3001020833665429;0.0081574385642908;0.0349678988496703;30.0;53.75744239000001;86.85592815
3.3459565329305185;1.7630584179862636;-0.0672988681553992;0.039121848667181505;30.0;53.757303130000004;86.85625481
1.9621630292463068;1.8647798038333727;-0.0744366268991536;0.03492078776310005;30.0;53.75715418;86.85659994
3.910447363164296;2.019702614457507;-0.0662791883348628;0.04029147680081224;30.0;53.75700734000001;86.85695486
0.8576298560737747;1.8387526276316095;-0.0081574385642908;0.040220161475964585;30.0;53.756867109999995;86.85732407
-1.0167429069193012;1.914725609240624;0.0112164780258999;0.03796852811646954;30.0;53.756741510000005;86.85771047
-0.1678229620257788;1.8479218579469512;-0.0214132762312633;0.036938127272756714;30.0;53.75663577;86.85811929
-0.2329525418512114;1.9010960742210201;0.040787192821454;0.03416155677696069;30.0;53.75655432999999;86.85856265
3.143221803817747;1.883844044653774;-0.0265116753339451;0.03196515082324661;30.0;53.75649052;86.85902364
-1.058879882880227;1.5248848397553927;-0.0152951973080452;0.04118308822094537;30.0;53.75644913;86.85948145
0.5550573454803237;1.6050778341706722;-0.0438462322830631;0.04228919818780314;30.0;53.75642665;86.85994280999999
-1.9548924041947109;1.5467538966127121;-0.0183542367696543;0.03986833639839992;30.0;53.756423080000005;86.8604154
-0.831768454272195;1.6177910596901053;-0.0601611094116447;0.03974412030145284;30.0;53.75643537;86.86090128999999
1.838803906644819;1.7159779202549017;-0.1121647802589986;0.030260047400231072;30.0;53.756455270000004;86.86140247
1.8176913768290703;1.5955184398659032;-0.0632201488732537;0.02977686231184238;30.0;53.75648209;86.86189521
0.2145484600387157;1.6116576631424533;-0.0214132762312633;0.027817518370746586;30.0;53.75650822;86.86237702000001
-1.2111289743026667;1.6128184010425097;-0.0254919955134087;0.028017237804605414;30.0;53.75653174;86.86283574
-1.601137194809357;1.541105506407395;-0.0622004690527174;0.027174515044635354;60.0;53.756548040000006;86.86325396
-2.9886154705727423;1.520332492380707;-0.058121749770572;0.027426301846205738;60.0;53.756563979999996;86.86365645999999
0.4721884235069436;1.3881861496804102;-0.037728153359845;0.0384710915941505;60.0;53.756579620000004;86.86405354
0.5731264622075325;1.3415003843036917;-0.0382379932701131;0.0375104605878094;60.0;53.75659571999999;86.86444852
0.7315851001239535;1.2984418268778868;-0.0805547058223717;0.037746865815136685;60.0;53.75661305;86.86483705
-0.184043785527888;1.3961613368737553;-0.0428265524625267;0.03787885227215129;60.0;53.75662697;86.86521705
-0.9383313075205328;1.3943976467278734;0.0591414295911083;0.04158608438854705;60.0;53.756634010000006;86.86558249
-2.6269255123659634;1.213914329865262;-0.0448659121035994;0.054787195275551974;60.0;53.75663407;86.86594862999999
-0.7027804794285424;2.7670744929988165;-0.0571020699500356;0.05608983123858031;60.0;53.75662695;86.86630758999999
0.8649991240442466;3.054637679884635;-0.0224329560517997;0.056409587165536304;60.0;53.75660689;86.86664593
-1.577840154059402;3.094924713239251;0.0244723156928724;0.06492975786033313;60.0;53.75657704;86.86696168
-1.8310453546063052;3.1170304620934974;-0.1437748546956255;0.06535788392194092;60.0;53.75654245999999;86.86725478
-8.572838051655753;3.2290977858783263;-0.0764759865402263;0.05335027987636998;60.0;53.75651057;86.86750449
3.007285164730502;3.554045265560411;-0.0622004690527174;0.05853572544526338;60.0;53.75648269;86.86770701
1.250579035844512;3.578000996342087;-0.1498929336188437;0.05919631934712369;60.0;53.756454139999995;86.86785766
-2.8112786277136523;3.5603627812322647;-0.0270215152442133;0.06124705613629514;60.0;53.75642889000001;86.86794761000002
-4.158845956078743;3.5958467950803397;-0.040787192821454;0.05903783256441425;60.0;53.75640752;86.86799792000001
3.1881058292109823;3.5958467950803397;-0.1396961354134801;0.05903783256441425;60.0;53.75640752;86.86799792000001
-2.5746172145021577;3.5958467950803397;-0.0397675130009177;0.05903783256441425;60.0;53.75640752;86.86799792000001
0.5903516770829329;3.5958467950803397;-0.0020393596410727;0.05903783256441425;60.0;53.75640752;86.86799792000001
0.2900878603467696;3.5958467950803397;0.0101967982053635;0.05903783256441425;60.0;53.75640752;86.86799792000001
6.79944442154528;2.4244031822706233;-0.1876210869786886;0.0713141124695093;30.0;53.72304319;86.83603647
-0.8874194271698296;2.4244031822706233;-0.0795350260018354;0.0713141124695093;30.0;53.72304319;86.83603647
4.52741238468414;2.4244031822706233;-0.0591414295911083;0.0713141124695093;30.0;53.72304319;86.83603647
-0.7978107136543718;2.4244031822706233;0.0275313551544814;0.0713141124695093;30.0;53.72304319;86.83603647
1.8622039434736557;2.4244031822706233;-0.0499643112062812;0.0713141124695093;30.0;53.72304319;86.83603647
4.451889124931976;2.4244031822706233;-0.1223615784643621;0.0713141124695093;90.0;53.72304319;86.83603647
1.2706056152699017;2.012965184307335;-0.0428265524625267;0.06028762024354705;90.0;53.722922159999996;86.83602807999999
1.9187948650096456;2.0971631793098133;-0.1111451004384623;0.05995856075097126;90.0;53.72279053;86.83601421
2.268218360472125;2.045709990269326;-0.1611094116447435;0.0634805628493616;60.0;53.72264905000001;86.83598281
3.85702239131046;1.6435614902357163;0.023452635872336;0.05453608492415214;60.0;53.722502580000004;86.83593106
4.120688668746962;1.5472642898997302;-0.0356887937187723;0.055676240466569195;60.0;53.72234949999999;86.83585221999999
6.569091073341641;1.6149718854646526;-0.0540430304884266;0.05490975570594377;60.0;53.72218222;86.83574125999999
3.6903118551695338;1.4121893785602373;-0.1244009381054349;0.05330194134357563;30.0;53.72201441;86.83560417
4.830343612093337;1.274915004152056;-0.0805547058223717;0.05288383265998514;30.0;53.721856720000005;86.83543112
4.08145577127745;1.1625958005523465;-0.1244009381054349;0.04561463973514237;30.0;53.7217;86.83524112
5.304678510317778;1.1064437204214366;-0.1111451004384623;0.028978567762445326;30.0;53.721546000000004;86.83502824
5.376802378854344;1.026213836704985;-0.0734169470786173;0.029596878909454026;30.0;53.7213972;86.83480263999999
6.112406832220049;1.1018845726989097;-0.1019679820536351;0.028576313462585205;30.0;53.72125745000001;86.83456049
6.906601311633196;0.9537446131733364;-0.0866727847455898;0.027088449037460195;30.0;53.72112964;86.83431235999998
5.987761015511364;0.9431730947697934;-0.0836137452839808;0.02816093204932422;30.0;53.7210101;86.83406482000001
5.442967933658915;0.6959166570410765;-0.0326297542571632;0.02381897756461149;30.0;53.720899610000004;86.83382121000001
7.095784182633091;0.6345243240645172;-0.0632201488732537;0.025767463520674206;30.0;53.720794520000005;86.83355484
6.642280809138731;0.8811309815362288;-0.0560823901294993;0.03073775165097631;30.0;53.720695660000004;86.83329214
6.8365299002792925;1.2853196879153763;-0.0571020699500356;0.03006283470998955;30.0;53.720606540000006;86.83303917999999
5.56404127284563;1.6085154482811812;-0.0571020699500356;0.02649472972473761;30.0;53.720525859999995;86.83279466
6.352561786874936;1.6247220877755308;-0.014785357397777;0.02234168154201252;30.0;53.72045161;86.83256937
8.480870473288974;1.4708956266610915;-0.0071377587437544;0.02961370738911754;30.0;53.72038088000001;86.8323604
9.58736214477698;1.7884629265111573;-0.0040787192821454;0.03561430363165325;30.0;53.72030918;86.83215557999999
9.94608033689031;2.111357634448076;-0.0418068726419904;0.035671025825953585;30.0;53.720232599999996;86.83195612
8.85049783347913;3.302819223621767;-0.0254919955134087;0.034543300043516835;30.0;53.72014326;86.83176438000001
7.105852315649455;3.929020364180374;-0.0978892627714897;0.032559265333559365;30.0;53.720036099999994;86.83159065999999
4.432489242913199;4.171796511025439;0.0265116753339451;0.03987398655993355;30.0;53.719907639999995;86.831475
3.819840031900269;4.330180641911655;-0.0050983991026817;0.05230658214530009;30.0;53.71976026;86.83139162
-0.9102925491047916;4.333060147639631;-0.0101967982053635;0.050768268908055615;60.0;53.71959234;86.83133378
-0.3748475817663645;3.9811139098983412;-0.0132558376669725;0.0574812687905976;60.0;53.71940366;86.83129613999999
1.1712400561812149;3.271710362738503;-0.092790863668808;0.05912042670834158;60.0;53.719195639999995;86.83126988000001
-0.3163892781586764;2.4208957297274876;-0.1386764555929438;0.05689543345557037;60.0;53.71896071;86.83126023
-2.1143535020120976;1.9050733629109635;-0.0499643112062812;0.051212341123728494;60.0;53.718705879999995;86.83127420000001
-2.844034502380256;1.3737276170497768;-0.130519017028653;0.050468857888190735;60.0;53.718427129999995;86.83130777
-1.8075430282703904;1.3703925817322697;-0.003059039461609;0.04865712000259715;60.0;53.71813046999999;86.83136182999999
0.754293488438423;1.3721398536952591;-0.0550627103089629;0.04576887267048476;60.0;53.71782237;86.83142493
-0.2747672119262189;1.2754125257069153;-0.0316100744366268;0.04560134120916136;60.0;53.71751804;86.8314918
1.1051485450080922;1.2745805168970985;-0.0127459977567043;0.03674936384426232;60.0;53.717218200000005;86.8315478
-0.765205352539363;1.3325405752129946;-0.0820842255531763;0.036839633149737726;30.0;53.71692308;86.83159316
-0.8561778618239785;1.1420652826368212;-0.07545630671969;0.024929729282984644;30.0;53.71663137;86.83162913000001
0.3445547707982833;0.9678317680705667;-0.0387478331803813;0.02807176879187374;30.0;53.71634259;86.83165523
-0.3437658682058327;1.248148283082639;-0.0560823901294993;0.02807691260979141;30.0;53.71604952;86.83165912000001
1.4917266833228873;1.2072394152950643;-0.0448659121035994;0.0283325051113158;30.0;53.71576775999999;86.83165127999999
1.7369382691743034;1.3354294279435504;-0.0520036708473539;0.02986736594763497;30.0;53.715502349999994;86.83163162999999
1.354430032024563;1.2034836158929727;0.0122361578464362;0.031993509465511195;30.0;53.71525895;86.83159303
2.935900515861595;1.3717477390304837;-0.0295707147955541;0.033747140288919925;30.0;53.71504173000001;86.83153453
1.1009880572500437;1.3939146606193589;-0.058121749770572;0.03644378727686572;30.0;53.71485643;86.83144139000001
2.612556930916313;1.1988901987643383;-0.092790863668808;0.03734559458639825;30.0;53.71470554;86.8313289
0.5789202123858888;1.4065712809475452;-0.0978892627714897;0.04189231132889844;30.0;53.71459503;86.83121327
4.318505021318569;1.449329174664914;-0.092790863668808;0.048235633901025234;30.0;53.71452828;86.83110044
3.366368529365412;1.3596955023576458;-0.1040073416947078;0.05053574065390859;30.0;53.7145047;86.83099238
3.281437790398756;1.524709358227575;-0.0356887937187723;0.05065664259559177;30.0;53.71453937;86.83088881
4.849841439428139;1.375166076798966;0.0010196798205363;0.05305210307232747;30.0;53.714610449999995;86.83078325
4.184055038616888;1.332892144591869;0.020393596410727;0.05150084145973523;30.0;53.71471805;86.83067325
3.549132520298393;0.6709638903530257;0.0275313551544814;0.04662562713378751;30.0;53.7148593;86.83056361999999
5.280887596232652;0.6713657303693801;-0.0265116753339451;0.04232268415128002;30.0;53.71502925;86.83045453
4.861875884751335;0.6142503971483487;0.0071377587437544;0.02598577995106014;30.0;53.71524835;86.83035106999999
4.3408288697095125;0.49628538114359544;0.0101967982053635;0.022309080850938932;30.0;53.715476380000005;86.83026165999999
4.416240826458898;0.4861571101733264;0.0112164780258998;0.022350987291376332;30.0;53.71570808;86.83016824
4.126834702417843;0.4912908431844588;0.0453757520138676;0.02256959160189795;30.0;53.71593856;86.83007104
4.742533061257212;0.466133012818055;-0.0265116753339451;0.021524196095611296;30.0;53.716166439999995;86.8299738
4.851147205458862;0.3840184997724165;0.0183542367696543;0.01823813274123548;30.0;53.71639648;86.82988384000001
4.669564663972476;0.39080999434821906;0.0193739165901906;0.018208971235713474;30.0;53.71662787;86.82979266999999
4.11907366964791;0.39321721828343714;-0.0050983991026817;0.018291264221887156;30.0;53.71686482;86.82970706
3.670646432699429;0.568542483737381;0.0081574385642908;0.018710268007998222;30.0;53.717107150000004;86.82962683
4.620697719493436;1.4941976225982443;0.0132558376669725;0.021045954359692344;30.0;53.717358860000004;86.82955854000001
3.875353257076136;2.560905920587508;0.0112164780258998;0.021805153548556326;30.0;53.71763599;86.82951567
4.206158371868905;3.041363016794141;0.0050983991026817;0.022158395633388298;30.0;53.71792121;86.82947577
3.018137547292972;3.1147774431012967;0.0224329560517997;0.036369374400288645;30.0;53.71821798;86.82944742000001
-0.1731813347098404;3.2523444993192805;0.0560823901294993;0.03782204305162583;30.0;53.71853257;86.82943689
-3.016082454591373;3.200226139178073;0.0632201488732537;0.038408842267791704;30.0;53.71885754;86.82945978000001
-2.810760452047045;2.833615874741279;0.0086672784745589;0.04020392927451601;30.0;53.71918909;86.82951485
-1.509826060211222;2.462970395963339;-0.0708677475272763;0.04042572913895952;30.0;53.71953203;86.82960435
-2.75334383461908;1.7690188991333313;-0.0244723156928724;0.042142791169638524;30.0;53.719924930000005;86.82971565
-1.848631718691126;0.9245956903527225;0.0305903946160905;0.043527444449086336;30.0;53.72032713;86.82982856999999
-0.6436292227390873;0.7652605895545209;0.0489446313857448;0.04163879884441694;30.0;53.720733270000004;86.82993775
-1.341128403360756;0.6765278795319352;0.0295707147955541;0.03781459697447291;30.0;53.721106999999996;86.83004012
-1.6714706729226674;0.8325912127889964;0.058121749770572;0.03783074737554224;30.0;53.72148492;86.830139
-1.845616252600476;1.577687501701922;-0.0122361578464362;0.026655955260587918;30.0;53.72187458;86.83022145999999
-1.2886340107503151;1.441100775150314;0.0040787192821454;0.03175701996947794;30.0;53.72226393;86.83028057
-1.1679295243862462;1.612734051281197;0.0056082390129499;0.038046645550066684;30.0;53.72267565;86.83029549
0.4143182249370945;1.6386351708273952;0.0040787192821454;0.045359550087973384;30.0;53.723098070000006;86.83027759
2.8912603932373333;1.7744626121220186;-0.0025491995513408;0.04921476787053665;30.0;53.72352866999999;86.83024483
-0.683251216991754;2.220666814199733;-0.0509839910268175;0.03989676018343524;30.0;53.7239238;86.83022012
2.0182827792626648;2.050499496377344;-0.0601611094116447;0.03954863088181514;30.0;53.72432041;86.83022249
0.6837895322690899;1.8629544671066083;-0.0963597430406852;0.0427511227953374;30.0;53.72471803;86.83025914999999
2.42711242880282;1.5966376782610359;-0.092790863668808;0.040814799806973945;30.0;53.72513769999999;86.83034602000001
5.07882621155597;1.5182617718935338;-0.0428265524625267;0.03904943275780449;30.0;53.72556727;86.83046327
2.464671096831178;1.5007210555364532;-0.0550627103089629;0.039569511583801224;30.0;53.725985519999995;86.83061016
2.480963179267394;1.1605923626228214;0.0265116753339451;0.04334968615891806;30.0;53.72640036;86.83077924
1.1595036250634907;1.177461709538635;-0.0173345569491179;0.04468016345193134;30.0;53.72679714000001;86.83097378
2.567858964616125;0.9770534088049943;-0.0142755174875089;0.03723406316157753;30.0;53.727187060000006;86.83117938000001
2.497482613316195;0.9703745112105394;0.0020393596410727;0.027348421934985122;30.0;53.727605340000004;86.8313903
2.926189286941169;0.7008853374707951;0.0183542367696543;0.02428774686955957;30.0;53.72802117;86.83158596999999
3.253545801397665;1.0653560791080297;0.0152951973080452;0.015880328808124324;30.0;53.728441509999996;86.83176823
2.7784908660835126;1.0635796076200021;-0.0091771183848271;0.014840535927617632;30.0;53.72886759000001;86.83193063000002
2.898832900833688;1.4805835801306169;0.0183542367696543;0.01321317340962229;30.0;53.72927174;86.8320583
1.1993514791788438;1.7541768972985818;-0.0122361578464362;0.01435581399782014;30.0;53.72967325;86.83216797
-0.119614189654103;1.8178974473927316;0.0040787192821454;0.019196900075131328;30.0;53.730093780000004;86.83226338
1.8358000778876236;1.7113499172683226;0.0193739165901906;0.023256003484880404;30.0;53.73051828;86.83234996
-1.216410957091839;1.756824198043425;-0.0005098399102681;0.029758815903372173;30.0;53.730948839999996;86.83243236000001
-1.2927717070903766;1.666751076476436;-0.0209034363209951;0.037382079697814506;30.0;53.73138288;86.83251824
-0.52528105044757;1.5764286108524412;-0.0367084735393086;0.03713028718853978;30.0;53.73177993;86.83262089000002
0.8035710701692987;1.5147393081099065;-0.0489446313857448;0.03790625350970929;30.0;53.732167270000005;86.83275223000001
-2.1325875382106987;1.5979237221074445;-0.0734169470786173;0.03781089248227518;30.0;53.73253525;86.83291541
2.101941305499426;1.8210696028998916;-0.0887121443866625;0.03781089248227518;30.0;53.732882540000006;86.83311166
-2.176310306904849;1.826753722985821;0.0163148771285816;0.05653603809635224;30.0;53.73320828000001;86.833335
0.2878121575203314;1.8822712935821642;-0.0530233506678902;0.07206108145143182;30.0;53.7335111;86.83358150000001
-1.8721182886099927;1.871676204230558;0.003059039461609;0.07212630167527324;30.0;53.733784660000005;86.8338269
-4.397936393726946;2.034407665706554;0.0193739165901906;0.06972537922420984;30.0;53.734042280000004;86.83404612
-1.5175021421652584;2.2057028077270835;0.1050270215152442;0.0653697258554354;30.0;53.73428015;86.83422766999999
-2.5033722203306192;2.001379941357499;0.1238910981951667;0.05581447045917007;30.0;53.7345051;86.83435278
-0.8762493535808118;2.5116669830573883;0.0387478331803813;0.060620801479724186;30.0;53.73474734;86.83439022
1.9302242377219587;2.6610853211272767;0.0193739165901906;0.06393382536355387;30.0;53.73499460000001;86.83437892
1.9197064748756123;2.6793481436747233;-0.0336494340776996;0.06434485797666414;30.0;53.73525245;86.83431677000002
0.0580441519604671;2.0923845430412795;-0.014785357397777;0.06769860058374494;30.0;53.735523109999995;86.83419575
4.224829736736009;1.948009008855661;-0.0520036708473539;0.05842003083104513;30.0;53.73580740999999;86.83402693
2.5123423161588194;1.5879018525758;-0.0764759865402263;0.03827389180824052;30.0;53.73610955;86.83382475
2.4004130020323378;1.4624277965972714;-0.0112164780258998;0.030137677429721198;30.0;53.73643324;86.83362108
1.2472149137265114;1.465762234787723;-0.0560823901294993;0.023394004884514912;30.0;53.73678262000001;86.8334431
-0.0602071446893805;1.5092780315988115;-0.0356887937187723;0.024862211359715787;30.0;53.73714914;86.8332925
-0.2953890431626678;1.8305163611714492;-0.07545630671969;0.02407256766690899;30.0;53.737538619999995;86.83319558
0.1159544577942395;1.4425701132103343;-0.0224329560517997;0.027853056128043466;30.0;53.73792202;86.83317962
2.008655204595272;1.4103282099556103;-0.0295707147955541;0.02608827566689341;30.0;53.73830673;86.83319825
0.0874661481653505;1.3202248897889568;-0.0137656775772407;0.023889504574961872;30.0;53.73868956;86.83325851999999
-2.1646498716348432;1.6458858358495458;-0.023452635872336;0.023542670234159624;30.0;53.73909204;86.83340756
0.9333282347550644;1.7556378435141156;-0.0846334251045171;0.023762466015093554;30.0;53.73948289;86.83361409
2.272513003337587;1.7681140408839908;-0.0601611094116447;0.024218975891756714;30.0;53.7398551;86.83387109999998
-0.6808497344355461;1.7622394436141795;-0.040787192821454;0.02754525160376703;30.0;53.74019724;86.8341774
3.5114731847480654;1.7687559087958218;-0.0397675130009177;0.02717281446521896;30.0;53.740508739999996;86.83451706000001
-1.4130373046221254;1.7925089192170265;-0.0560823901294993;0.025648995928758696;30.0;53.74080388;86.834889
1.5691423614104116;1.5098430513184653;-0.078515346181299;0.02810323420705012;30.0;53.741075769999995;86.83527353
0.3468923325810025;1.511361816147257;0.0010196798205363;0.025121999077632223;30.0;53.74133169;86.83564721
2.082881675658995;1.4333236275216465;-0.0418068726419904;0.025418245288391664;30.0;53.741587589999995;86.83600806999999
-0.3973225747335868;1.35638702207375;-0.0295707147955541;0.025957923231871863;30.0;53.74184393;86.83634377
0.5360109300218187;0.9720759202665837;-0.0040787192821454;0.026700342007561127;30.0;53.742079239999995;86.83661236
0.6462994887498876;0.7921928017245681;-0.0163148771285816;0.025939892179208935;30.0;53.74232568;86.83684344
0.2314938869541147;1.2137026345461068;-0.0050983991026817;0.017707102107516613;30.0;53.742594370000006;86.83703277000001
0.9258645626591524;1.2137110486332567;-0.0101967982053635;0.01826115954680478;30.0;53.742889379999994;86.83718954
0.8218054465586566;1.0391652172181947;-0.003059039461609;0.01637178082746396;30.0;53.74320331;86.83731915000001
-0.4779349919897431;1.0553882510729493;0.0081574385642908;0.014668669064301162;30.0;53.74353404;86.83742715999999
-2.5658830964054467;1.0458119008104596;-0.0418068726419904;0.017587957991916852;30.0;53.743880309999994;86.83751743
0.3475875972174936;1.659614204351012;0.0061180789232181;0.017450797257732225;30.0;53.74423986000001;86.83759282000001
-0.6045914261063089;1.8641590424967058;0.0071377587437544;0.017398087213143627;30.0;53.74460808;86.83766152000001
0.6813680850340356;1.7648195890753642;-0.0071377587437544;0.017625031244449245;30.0;53.74498549;86.83772917
-0.2915206659637187;1.65378006073144;-0.037728153359845;0.017856855263712623;30.0;53.74540347;86.83781435
-4.246989444332454;1.8651423808243333;-0.0081574385642908;0.019186365639791092;30.0;53.745825249999996;86.83791101
-3.4120122754372035;1.7799239795183663;-0.0081574385642908;0.021161188530512697;30.0;53.7462443;86.83803054
-0.4265846114240801;1.8922144888087296;-0.0183542367696543;0.021945895600052636;30.0;53.74665229;86.83816973
-0.605001247078229;1.9477275396312463;0.0010196798205363;0.02051784544751926;30.0;53.74707936;86.83837919999999
1.5946378124818184;1.8669868138706445;-0.0418068726419904;0.024048740180348867;30.0;53.74749441;86.83861505000002
-1.098840217159086;2.0499912639489732;-0.0530233506678902;0.02355953252690646;30.0;53.747897439999996;86.83887728
-3.33583731035988;1.751160473097926;0.0122361578464362;0.02343563504670767;30.0;53.74829267;86.83917267
0.3535826053615476;1.4708034790259739;-0.0224329560517997;0.023228416724647177;30.0;53.748679130000006;86.83950025
-0.4114113011102804;1.6201798768112685;-0.061180789232181;0.02314077928515092;30.0;53.74905913;86.83984953000001
1.5690405236869445;1.6354528997198041;-0.0193739165901906;0.024153058522138306;30.0;53.74941051999999;86.84021372000001
0.6397917797543068;1.464309883029899;-0.0101967982053635;0.023659172170082676;30.0;53.749760849999994;86.84058965
-1.3490912051640416;1.465508274133387;-0.0356887937187723;0.030550005626745314;30.0;53.750107160000006;86.84096668
-2.446554141949771;1.1888000665760496;-0.029060874885286;0.029364152802459992;30.0;53.750456699999994;86.84134182
-1.2114733285068953;1.5639667808827742;0.0081574385642908;0.029754982058169274;30.0;53.75078571;86.84166571
-1.5012313326292446;1.6923585852823018;-0.0132558376669725;0.02868631772526766;30.0;53.75112343999999;86.84198296
-1.16247852927552;1.3556532105119068;0.0509839910268175;0.032063710849178445;30.0;53.75147306;86.84230441999999
-0.3536125328334628;1.2937941008108684;-0.0183542367696543;0.033634023770565666;30.0;53.75181972;86.84262036
-4.071311223033237;1.2929562356033035;0.003059039461609;0.03784467776132043;30.0;53.75216497;86.84294000999999
-3.255630322667437;1.268386169602128;-0.0550627103089629;0.04428067160926598;30.0;53.752509450000005;86.84327425000001
-1.6596995929112983;1.2602898627796546;-0.0571020699500356;0.04220990040262269;30.0;53.75284058;86.84361306
0.2919728635819846;1.4385166988564044;-0.0489446313857448;0.04430375507571856;30.0;53.75316975;86.84396271
-1.3806956723352626;1.7103647028529527;-0.07545630671969;0.035636152365067016;30.0;53.75349645;86.84432525
-1.9141180361158097;1.8010906864996734;-0.095849903130417;0.03443439278222975;30.0;53.7538184;86.84469584
-1.7236407410500894;1.952182939407635;-0.0295707147955541;0.03764154959259891;30.0;53.75417523;86.84512434999999
0.5093286719622896;1.6759108020386235;-0.0846334251045171;0.03791311024712368;30.0;53.75453295;86.84556143
1.4395404362994797;1.685220082419585;0.0081574385642908;0.04497765448749112;30.0;53.75488702;86.84600254
0.7164752279968575;1.8132212694738856;-0.0560823901294993;0.048973419432979004;30.0;53.75524278;86.84645814000001
3.2912234200341084;1.8010449977360292;0.020393596410727;0.0517425414676802;30.0;53.75560279;86.84693079
0.4691611033532933;1.5287883546304482;-0.0632201488732537;0.05158052609133044;30.0;53.75595216000001;86.84740303999999
2.120091679352547;1.2631147217219008;-0.1244009381054349;0.05171518321845941;30.0;53.756293740000004;86.84787518
2.5104285154830355;1.1518846705193857;-0.1172631793616804;0.051063266149210106;30.0;53.7566229;86.8483477
2.927089164063625;1.1111249074096345;-0.1152238197206077;0.046417059195141684;30.0;53.75694251;86.84881579
2.653890092745069;1.02518256670277;-0.0316100744366268;0.04637173908324659;30.0;53.75725383;86.84928583
4.160164209945915;1.0265459379323567;-0.0275313551544814;0.05614109399320515;30.0;53.757513849999995;86.84972248999999
2.852955630587486;0.7479135840444091;-0.0678087080656673;0.05804042160599238;30.0;53.75774615;86.85019031
2.55916592344196;0.7737236707916727;-0.0367084735393086;0.057871982887096;30.0;53.75793661;86.85067517
3.947286436869094;0.8275126390098564;-0.0632201488732537;0.05686692285760529;30.0;53.75808207;86.85115855000001
3.31401347033885;0.9121840610401155;-0.2080146833894157;0.057411812408597544;30.0;53.75818012;86.85161500000001
1.7858669137772651;0.976587862982942;-0.1407158152340165;0.0555330118673807;30.0;53.758247059999995;86.8520557
1.9136107418098207;1.1701189879530276;-0.058121749770572;0.05226915958557038;30.0;53.75828503;86.85248023
3.9086712802113257;1.2716166480153523;-0.0856531049250535;0.052222143191440265;30.0;53.75829603999999;86.85288804000001
4.227179184604943;1.3035217761970357;-0.0367084735393086;0.04861365058025448;30.0;53.75827217;86.85328657
4.40976356946672;1.3091604334627869;-0.0968695829509534;0.04765056404957451;30.0;53.75821697;86.85366657
5.460688427661219;1.2899269618784315;-0.07545630671969;0.030726803107944196;30.0;53.7581349;86.85401970000001
5.206076014783436;1.0800187790126883;-0.1091057407973896;0.02504369990208471;30.0;53.75803607;86.85434071
5.331252436704896;0.6372948350015943;-0.0999286224125624;0.027176374931525072;30.0;53.75793202;86.85464114
4.334630470125084;0.6018282187273867;-0.078515346181299;0.027377975937919234;30.0;53.75782808;86.85493144
3.813444485745358;0.8397941266095358;-0.0489446313857448;0.03125706296453064;30.0;53.75772253;86.85522525
5.4267423725441;0.9263416050835733;-0.0458855919241358;0.03137069453026448;30.0;53.757610680000006;86.855523
4.458474818014803;0.8548305160763743;-0.037728153359845;0.03153066626487391;60.0;53.75748601;86.85583097
4.237769079177859;1.396378482500403;-0.0509839910268175;0.028791989852304377;60.0;53.75735151;86.85614190999999
2.819671485972341;1.6483603192247964;-0.130519017028653;0.03741003781273572;60.0;53.75720922000001;86.85646041999999
3.319313168536283;1.8571327729162863;-0.0520036708473539;0.03644033971994695;60.0;53.757065350000005;86.85679526999999
4.429525625327488;1.8655462238661416;-0.0622004690527174;0.036429876170781084;60.0;53.756925190000004;86.85714919
0.6187232411035473;2.21663836205474;-0.058121749770572;0.0380453170719434;60.0;53.756788730000004;86.85751449
0.5119525358675003;2.482462797376379;0.0214132762312633;0.038240674556374796;60.0;53.756658689999995;86.85789388999999
0.3939123405524287;2.2617102452825018;-0.049454471296013;0.038240674556374796;60.0;53.75653609999999;86.85828586
1.8526204032140932;2.1916251286349984;-0.0520036708473539;0.02949761576039626;60.0;53.75642223;86.85867886999999
-2.259785826247568;2.0385045658944936;-0.0876924645661262;0.03035006181038926;30.0;53.75631926999999;86.85908022999999
-2.671760354276329;1.5223597839389715;-0.0815743856429081;0.030216158355927013;30.0;53.75623017;86.85948521
1.0099867649205254;1.574923154854778;-0.0509839910268175;0.03689936387198728;30.0;53.756151120000006;86.85989767999999
1.778217238692137;1.5732387190817643;-0.0397675130009177;0.02726703621923059;30.0;53.756084169999994;86.86030945
-0.2420301512967416;1.5714306497803265;-0.0285510349750178;0.027281596641560622;90.0;53.75601904;86.86071791999998
0.6368192357967952;1.4834470882822495;-0.0356887937187723;0.026927614227112585;90.0;53.755946990000005;86.86111690999999
-1.2605880056862575;1.3491686673965513;-0.113184460079535;0.02602259838946674;90.0;53.75586559;86.86150398999999
0.465725881802179;1.3080294643318557;-0.0805547058223717;0.026945841816167413;90.0;53.755772609999994;86.86187693000001
0.3290404426530235;1.277616254436551;-0.0774956663607627;0.02868203843576287;90.0;53.75566922;86.86223178
1.0641461864808233;1.1103047211825128;-0.0632201488732537;0.029636081769900027;90.0;53.75555711;86.86257535
-1.2461795334267385;1.1110012940684495;-0.0530233506678902;0.027323910116606447;90.0;53.75543016;86.86289384
-2.480504019683978;1.4008803451740122;-0.0295707147955541;0.027864822875429626;90.0;53.75529073;86.86316657
-0.7839290971938501;1.3800812872731993;-0.0897318242071989;0.03323315063819813;90.0;53.755139559999996;86.86339428
0.4514925595528343;1.527234631920601;-0.0968695829509534;0.03587138344514505;90.0;53.754980769999996;86.86357597
-0.457373061686552;1.7693738664793437;-0.0489446313857448;0.0358705782856917;90.0;53.75481550999999;86.86371023000001
2.468261189838406;1.8349496377387047;-0.113184460079535;0.0400395141798903;90.0;53.75464644;86.86379715999999
-0.9998493725118712;1.781317672467644;-0.1427551748750892;0.043638907843252236;90.0;53.75447768;86.86384088
1.9841165292741123;1.716949539081351;-0.0367084735393086;0.048638715563507295;90.0;53.75430914;86.86383617999999
2.8444246491052767;1.5910962457827555;-0.0723972672580809;0.04928112560930923;90.0;53.75414168;86.86379159999998
1.9625012566079596;1.646273484936011;-0.133578056490262;0.06899381362687831;90.0;53.75397700999999;86.86371909
-0.5868905533107314;1.5037714691181818;-0.0214132762312633;0.07636215086829101;90.0;53.75382040000001;86.8636316
3.64223326239942;1.5119844832758147;0.003059039461609;0.07763239750388617;90.0;53.75366932000001;86.86355476
1.240572127901295;1.1873203827287682;-0.0438462322830631;0.06600723871158726;90.0;53.753522350000004;86.86349738999999
2.951473068338518;1.3077569125734587;0.0876924645661262;0.07484541338474397;90.0;53.75337918;86.8634643
1.2081303950496167;2.0951555976174454;0.0509839910268175;0.07934540751442506;30.0;53.75323608;86.86344408
2.5985606727065207;2.271629451710015;0.0560823901294993;0.07934540751442506;30.0;53.75309858000001;86.86341922
2.346757369821891;2.225340589659659;-0.0305903946160905;0.08385465681602321;30.0;53.75297921;86.86338433
0.2891576400902615;2.0174034932677913;-0.1259304578362394;0.08438737853287948;30.0;53.75288481;86.86335905
-3.5538561308192778;2.080159503269658;-0.1172631793616804;0.0844113328644901;30.0;53.75280747000001;86.86334571
-1.7729987192059886;2.004855358635452;-0.133578056490262;0.07378348270301638;30.0;53.75273989;86.86334981
0.3471189638355664;2.0402560710707953;-0.1142041399000713;0.06633374489725472;30.0;53.75267962;86.86336378
0.1170406458345541;1.9189473875594243;0.0122361578464362;0.054685886041766836;30.0;53.752628630000004;86.86337167
2.268355759018827;1.9189473875594243;-0.0458855919241358;0.054685886041766836;30.0;53.752628630000004;86.86337167
-1.3873045124562824;1.9189473875594243;-0.0040787192821454;0.054685886041766836;30.0;53.752628630000004;86.86337167
-1.465353404474543;1.9189473875594243;-0.0244723156928724;0.054685886041766836;30.0;53.752628630000004;86.86337167
-2.2281972877957714;1.9189473875594243;-0.0418068726419903;0.054685886041766836;30.0;53.752628630000004;86.86337167
