acc_X;acc_X_std;acc_Z;acc_Z_std;class;lat;lon
-1.7730411522206688;2.353252903472509;-0.0402773529111858;0.04376567240478508;30.0;53.727334580000004;86.85419794
-3.027739289399076;2.353252903472509;-0.0061180789232181;0.04376567240478508;30.0;53.727334580000004;86.85419794
0.454700738583098;2.353252903472509;-0.0091771183848271;0.04376567240478508;30.0;53.727334580000004;86.85419794
0.9639698124999796;2.353252903472509;-0.0530233506678902;0.04376567240478508;30.0;53.727334580000004;86.85419794
1.9949173226704404;2.353252903472509;-0.0152951973080452;0.04376567240478508;30.0;53.727334580000004;86.85419794
1.8067845710834096;2.353252903472509;-0.1407158152340165;0.04376567240478508;30.0;53.727334580000004;86.85419794
2.272655305007506;2.329001265206879;-0.0632201488732537;0.05088425517733001;30.0;53.72719309;86.85414605000001
-2.9392254402108757;2.176076730666029;-0.0247272356480065;0.048293327928005524;30.0;53.72705982;86.8540563
-1.9625441231440588;2.182476381164457;-0.020393596410727;0.04687817867479169;30.0;53.726940330000005;86.85393169
-3.90246116120436;2.1633511536502232;-0.0999286224125624;0.04776529284931397;30.0;53.72683733;86.85377493000001
-1.210797766036919;1.9608770286586985;-0.130519017028653;0.04372526662536407;30.0;53.72676054;86.85359574
-1.092306060223339;2.138634082580407;-0.0851432650147853;0.040569442783687855;30.0;53.72671718;86.85339366000001
0.5972885543126647;1.8680800156238349;-0.0214132762312633;0.04118225541417361;30.0;53.726704600000005;86.85317628
-1.6291584616036392;1.7541627366979655;-0.0989089425920261;0.041751050044513134;30.0;53.72672057999999;86.85294394
-0.8308198912566113;1.7989586420120136;-0.0774956663607627;0.04008349139735319;30.0;53.726770349999995;86.85269931
2.843707780693752;1.4621207421395714;-0.0193739165901906;0.03826615627460299;30.0;53.72687742999999;86.85245823
-0.2856656698980217;1.385985017119935;-0.0418068726419904;0.029896313686217126;30.0;53.72701137;86.85222096999999
-0.2635792917065326;1.3047838648891352;-0.0193739165901906;0.028006102299998285;30.0;53.72716577;86.85199392999999
1.1851379601162026;1.4781424858970353;-0.0392576730906495;0.0258654649686888;30.0;53.727333;86.85178228
1.8356635490828972;1.4231947924824235;-0.0744366268991536;0.02195201437181369;30.0;53.72750788;86.85158596
0.2241758420492189;1.7748292548383637;-0.0703579076170082;0.020640297145727706;30.0;53.727679550000005;86.85139923
0.6684643444720629;1.9910124558872266;-0.058121749770572;0.03738706271585539;30.0;53.727848519999995;86.85122004
-1.7874581095430075;2.085503839328117;-0.0530233506678902;0.04133251046293248;30.0;53.728017550000004;86.85104091
1.985853951017364;2.1181254010428736;-0.0723972672580809;0.04163189666835828;30.0;53.728186429999994;86.85086675
4.403025747062502;2.151104728477003;-0.0642398286937901;0.04164490232825966;30.0;53.72835669999999;86.85069653999999
4.345904467941416;2.174470948925305;0.0499643112062812;0.039731909947325436;30.0;53.72853676;86.85052844
3.986649591473723;2.0995372252927873;0.0112164780258998;0.037815475305994925;30.0;53.728714460000006;86.85036822
4.307445865845901;2.1212473399393326;-0.0142755174875089;0.0372154420942678;30.0;53.72889065;86.85021673
0.6451553234208096;1.6962364422368186;-0.0418068726419904;0.03861941502094622;30.0;53.72906349;86.85007725
1.0503931765209338;1.6922191432512923;-0.0387478331803813;0.036222003721040875;30.0;53.729243139999994;86.84993946
1.393367803783187;1.5594435912159308;-0.037728153359845;0.03435176060061318;30.0;53.729421890000005;86.84981101000001
0.4026110428155546;1.4131001393348561;-0.0489446313857448;0.02362686135343159;30.0;53.729600149999996;86.84969487000001
1.026793548564767;1.2613388226449171;-0.0693382277964719;0.017683925475997366;30.0;53.72977465;86.84959033
2.574181035971133;1.0419211975331266;-0.040787192821454;0.013495089932412992;30.0;53.7299459;86.84949789999999
2.9468277349397107;1.1239906634259418;-0.0387478331803813;0.016457293951036404;30.0;53.73011368;86.8494148
3.027349520012479;1.0936056168707209;-0.0683185479759355;0.019444227414627195;30.0;53.73026154;86.84935018
2.3417473902286536;1.693288874577908;-0.0693382277964719;0.01966577070839453;30.0;53.73039867;86.84929787
3.009095882880098;1.5015615850941746;-0.0499643112062812;0.023487153971258903;30.0;53.73052749;86.84925517
3.85759385509203;1.80660158315001;-0.0825940654634444;0.02461593583916019;30.0;53.73065145;86.84921785
3.210975584282955;2.344261240120186;-0.0933007035790761;0.02180098083945416;30.0;53.73076244;86.84919572
6.720834347202639;2.5766757912920344;-0.0887121443866625;0.019360868046271417;30.0;53.73087206;86.8491799
4.474142457413997;2.6072025794725704;-0.1111451004384623;0.023336649887880593;30.0;53.73097955000001;86.84917219
7.645203554685122;2.402804351534887;-0.0948302233098807;0.029692016912141607;30.0;53.731082549999996;86.84917535000001
9.11304635011683;2.131710721226636;-0.0713775874375446;0.03433632904263196;30.0;53.731182190000006;86.84918283
8.689270720331645;1.8708955756195702;-0.0530233506678902;0.03984300948984389;30.0;53.73127831000001;86.84919703
8.182279352821721;1.4566065658114586;-0.0367084735393086;0.0407317809020544;30.0;53.73137384;86.84921576
8.07160006741934;1.714936856781765;-0.0173345569491179;0.042018287792311475;30.0;53.73147632;86.84923376
7.690665896047844;1.6516393376962075;-0.0132558376669725;0.033583966686282295;30.0;53.73158859;86.84924875
7.067663133350758;1.7876855976150978;0.0020393596410727;0.02525660900102558;30.0;53.73171257;86.84925753
5.335904834031989;1.6560761030898;-0.0061180789232181;0.020307307563222195;30.0;53.73184567999999;86.84925496
4.429738924046586;1.493317375833202;0.0101967982053635;0.016034895217313314;30.0;53.73198575;86.84923631
4.870838475757923;1.2987792394587752;-0.026511675333945;0.01550747928090418;30.0;53.732127379999994;86.84919873999999
4.806630987236748;1.1718478811361162;-0.0101967982053635;0.016911526364433008;30.0;53.732269859999995;86.84914153999999
5.183628751394273;0.9713629067773929;0.0101967982053635;0.017432250895427936;30.0;53.73241535000001;86.84904638999998
5.105089267532289;0.827166530281852;0.0081574385642908;0.017327557733382872;30.0;53.7325519;86.84892438
6.071849681985452;0.8537859926476355;0.0244723156928724;0.01761847528854439;30.0;53.7326785;86.84878218
7.316278851440387;0.7705532897150177;-0.0275313551544814;0.01734088713858757;30.0;53.732794309999996;86.84861639
5.992688406292443;0.7146003119474897;-0.0193739165901906;0.016109650378816304;30.0;53.732894280000004;86.8484322
5.487740407590401;0.7611091950286843;-0.0050983991026817;0.016562256709524235;30.0;53.732976789999995;86.84823311
6.156828085363002;0.714883734856069;-0.0142755174875089;0.015510831323346725;30.0;53.733043599999995;86.84802088
6.084888111395783;0.6153830726883741;-0.020393596410727;0.014589698535967293;30.0;53.73309428;86.84780020000001
5.617554222421084;0.7526791715570791;-0.003059039461609;0.008463956753113913;30.0;53.73313528999999;86.84756985
7.255132251266237;0.8155522097403025;-0.0183542367696543;0.007227029433933922;30.0;53.73316787;86.84733107000001
6.563819083864576;1.0861573073939255;-0.0112164780258998;0.00652116935059423;30.0;53.73318784000001;86.8470976
6.030405484725332;1.1045136753505562;-0.0020393596410727;0.006424117746246198;30.0;53.73320595;86.84685459
4.892388236861513;1.1673266046384785;-0.0081574385642908;0.008515157537289491;30.0;53.7332216;86.84659888
4.367451472015526;1.1501204465425372;-0.003059039461609;0.011665323334072969;30.0;53.73323414;86.8463375
3.554024385675268;1.1859685131344988;-0.0091771183848271;0.014249597325431596;30.0;53.73324823;86.84605975
4.967103521832303;0.9593291070516426;-0.0066279188334862;0.015303126096014795;30.0;53.73326151;86.84577607
4.109125741979351;0.8026126725026101;-0.0275313551544814;0.01649480729716991;30.0;53.73327349;86.84547829
4.734079457514394;0.7783144103169837;-0.0372183134495767;0.01763756272322741;30.0;53.733284100000006;86.84517658
6.185196621632306;0.8528890697788282;0.0142755174875089;0.01737025896145765;30.0;53.73329219;86.84486723
5.197439151714433;0.8909052311835686;-0.0295707147955541;0.01654594380935806;30.0;53.73329758;86.84453726
4.718941645504424;0.7588281533831938;-0.0316100744366268;0.01670705962911713;30.0;53.733301000000004;86.8441874
5.870785689942585;0.8492560394143366;-0.0392576730906494;0.016137236336978913;30.0;53.73330286;86.84383854000001
5.959550437423364;1.012114583418633;-0.0142755174875089;0.017883118864948564;30.0;53.73330207;86.84348702999999
6.0844708993694026;1.036651569032595;-0.023452635872336;0.018993313980424417;30.0;53.73330314;86.84312202
4.355502230309874;1.0082290582922941;-0.0361986336290404;0.011384648962320077;30.0;53.73330377;86.84275913
4.008378425120669;0.9962756528585217;-0.0372183134495768;0.012777003629957893;30.0;53.7333073;86.84238378
3.161565179368606;0.999815995166819;-0.0504741511165493;0.013750352868712682;30.0;53.73331723;86.84201483
4.279778955085615;0.9508260552341419;-0.0499643112062812;0.01479424274168968;30.0;53.733337430000006;86.84164335
3.750502403445178;0.8379884333247757;-0.0254919955134087;0.014693162029177562;30.0;53.73336991;86.84126623
4.829872651286552;0.6402827752330615;-0.0152951973080452;0.015710737033815543;30.0;53.73341563;86.84090491
4.96655140387942;0.6476257447585854;-0.0163148771285816;0.015762035213863466;30.0;53.733474150000006;86.84056407
5.412199449244464;0.6531051934912533;-0.0101967982053635;0.01692185552689139;30.0;53.73354644;86.84023187999999
4.552741809658761;0.4899526133839959;-0.0152951973080452;0.013383769710205058;30.0;53.733631439999996;86.8399124
4.221241798209935;0.5083266972240571;-0.0101967982053635;0.006962421469872172;30.0;53.73372359;86.83961287
4.046118874334321;0.48441994525818666;-0.0142755174875089;0.0053784821576023855;30.0;53.733816260000005;86.83931642
4.797610933373495;0.5387332597327879;0.0010196798205363;0.008982447454081862;30.0;53.733906680000004;86.83902028
4.724336209598601;0.8252883436093525;-0.0122361578464362;0.011988648165783478;30.0;53.733990029999994;86.83870683
4.06076351044527;0.74584834844986;-0.0061180789232181;0.012063099109363014;30.0;53.734064790000005;86.83837711000001
3.899076619511205;0.7808657136900011;-0.0071377587437544;0.023490535368441853;30.0;53.734131760000004;86.8380268
3.7128008582920393;1.2899463834760827;0.0132558376669725;0.03342120626633278;30.0;53.734208890000005;86.83763033
2.3187717939805;1.2993680736343738;-0.0336494340776996;0.05005279009227491;30.0;53.73427755;86.83722538999999
3.2352276423122985;1.1947506227429705;-0.0050983991026817;0.05123669852772043;30.0;53.73432168000001;86.83680616
2.904270450461988;1.153612585384846;-0.0723972672580809;0.0538191779011984;30.0;53.73433723000001;86.83637626999999
0.46263178097415;1.0726856209039262;0.0601611094116447;0.057276832379516494;30.0;53.7343288;86.83594032
2.4894906444083595;0.9801245529816514;0.1111451004384623;0.05734625079009693;30.0;53.73429111;86.83548791
3.6443697578314738;0.9889936011799584;-0.0295707147955541;0.058196637060669985;30.0;53.73422945;86.83503456999999
1.516219961454508;0.999691405283516;-0.0509839910268175;0.059519087585742245;30.0;53.73414458;86.83459642
2.3944206987887564;0.9431293709348645;-0.0637299887835219;0.06326252995771466;30.0;53.73403035;86.83419035
2.5677573989114544;1.0005806245649467;-0.0168247170388498;0.05908856623508338;30.0;53.7338789;86.83383666
1.0077835737615892;0.8996294864790275;0.0285510349750178;0.05892567262355184;30.0;53.73366373;86.83355749
1.780099643157352;0.9157110860961746;0.0448659121035994;0.04445149129052645;30.0;53.733411860000004;86.83331074
2.5580931392480517;0.8466671725408456;0.0693382277964719;0.04396542813673992;30.0;53.73313763;86.83310307
3.407646809161275;0.8570410075651761;-0.0367084735393086;0.04281845900077772;30.0;53.73281243;86.83291867
3.6911787305048303;0.8618897548636552;-0.0458855919241358;0.03911819413943261;30.0;53.73246119;86.83275431
1.9668965930850275;0.9718338357541065;-0.0081574385642908;0.040065473785223724;30.0;53.73210326000001;86.83262934000001
3.051991275812011;0.9762969498434356;-0.0091771183848271;0.038205727561940024;30.0;53.73173537;86.83253537
1.4294899280769275;1.4478071569384756;-0.0387478331803813;0.03573828670606457;30.0;53.731322969999994;86.83245577
2.095681696900662;1.6313476250574561;-0.0305903946160905;0.021555840074638673;30.0;53.73090433;86.83237761000001
0.8927878973673145;1.6527898249773187;-0.0336494340776996;0.021140774168168334;30.0;53.73048497;86.83229616999999
0.9750450278087632;1.4458138891573171;-0.0142755174875089;0.021093177926028654;30.0;53.73007269;86.83220645
-1.180731721809794;1.507608633953145;0.0275313551544814;0.02119644055382933;30.0;53.729657859999996;86.83210650000001
-0.6764426214381523;1.2190408434684044;-0.0280411950647496;0.02116644255279696;30.0;53.72920601;86.83198489
-0.8516661961099825;1.114509675179139;-0.0101967982053635;0.024235665563527277;30.0;53.72879041;86.83184577
-0.4190452526463147;0.8016698070987717;0.0132558376669725;0.023145271986117388;30.0;53.728383789999995;86.83169771
-1.3376106952632163;0.7073371163860291;-0.0050983991026817;0.020529173869002475;30.0;53.72797601;86.83153825
-0.8068800557945488;0.627624446230866;-0.0112164780258998;0.02133652782752694;30.0;53.72756787000001;86.83136563000001
0.0572586688356003;0.7311994729831227;0.0367084735393086;0.024025910879856904;30.0;53.72719388;86.83119131999999
-0.6793087146750878;0.95883410284499;0.0132558376669725;0.022124676379952798;30.0;53.72681945000001;86.83100888999999
-1.351796552314717;1.0361377168797505;-0.0101967982053635;0.025785111108130462;30.0;53.726436220000004;86.83082534
-2.255966923317477;1.0668326858160375;0.0280411950647496;0.02558360210114076;30.0;53.726051340000005;86.83065805999999
-2.1382795752647303;1.3904289412063533;-0.0397675130009177;0.02797447601046598;30.0;53.72566711;86.83051191000001
0.916884846866543;1.6208842485638568;0.0035688793718772;0.030578165455290362;30.0;53.72531196999999;86.83039484999999
0.3519282878930932;1.775359717486051;-0.040787192821454;0.027423142449455366;30.0;53.724947900000004;86.83031238
-1.6961331609327512;1.7831796667806763;-0.0152951973080452;0.026532855732864926;30.0;53.724576320000004;86.83025312
2.017916399405708;1.8781925640173283;-0.0397675130009177;0.02760788214065783;30.0;53.724201400000005;86.83022124
2.117927695817101;1.682150215122291;0.032119914346895;0.026000169226794413;30.0;53.723788160000005;86.83022016
2.016607559959582;1.375079652289533;0.0040787192821454;0.02737164562362197;30.0;53.72337691;86.83023131
0.8559217930349142;1.445089391968746;-0.0081574385642908;0.03218992978438619;30.0;53.722967100000005;86.83024646
2.696971915554467;1.3926192840993097;-0.0326297542571632;0.03188486062568289;30.0;53.72257098;86.83024458
2.315895038027288;0.6117966904242875;-0.0469052717446721;0.03303445264668262;30.0;53.72218474;86.8302065
2.822162845468689;0.729720479526437;-0.0520036708473539;0.03669592209323845;30.0;53.721808620000004;86.83013502
3.02119736653654;0.7846999838177732;-0.0815743856429081;0.03468593786545754;30.0;53.72144687;86.83004207
2.569689878149316;0.8375766803705247;-0.0285510349750178;0.0347032530313099;30.0;53.721095690000006;86.82993409
2.558680048405437;0.7721606116661407;0.0020393596410727;0.03731727861068629;30.0;53.72072197;86.82982405
3.626599719466824;1.0655213845687126;0.0295707147955541;0.042259137233797865;30.0;53.7203566;86.82971212
3.486737014846632;1.0239916100955617;0.0173345569491179;0.041387362337692815;30.0;53.720036830000005;86.82958947
3.790141982429716;1.1170328756475398;-0.0489446313857448;0.03910929633629493;30.0;53.71968031;86.82948127
4.855951399795559;1.9405387354542898;0.020393596410727;0.030307541996258344;30.0;53.71932778;86.82939497999999
5.609140267679999;2.4938508405043613;0.0428265524625267;0.02965089123780724;30.0;53.718975490000005;86.82933709
2.7192020514135127;3.0878809203226876;-0.0346691138982359;0.029611903053480007;30.0;53.718620939999994;86.8293179
1.9790301035218083;3.3733425003403634;-0.0122361578464362;0.029141562062245288;30.0;53.718262870000004;86.82933614999999
-1.571453142446058;3.5442919131023145;-0.0193739165901906;0.02823795186503611;30.0;53.71790178;86.82937954
-1.966559818542053;3.5140605990167724;-0.020393596410727;0.03285275530252432;30.0;53.717544950000004;86.82944511
-3.255294346164385;3.1266169427343558;-0.0020393596410727;0.03757458262525833;30.0;53.71719609;86.82954169
-2.952838054110492;2.5294925816939164;0.0254919955134087;0.033572268791536;30.0;53.71685483;86.82964587000001
-3.207269353959242;1.9477199596839876;-0.0050983991026817;0.03503440745448878;30.0;53.716515830000006;86.82977278999999
-2.9840569673911586;1.1048234144537823;-0.0723972672580809;0.05168669292637769;30.0;53.71622275;86.82990722999999
-2.70358379848709;0.9613736579395148;-0.0764759865402263;0.053165028699161905;30.0;53.71593579;86.83004267
-5.728660048969631;0.9424958049817503;0.0163148771285816;0.06103713368742769;30.0;53.71563684;86.83019171999999
-3.5204406222693967;1.0721645301747058;-0.0540430304884266;0.06384569671214266;30.0;53.71536204;86.83035212
-3.3348190576953107;1.1442999504686364;-0.1437748546956255;0.06415004941964605;30.0;53.71512478;86.83051934
-3.3728938674735547;1.2443049567801465;-0.0800448659121036;0.07144474546033944;30.0;53.714930200000005;86.83068827999999
-4.809195045125739;2.131751369377745;0.0540430304884266;0.07216009043238449;30.0;53.714776979999996;86.8308525
-1.9659979106624212;2.6230960423376217;0.0316100744366268;0.06954338062101213;30.0;53.71469673;86.83098729
-2.130673856453369;2.324820612071055;0.0285510349750178;0.07024700597451299;30.0;53.714658899999996;86.83111842
-1.837633200613911;2.3672826408683183;0.0703579076170082;0.06886427713370402;30.0;53.714666720000004;86.83123888
2.2138494712461307;2.266381040391792;0.0469052717446721;0.050660091882620925;30.0;53.71471976;86.83134824
2.1128087411441365;2.202443315410063;-0.0438462322830631;0.039978876214717726;30.0;53.714823079999995;86.83145412
-1.311022135124173;2.002123151555056;-0.0509839910268175;0.03992321050532683;30.0;53.71499145;86.83154313
0.7762333737368471;1.90217412267157;-0.003059039461609;0.042015297652417155;30.0;53.715189269999996;86.83160783000001
-1.4793896283053918;1.872081263643242;0.0316100744366268;0.041084366571318136;30.0;53.71540041000001;86.83165001
0.8174679789626091;1.6089236968232217;0.0193739165901906;0.03581013973231918;30.0;53.7156206;86.83167820000001
3.1243630776093863;1.6624652413744876;-0.0244723156928724;0.03327935292603264;30.0;53.71585022000001;86.83169278
1.2669591596086542;1.711763539229274;-0.0392576730906495;0.032091757403683814;30.0;53.71608631;86.83170359
3.179829755931832;1.6282036296065014;0.0005098399102681;0.02894905151277718;30.0;53.71634098999999;86.83169715
1.182104798322907;1.586961915187852;-0.0509839910268175;0.03170058306692604;30.0;53.716607950000004;86.83167227
2.820786049940852;1.1814049216975246;0.0316100744366268;0.02846390553556209;30.0;53.71687782;86.83163494
2.7607058302303638;1.1099833832621273;-0.0295707147955541;0.03586316997056991;30.0;53.71714813;86.83158781
3.996045831126098;1.086167675041747;-0.0091771183848271;0.04410159429370734;30.0;53.717419899999996;86.83153446
2.2511657244029406;1.2731095976043731;-0.0489446313857448;0.04668830348316678;30.0;53.717690340000004;86.83147466
0.4672313276455727;1.6632657514386486;0.003059039461609;0.04699388663559065;60.0;53.717961630000005;86.83141315
1.515450117267999;1.655738346617345;0.0601611094116447;0.047812757910805435;60.0;53.71823395;86.83135010999999
2.7979239825601145;1.7613797652542713;0.0734169470786173;0.04655126579978455;60.0;53.7185016;86.83129776
4.68403447500653;1.9851328502848622;-0.061180789232181;0.047729324590425046;60.0;53.71876206999999;86.83125359
-0.9556013091010248;1.947571891795649;-0.0209034363209952;0.04771358893619541;60.0;53.718996759999996;86.83123739999999
1.3050332417642136;2.518796684134552;-0.058121749770572;0.04734168536643284;60.0;53.719209279999994;86.83125024
0.0561429397956313;2.8138672320294265;-0.0336494340776996;0.062358166288934334;60.0;53.71940463;86.83128687
-1.2626329076252003;3.393913697072472;-0.0489446313857448;0.0555548511225401;60.0;53.71957870999999;86.83134831000001
-1.3042992196251073;3.471961703244809;-0.0193739165901906;0.04311318746811291;60.0;53.71973293999999;86.83143854
-4.440734309622594;2.7780036268251367;-0.0438462322830631;0.04295721878144852;60.0;53.719870590000006;86.83155827
-3.7056990564183527;2.7342550255891385;-0.1468338941572346;0.042070083115994576;60.0;53.719992309999995;86.83171327
-6.587324426397855;2.2431527763239445;-0.0846334251045171;0.04471437794486138;60.0;53.72009776;86.83190064
-6.112867045311116;1.8657748418866462;0.0122361578464362;0.05013039788947346;60.0;53.7201907;86.83210878
-5.5651576271137335;1.5729148804865332;-0.0469052717446721;0.05483153821560345;60.0;53.720276549999994;86.83233799
-4.501546780811749;1.2423023605370647;-0.0672988681553992;0.05777875738704449;60.0;53.72037345;86.83260897
-2.8509847784846225;1.3274050581476913;-0.0050983991026817;0.06114310612261328;60.0;53.72047123;86.83288851
-5.153065721169276;1.2805607842936497;0.023452635872336;0.04354402959345327;60.0;53.72057323;86.83317995
-4.928126988135974;1.1631862860162072;0.0285510349750178;0.03526382474924151;60.0;53.72068105999999;86.83346954
-3.0226552174657413;1.1145575056010415;0.023452635872336;0.03507001312205351;60.0;53.720798519999995;86.83376364
-6.218037342411033;1.2655446996052826;0.0356887937187723;0.031629358867987234;60.0;53.72091983;86.83405647
-5.653801377254018;1.3163787039201797;0.0152951973080452;0.022471049048535034;60.0;53.72104504;86.83433784
-4.771296266255897;1.6237303765682591;-0.0295707147955541;0.023880753001593282;60.0;53.721184689999994;86.83463108999999
-3.859780911622528;1.8599563309361808;-0.0114713979810339;0.03299794157909124;60.0;53.72133028999999;86.83491493
-2.401126157854246;2.02827886623299;-0.0050983991026817;0.03365656807609854;60.0;53.72148343;86.83519607
-5.477959636661992;2.247366199272009;-0.0193739165901906;0.03790839637337832;60.0;53.721632150000005;86.83543695
-1.126869346451797;2.1012933251088266;-0.0214132762312633;0.03422643623089235;60.0;53.72178362;86.83566522
-1.1271846222627702;1.965574878993108;-0.0734169470786173;0.033749290496590416;60.0;53.72193599;86.83588159000001
-0.9190834328458406;2.0875770484295066;-0.0530233506678902;0.033898124213454776;60.0;53.72208594;86.83609041999999
-6.604697412177393;2.0997939447826504;0.0509839910268175;0.04362513945425408;60.0;53.7222315;86.83628206
-2.670980380689527;2.750588129189866;-0.0091771183848271;0.04367979024179099;60.0;53.72237373;86.83646013
-2.5732468173175547;2.4729008952979306;0.0101967982053635;0.04595238898200102;60.0;53.722511409999996;86.83662853
-0.1138503768654792;3.0852496969460197;-0.0326297542571632;0.047502927466181864;60.0;53.722628025000006;86.836757945
-1.071211778322734;3.3647751449048227;-0.1040073416947078;0.04415853329508053;60.0;53.72273708499999;86.836874685
3.208915563325569;3.3583046630837425;-0.0040787192821454;0.043250133584328956;60.0;53.722839355;86.836969275
-0.1153780800611085;2.48698610817046;0.0193739165901906;0.04085172149859715;60.0;53.722926144999995;86.83703302500001
4.505718100559747;2.2774453950901523;0.0163148771285815;0.041656863949146236;60.0;53.723000485;86.83706896499999
3.560972047685205;1.9651098978652757;0.0152951973080453;0.04417273205853109;60.0;53.723062334999995;86.83708729499999
0.0570328463238203;1.9249706590845237;0.0356887937187723;0.045622434984919344;60.0;53.72311091499999;86.837100035
0.4959263045829117;1.7318478426389892;-0.040787192821454;0.036099251959715487;60.0;53.723140445;86.837111645
-0.7451045069387128;1.7318478426389892;-0.0351789538085041;0.036099251959715487;60.0;53.723140445;86.837111645
1.4696469271764816;1.7318478426389892;-0.0670439482002651;0.036099251959715487;60.0;53.723140445;86.837111645
1.8409780297209275;1.7318478426389892;-0.0571020699500356;0.036099251959715487;60.0;53.723140445;86.837111645
1.6239850908813935;1.7318478426389892;-0.0351789538085041;0.036099251959715487;60.0;53.723140445;86.837111645
-1.9214106249070495;1.6941593360638614;-0.0866727847455898;0.04397331049478893;60.0;53.727497930000006;86.85416417
-2.2286121525675213;1.6941593360638614;0.0387478331803813;0.04397331049478893;60.0;53.727497930000006;86.85416417
-0.6645309435044543;1.6941593360638614;-0.0356887937187723;0.04397331049478893;60.0;53.727497930000006;86.85416417
0.7873733723130082;1.6941593360638614;-0.07545630671969;0.04397331049478893;60.0;53.727497930000006;86.85416417
1.0650599735094508;1.6941593360638614;-0.1029876618741715;0.04397331049478893;60.0;53.727497930000006;86.85416417
1.0697930828970594;1.6941593360638614;-0.0723972672580809;0.04397331049478893;60.0;53.727497930000006;86.85416417
3.163563359819673;1.9171024071997869;-0.0040787192821454;0.04494617871388343;60.0;53.72738143;86.85419614999999
1.7904689073537008;2.04178188380785;-0.037728153359845;0.043508463290649384;60.0;53.72725418;86.85418922
1.1094225605967152;2.0286425272505997;-0.0479249515652085;0.04370821336397206;60.0;53.72712444;86.8541414
-0.7481051729016223;2.2180992070812917;-0.0020393596410727;0.05307368436280729;60.0;53.726996510000006;86.85404675
-3.197937890813435;2.226338471683913;-0.0948302233098807;0.05230959135751189;60.0;53.726874710000004;86.85390447
-3.021825562649431;2.1972873066539256;-0.1366370959518711;0.052354626036625815;60.0;53.72677102;86.85372654
-0.2807912773702076;1.963097836995404;-0.0948302233098807;0.0515211665809624;60.0;53.726709099999994;86.85351613999998
-2.8117879237308627;1.8065868252992812;-0.1616192515550117;0.050278964517066795;60.0;53.726681510000006;86.85328118999999
1.1910455533342013;1.7061875432882851;-0.061180789232181;0.050278964517066795;60.0;53.726693260000005;86.85303182
0.4779160271900017;1.8605125650447267;-0.0642398286937901;0.04530106041592937;30.0;53.72674060000001;86.85276939999999
1.5106561035500277;1.6415500657794448;-0.0101967982053635;0.04490841082144132;30.0;53.726844070000006;86.85251959
-0.7568979415238215;1.5634745466912987;-0.0642398286937901;0.03955345048373672;30.0;53.72698059;86.85226954999999
-0.2943848328234621;1.5503243361172685;-0.0479249515652085;0.03859581287180563;30.0;53.72714157;86.85202860999999
1.5484389131529297;1.6399450732775285;-0.0418068726419904;0.017695354369761943;30.0;53.727320580000004;86.85180313999999
0.6776520151718658;1.6193368077288504;-0.0734169470786173;0.01786591046473253;30.0;53.72751098;86.85159417999999
2.878105623148853;2.1079809842573276;-0.0601611094116447;0.022279219795539096;30.0;53.72770078;86.85138974
0.0593491523978245;2.6014189346255727;-0.0530233506678902;0.023287030533239047;30.0;53.72788490000001;86.85119241999999
-3.1870406431716085;2.6906209379054857;-0.0601611094116447;0.02410224400580728;30.0;53.72806563;86.85100451000001
0.6075005100516733;2.708060146559292;-0.0642398286937901;0.02419242754468127;30.0;53.72824137;86.85082441
4.608147938972799;2.7143186334958553;-0.0091771183848271;0.028661892025070308;30.0;53.72841619;86.85064594999999
5.573546714242976;2.6675618834625117;-0.0050983991026817;0.027358558332510833;30.0;53.72859559;86.85046951000001
4.437150357560651;2.667027955879314;-0.0193739165901906;0.027588783380685246;30.0;53.72878023;86.85029831
4.321219704154033;2.627568384406473;-0.0346691138982359;0.030782585890800598;30.0;53.728998790000006;86.85012775
1.330863123657206;1.7047867595177522;-0.0907515040277353;0.031073012577426683;30.0;53.72922793;86.84996521000001
1.9920448804922648;1.4892197463035766;-0.0326297542571632;0.03127479893728282;30.0;53.72946891;86.84981707
1.530312153590948;1.5328350336802874;-0.0632201488732537;0.028242042780345335;30.0;53.72972454999999;86.84968871
4.143239139842027;1.743728754135863;-0.0866727847455898;0.02334648687818145;30.0;53.729989769999996;86.84958017
3.845058893743396;1.9851898865143718;-0.0652595085143265;0.01897931900114031;30.0;53.73025243000001;86.84948699
4.820978019028968;2.241957837585852;-0.0672988681553992;0.018210478000200783;30.0;53.730510200000005;86.84941196000001
5.112925739995026;2.063195085155332;-0.0520036708473539;0.01990770890705194;30.0;53.73076109;86.84935053
6.849514131848917;1.7892189769718634;-0.0693382277964719;0.02410344228184351;30.0;53.73101766;86.84930758
6.845325111750765;1.2439887202125055;-0.0601611094116447;0.023895488261272982;30.0;53.73126695999999;86.84927784
7.357747368806508;1.194781903815795;-0.0397675130009177;0.020551882244713472;30.0;53.73147965;86.84926525
6.67207311256295;1.0212830898176006;-0.0193739165901906;0.02197614386598033;30.0;53.731682;86.84924488
5.325078997348779;0.9622687024572908;-0.0081574385642908;0.02556943022047894;30.0;53.73187302;86.84921574
4.924847201436979;0.9275970439794008;-0.0469052717446721;0.028079844164384644;30.0;53.73205151;86.84916895
4.574423928907091;1.0628188585247045;-0.0540430304884266;0.02475399798099283;30.0;53.73221654;86.84910614
5.513877069426855;1.0762870394597157;-0.0152951973080452;0.021877684092385788;30.0;53.7323757;86.84902466000001
6.017771773694164;0.9913484230126342;0.0086672784745589;0.021175173627162182;30.0;53.73252649;86.84891433
6.393192893996652;0.9649736992076179;0.0071377587437544;0.0218486214538827;30.0;53.73266815000001;86.84877695
7.825292371621015;0.9471222368712219;-0.0387478331803813;0.021196440553829295;30.0;53.73278133;86.84860597
7.012482468089512;1.0499080370325644;-0.0295707147955541;0.020162934814204746;30.0;53.732877380000005;86.84841786
5.929145562742061;0.8736074216783272;-0.0173345569491179;0.016650000808410198;30.0;53.732957;86.84821076
6.050478880662004;0.8437971617019616;-0.0387478331803813;0.016897516429394594;30.0;53.733019209999995;86.84799905
6.415581332304673;0.9609186740535062;-0.023452635872336;0.013909174483787434;30.0;53.73306613999999;86.84777718000001
8.105463103415476;1.2090611980341657;-0.0091771183848271;0.009221229966588985;30.0;53.73310057;86.84754792999999
7.391333229808666;1.2042116427323386;-0.0244723156928724;0.008544953400067513;30.0;53.73312853;86.84730197
7.854196780380672;1.2835311748303877;-0.0280411950647496;0.013721020375263605;30.0;53.733150390000006;86.84704735
5.244321407264363;1.3721765224860822;-0.0295707147955541;0.014271571752428974;30.0;53.733167630000004;86.84679323
4.500885237511637;1.4353979573503877;-0.0193739165901906;0.015327735802767067;30.0;53.733182469999996;86.84653415
5.220501532344239;1.525116153117086;-0.0336494340776996;0.015239296007518322;30.0;53.73319669;86.84626933000001
4.726834601184762;1.2555128560224846;-0.0591414295911083;0.01513660800825392;30.0;53.73321066;86.84599658
4.614965938385693;1.0649155046812528;-0.0469052717446721;0.014205038201698604;30.0;53.73322425;86.84570809
4.675274705756775;0.5277831016072302;-0.0499643112062812;0.013522883591411832;30.0;53.73323756999999;86.84538349
4.077918151623496;0.7021862242163557;-0.0418068726419904;0.01341437797518737;30.0;53.73324962;86.8450525
5.34398735064604;0.7496306518426916;-0.0642398286937901;0.011427695096255235;30.0;53.73325937;86.84472177
5.943856170104483;0.7904538426146275;-0.037728153359845;0.014194766765689915;30.0;53.73326639;86.84439599
5.02748630934672;0.7646037421777018;-0.0469052717446721;0.013611017543909644;30.0;53.73327035999999;86.84406972
6.407268071567084;0.7321112395048436;-0.0305903946160905;0.015153294510899884;30.0;53.73327134;86.84374045999999
6.14799331989639;0.8577907168094695;-0.0316100744366268;0.015203909018775608;30.0;53.73326965;86.84341109
6.01131446233188;0.8093963945325479;-0.0163148771285816;0.01520086930084274;30.0;53.733266119999996;86.84308244
5.342902018922524;0.8331847988213976;-0.0540430304884266;0.013799101799524635;30.0;53.73326617;86.84271129
4.99740441831825;0.8096558403824683;-0.0632201488732537;0.013752978174289287;30.0;53.733271349999995;86.84234527
3.852303131916401;0.8543526313172446;-0.0509839910268175;0.019666945582120735;30.0;53.73328253999999;86.84200317999999
4.41192278859265;0.73285261163726;-0.0458855919241358;0.02189879633096899;30.0;53.73330223000001;86.84165422999999
4.724044699832491;0.6662704019761492;-0.0514938309370857;0.023964343917492557;30.0;53.73333322999999;86.84130123
4.830622712044536;0.48027925422714685;-0.0479249515652085;0.025009366928306347;30.0;53.733378359999996;86.84094956
4.313833782929611;0.4160688896022611;0.0010196798205363;0.02610332763932587;30.0;53.73346219;86.84054187000001
4.548546972968583;0.35550363599806684;-0.0081574385642908;0.022986499859298595;30.0;53.73355698;86.8401349
3.814002830322782;0.4390806994624793;-0.0061180789232181;0.024195113532936796;30.0;53.733651789999996;86.83972795
4.336598280357386;0.5334297791367377;-0.0061180789232181;0.024754464678729625;30.0;53.73374727;86.83930375
3.909604422302025;0.49117381026099605;0.0020393596410727;0.024131225582380875;30.0;53.73383739999999;86.83890492
4.192088417395903;0.7394191511867036;-0.0183542367696543;0.024020621000394454;30.0;53.73392692;86.83849268
3.391442844040776;0.7212569254200584;-0.0591414295911083;0.0233652831799055;30.0;53.73401724;86.838071
3.253771423455428;0.9799125736192532;-0.0509839910268175;0.02247540255342998;30.0;53.73411093;86.83764245
4.089631299402724;1.3644508874003574;-0.0458855919241358;0.043331393654008704;30.0;53.73420384999999;86.83720545
2.0408899272143626;1.3573700412580858;-0.0469052717446721;0.04686646352312179;30.0;53.734281980000006;86.83674598
3.4573849551746725;1.3304754569721247;-0.0479249515652085;0.04679047887147098;30.0;53.73430949;86.83633573
1.311230696080536;1.2975201668741596;-0.0418068726419904;0.047594283072110874;30.0;53.734310470000004;86.83592199
0.2903725225361773;2.063313322062769;0.0856531049250535;0.0476725004678709;30.0;53.73429642999999;86.83551115
4.268777584988584;2.0659768457647583;0.0346691138982359;0.04695942636666471;30.0;53.73427058;86.83512945999999
3.4247298824741192;1.9183630623011134;-0.0428265524625267;0.04656413796823682;30.0;53.73423825;86.83477969
1.8507534478133392;1.958655864834105;-0.0520036708473539;0.04751897599939139;30.0;53.73419543;86.83447063
-2.459592391167206;2.2982168740591806;-0.0601611094116447;0.04760556885823172;30.0;53.73413915;86.83419675
0.7630001506552684;2.3397123504185466;-0.0173345569491179;0.04645596307180921;30.0;53.73406078000001;86.83394942
1.7935013711083752;2.2571156084956443;-0.0050983991026817;0.03271179200192548;30.0;53.73395318;86.83371126
2.9479792365656703;2.1765583519366114;0.0265116753339451;0.029608586690437522;30.0;53.733817910000006;86.83349663
5.818385201247067;2.1491092301862476;-0.0489446313857448;0.028766499286504814;30.0;53.73366587;86.83330874999999
3.6624012980643097;2.1528550844705623;-0.0112164780258998;0.029287086895401042;30.0;53.733495930000004;86.83315160999999
3.388555381338751;1.363594567041596;-0.0336494340776996;0.02583546636311514;30.0;53.73330491;86.83302459000001
2.0492125007067483;1.1317574548049454;0.0163148771285816;0.029456218671671797;30.0;53.73304734;86.83291806
2.7572250348617824;1.0724718312125003;-0.0193739165901907;0.03423469438251219;30.0;53.732765529999995;86.83282569
2.9064788188784973;1.0732037390517848;-0.0560823901294993;0.02831210997981156;30.0;53.73245034;86.83272810000001
3.876018204277168;0.7992327684378434;-0.0163148771285816;0.028409059779024286;30.0;53.73209985;86.83262592999999
2.63427013608967;0.9085603971025052;-0.061180789232181;0.029550001399048877;30.0;53.731717290000006;86.83252241
2.2994822201561336;1.1065050606428761;-0.0805547058223717;0.030256420253116718;30.0;53.73132181;86.83243925000001
2.924163773227128;1.5802736871052412;-0.0295707147955541;0.023393202391283577;30.0;53.73092285;86.83236796999999
1.1747366648103188;1.7725050686224515;-0.0142755174875089;0.022502436450685497;30.0;53.7305185;86.83229386000001
0.9777243576427538;1.8466573409354672;-0.0662791883348628;0.022536295356392077;30.0;53.730106580000005;86.8322045
0.1714470279107867;1.668427562399955;-0.0571020699500356;0.020211578532052122;30.0;53.72968229000001;86.83210276999999
-1.379333106043403;1.754286466966269;-0.0489446313857448;0.021672361144857155;30.0;53.729302440000005;86.8319994
-1.0063751232096547;1.5846809010579768;-0.0678087080656673;0.02133551257752704;30.0;53.728912279999996;86.83187548
-0.9997073873728282;1.1782461273195608;-0.0571020699500356;0.02186500696425257;30.0;53.72852831;86.83174239
-1.1089383657863008;0.96728621182104;-0.0336494340776996;0.0229402151457602;30.0;53.728155900000004;86.83160038000001
-2.525340626213721;0.8063850175174667;-0.0774956663607627;0.02187028999399804;30.0;53.727795119999996;86.83145464
-0.9508927016018014;0.7479217567177125;-0.0224329560517997;0.021583155959791014;30.0;53.72742607;86.83128527
-1.8039170190335223;0.7400648813811642;-0.0244723156928724;0.02285292588708195;30.0;53.727057130000006;86.83110832999999
-0.8036698771727013;0.8490037499537885;-0.0081574385642908;0.024058105936829315;30.0;53.726688149999994;86.83092879
0.1476197757328802;0.8624103795307257;-0.040787192821454;0.022522642491202;30.0;53.72632864;86.83075872
-0.2309100089514831;0.990924237264296;-0.0326297542571632;0.024494964763609;30.0;53.72598586;86.83060794000001
-1.0960350991838752;1.0404855764074963;-0.0152951973080452;0.025884607893920063;30.0;53.7256437;86.83047058
-2.3574916845082954;1.133642580904915;0.0061180789232181;0.02613180303006755;30.0;53.725308150000004;86.83036031
-0.6759515104851256;1.1288095622677212;-0.0152951973080452;0.035011317049831715;30.0;53.72497069;86.83027629
0.3996397760379691;1.5896578475654937;-0.0571020699500356;0.03458386916524524;30.0;53.72462663;86.83021639
1.160367063928584;1.6353891044983817;-0.0836137452839808;0.034629103366846874;30.0;53.72427911;86.83017863
0.8850775086563304;1.894340084415779;-0.0438462322830631;0.034629103366846874;30.0;53.72393767;86.83017766999998
1.1960564395566415;1.7704163475229662;0.0418068726419904;0.0347789055226851;30.0;53.72356394999999;86.83019563
3.552539025532979;1.4261940613025192;-0.0336494340776996;0.03232454724553251;30.0;53.72319202999999;86.83022563
1.5407005116615349;1.1814175482037008;-0.0418068726419904;0.03498111160983604;30.0;53.722822859999994;86.8302507
3.624800859118282;1.0852572202148023;-0.0326297542571632;0.03535151491221729;30.0;53.72245759;86.83024639
1.1061503634912062;1.1219513885501937;-0.0458855919241358;0.03616390956252532;30.0;53.72209392;86.83020528
3.230426951918011;1.1655650057924578;-0.0305903946160905;0.03561929070093241;30.0;53.72173941999999;86.83013494
2.0077976972914917;1.0489694674252716;-0.0836137452839808;0.027870419407679956;30.0;53.72139227;86.83004123
2.7342931275608287;1.0250571406512823;-0.0152951973080452;0.02854314350485793;30.0;53.721051880000005;86.82993891999999
3.5902468653908604;1.0111859060835338;0.0254919955134087;0.029490712119771098;30.0;53.72071439;86.82983439
4.415927229935442;1.180809016462216;-0.0254919955134087;0.02971608184718274;30.0;53.72038015;86.82972287
3.3252013300734418;0.9094032518033086;-0.0101967982053635;0.03012305934243584;30.0;53.720085440000005;86.82961248000001
2.7452626627961134;0.9114819914143657;-0.0489446313857448;0.03167050305988727;30.0;53.71979727;86.82950607
4.308380679400608;0.8777762922795642;-0.0560823901294993;0.025056382534022262;30.0;53.71950503000001;86.82941095
5.0631817803262615;1.4043907611353816;-0.0438462322830631;0.025088866904631166;30.0;53.71921318999999;86.82934183
3.615536774109113;2.0285419111880256;-0.0112164780258998;0.019319875709411526;30.0;53.718876019999996;86.82932209999998
3.173430679330264;2.669539108686694;0.0010196798205363;0.01958593515296751;30.0;53.718539;86.8293358
2.2012187580450084;3.0163990503122124;-0.0356887937187723;0.019825132905137287;30.0;53.71820451;86.82936995
0.0300417405669189;3.319522919916184;-0.0142755174875088;0.02005226285975859;30.0;53.71787365;86.82941797000001
-1.4359096682568908;3.204266272300785;-0.0418068726419904;0.030929354102777706;30.0;53.717528879999996;86.82949304000002
-3.2350194458047934;2.8958887283100765;-0.0397675130009177;0.033303470728364114;30.0;53.71716739;86.82960259000001
-2.8564905150983635;2.7038420241039076;-0.0081574385642908;0.03437529404216265;30.0;53.7168051;86.82972158
-3.4373579245419803;2.0901360840297656;-0.0509839910268175;0.03261488053648031;30.0;53.71644546;86.8298509
-2.5130799394900665;1.383801712891583;-0.1070663811563169;0.03480629931596589;30.0;53.71609237;86.82999189
-3.971658737022722;1.001473776354486;-0.0744366268991536;0.03101346856836228;30.0;53.715740919999995;86.83013708
-5.051336665216966;0.8007368774767689;-0.0815743856429081;0.040109710569411705;30.0;53.715453419999996;86.83028222
-2.3798074437859884;0.8853289605506567;-0.0887121443866625;0.052159194937291396;30.0;53.715194399999994;86.83043792
-3.057462136855989;0.8768918817353321;-0.0999286224125624;0.05345476885496554;30.0;53.71497263;86.83060527
-3.9433552112338255;1.5431701506105915;-0.078515346181299;0.05356811266287591;30.0;53.71479201;86.83077281
-3.7985804830211527;2.029742304874569;0.0152951973080452;0.04982216889291286;30.0;53.714678760000005;86.83092068
-2.2327910927567816;2.5324382643776766;0.0443560721933312;0.04963631859045682;30.0;53.71463808;86.8310464
-3.0277693893042645;2.2767569231352978;0.0040787192821454;0.047372270621394014;30.0;53.71465386;86.8311697
0.686281932809871;2.4570773420534913;-0.040787192821454;0.04551766150855457;30.0;53.71472055;86.83127991
1.2198706967772406;2.402656954102945;-0.0377281533598449;0.03881024575805762;30.0;53.714843110000004;86.83137943
2.6424328790119778;2.1726585555130615;-0.0091771183848271;0.03551453716897625;30.0;53.71501455;86.83146895
-1.6380824685727924;1.8464700398132328;-0.0474151116549403;0.0348908350627915;30.0;53.71522407;86.83153767
1.6016580097312405;1.87170108149604;-0.0723972672580809;0.027631933009152808;30.0;53.71545075;86.83158771000001
0.407442851005063;1.3242431222615982;-0.0265116753339451;0.02640168999050169;30.0;53.71568552;86.83162792
0.809291161102237;1.408762014657555;0.0142755174875089;0.025804201717206557;30.0;53.715925330000005;86.83165269
1.3625029107640334;1.64458860616827;0.0081574385642908;0.026181987904219172;30.0;53.716170209999994;86.83166460999999
3.305218665110373;1.8250762364231077;-0.0254919955134087;0.02603951849880265;30.0;53.71641886;86.83165726
1.1304500500401755;1.3865253532462316;-0.0101967982053635;0.025617221849498766;30.0;53.716666090000004;86.83163057
2.8102988795079327;1.3669124144596108;-0.020393596410727;0.018478444033974542;30.0;53.71690961;86.83159505
4.069489666737658;1.1940522306745711;-0.0428265524625267;0.023354464788100847;30.0;53.71715038;86.83155422
4.274418877453953;1.0412191100436214;-0.037728153359845;0.02164242227913816;30.0;53.71739222;86.83150934
2.9850739020482133;0.9265592786273124;-0.0050983991026817;0.024465469662428505;30.0;53.71763491;86.83146531
2.206652244018793;1.3284155942169704;-0.0193739165901906;0.02545684897972017;30.0;53.7178779;86.83140877999999
2.9569240163093475;1.403412368619565;0.0311002345263587;0.0345094629844546;30.0;53.718122859999994;86.83134142
2.079760696561498;1.3983420310246946;-0.011726317936168;0.040113022761541495;30.0;53.71836892;86.83127515999999
2.7574603579498267;1.438146967014522;0.0275313551544814;0.040113022761541495;30.0;53.7186102;86.83121692
-0.2432531101778797;1.4906249196369274;0.0173345569491179;0.0415087484883267;60.0;53.718840979999996;86.8311789
0.5638745710351745;2.140653908460418;-0.0805547058223717;0.05023939928857323;60.0;53.71905675000001;86.83117195
2.2582140219697195;2.8816140586336965;-0.078515346181299;0.050167947805500976;60.0;53.71927445;86.83121813
0.0577642506559378;3.0645071823297405;-0.0428265524625267;0.04589468631512123;60.0;53.71947802999999;86.83129883000001
-1.0893057275438272;3.2459725766522802;-0.0571020699500356;0.04790023663888639;60.0;53.71966522;86.83141434
-3.864791702810877;2.898033361567243;-0.1152238197206077;0.039803954941140786;60.0;53.71983573999999;86.83157206
-5.697595147069341;2.9729561591553044;-0.0469052717446721;0.031148766108498937;60.0;53.71999751;86.83177223
-5.025492943984933;2.7742770323160446;-0.0805547058223717;0.03347146361790125;60.0;53.72014667;86.83201355
-5.815336212676604;1.9876497996370068;-0.1091057407973896;0.04024557397769691;60.0;53.720284420000006;86.83228698
-3.56818075730109;1.5779372159097234;-0.0254919955134087;0.04662872423959753;60.0;53.72040842;86.8325825
-5.5195052868529295;1.1416988539591162;-0.0305903946160905;0.05030879742246253;60.0;53.720524409999996;86.83289049
-4.658236584494023;1.1187370227302411;-0.023452635872336;0.04283168595950989;60.0;53.72063811;86.83319875
-4.667566546144832;1.0569770383317647;0.0142755174875089;0.05042068545405898;60.0;53.72074158;86.83349422
-2.0744889137731146;1.451059524436715;0.0224329560517997;0.05591818341696322;60.0;53.72084242999999;86.83377171
-4.284376414858488;1.3960611796438698;0.0173345569491179;0.05080927685063651;60.0;53.72095673;86.83406264999999
-4.506330213211536;1.6068519723433883;-0.0079025186091567;0.04811651950189904;60.0;53.72107026;86.83432722
-4.017768785740028;2.029161335221063;0.0622004690527174;0.0760212594940438;60.0;53.72118005;86.83457269
-7.562239654437766;2.052727563783179;0.095849903130417;0.07486785416332886;60.0;53.72129496;86.83481048
-4.786803342120695;2.1658478509064456;0.1121647802589986;0.08155732280931947;60.0;53.72140723;86.83503539
-1.9265334336653164;2.240365323394812;0.0112164780258998;0.08482333131073228;60.0;53.72151705;86.83525273000001
-0.1649027213071966;2.2627830755510208;-0.1631487712858162;0.088207252928233;60.0;53.72162323;86.83546131
-2.4580996540546924;2.2756183598880066;0.0188640766799225;0.08874939785307877;60.0;53.721722369999995;86.83566541
-1.0689247784681064;2.268435010196249;-0.0836137452839808;0.08476983555831404;60.0;53.72181121999999;86.83584898000001
-1.1628749810378185;1.8146760247694222;-0.0683185479759355;0.07449342870834892;60.0;53.721895610000004;86.83602809
-4.646764382728921;1.632589354047657;-0.0815743856429081;0.06074419162450313;60.0;53.72196457;86.83617385
-4.698683639002773;1.642952552244901;-0.0418068726419904;0.05894892520300792;60.0;53.72202989;86.83630829
-3.798440184615582;1.9088352271218094;-0.0071377587437544;0.04152687016786875;60.0;53.72209339999999;86.83643068
-0.5845790928291272;2.0829555586124324;-0.0132558376669725;0.03885814148006093;60.0;53.722150920000004;86.83653428
-2.3917120588562484;2.677559166433452;0.0356887937187723;0.04002378601149827;60.0;53.72221955;86.83664643
-1.6215520089824385;2.8861677586202386;-0.0132558376669725;0.03766854840088679;60.0;53.72228861999999;86.83675134
1.3625736040497445;2.7107103082111177;-0.0020393596410727;0.03196370512320194;60.0;53.722355730000004;86.83684405
-4.7329896967517335;2.4877732175087477;-0.0132558376669725;0.041539908710352895;90.0;53.722423479999996;86.83691947999999
3.0280191171573123;2.3557575394083905;-0.0907515040277353;0.0416311682312692;90.0;53.72249283;86.83697603
1.5010552743333894;2.3917018385494684;-0.020393596410727;0.043790074407198586;90.0;53.72255809999999;86.83701058
-0.2282433586594538;2.330152920006747;-0.0152951973080452;0.04443384738000225;90.0;53.7226084;86.83702248
-2.6682680315258884;2.3879770681334214;0.0723972672580809;0.05345865890678854;90.0;53.72264070999999;86.83702663
1.0797234531248905;2.5366265250045124;0.0020393596410727;0.06238317195949252;90.0;53.72265033;86.83702345
0.7889072792705971;1.7612186169753188;0.0387478331803813;0.07030552895700762;90.0;53.722630790000004;86.83699367
1.2658398615515214;1.9596971429921541;-0.0514938309370857;0.07818744061554314;90.0;53.72257757;86.83692253000001
2.58108040448491;2.1936861834957937;-0.1029876618741715;0.08203493326542219;90.0;53.72250792;86.8368196
3.2008252970687736;2.172997572309736;-0.1233812582848985;0.08043143604694072;90.0;53.722435940000004;86.83668874
2.4148049689783524;1.7171425995822311;-0.1366370959518711;0.06405705588774391;90.0;53.72236816000001;86.83654416
4.433712068763271;1.8087527338617182;-0.1580503721831345;0.05856630860795309;90.0;53.72231252;86.83641172
-1.6884383089288524;2.050000907419387;-0.1376567757724074;0.038279324614254484;90.0;53.72227382;86.83630134
0.1125567116628542;2.3540363104319186;-0.0662791883348628;0.04414427271691441;90.0;53.722262369999996;86.83620797
1.0425709643436814;2.6478744748578618;-0.0917711838482716;0.04507156544443803;90.0;53.72228599;86.83612919
-0.2911258662183816;2.5403726077406295;-0.0458855919241358;0.049254745700079434;90.0;53.72233933;86.83605965000001
-1.6699823797966311;2.369941280916493;-0.1080860609768532;0.04774127416923719;90.0;53.72242192;86.83601168
-2.535651905624124;1.8124437323573006;-0.0183542367696543;0.04817967669576196;90.0;53.722530830000004;86.83598746999999
-3.777231521636932;1.8158519717612178;-0.0693382277964719;0.04320376433813678;90.0;53.7226622;86.83599084
-2.689173041739028;2.2116014858857995;-0.0224329560517997;0.044479161551988826;90.0;53.72279797;86.83602933
-2.1516634439178968;2.1462296940378125;-0.037728153359845;0.046446014742174344;90.0;53.72292541;86.83609533
1.960298988415594;2.1360114904072396;0.0275313551544814;0.05230779689400179;90.0;53.72302887000001;86.83617575000001
-1.7870952645666822;2.5111865210282502;-0.1070663811563169;0.05124887288852511;90.0;53.72310448;86.83625648
2.920160201629766;2.517521707301748;-0.0887121443866625;0.04849992370845198;90.0;53.72315757;86.83633261
0.2280823499156808;2.3616928970923703;-0.1101254206179259;0.048522785642657974;90.0;53.72319021;86.83639341
-0.6721815043715937;2.5607973299478526;-0.1366370959518711;0.047122620057822015;90.0;53.723220100000006;86.83644890000001
-5.182959492922076;2.5607973299478526;-0.0938105434893443;0.047122620057822015;90.0;53.723220100000006;86.83644890000001
0.1750101672499175;2.5607973299478526;-0.0662791883348628;0.047122620057822015;90.0;53.723220100000006;86.83644890000001
-1.922890393378162;2.5607973299478526;-0.07545630671969;0.047122620057822015;90.0;53.723220100000006;86.83644890000001
2.986415575365746;2.5607973299478526;-0.0367084735393086;0.047122620057822015;90.0;53.723220100000006;86.83644890000001
6.199741557487737;1.1470540366983655;-0.1060467013357805;0.050968580202652915;30.0;53.72973003;86.84459211
6.247396865001227;1.1470540366983655;-0.092790863668808;0.050968580202652915;30.0;53.72973003;86.84459211
5.767650382335794;1.1470540366983655;-0.0917711838482716;0.050968580202652915;30.0;53.72973003;86.84459211
3.745100011247854;1.1470540366983655;-0.1233812582848985;0.050968580202652915;30.0;53.72973003;86.84459211
5.342692529679627;1.1470540366983655;-0.0305903946160905;0.050968580202652915;30.0;53.72973003;86.84459211
6.5270247086665885;1.1470540366983655;-0.0173345569491179;0.050968580202652915;30.0;53.72973003;86.84459211
4.689415539307124;1.3891064750472915;-0.0305903946160905;0.0471381853656731;30.0;53.72982913;86.84469377
5.283873272430225;1.6365624992495136;-0.0173345569491179;0.04731785603891516;30.0;53.72991922;86.8448069
7.209791644375268;1.6568773421676213;0.0367084735393086;0.04667874497758623;30.0;53.730005989999995;86.84493719
7.550634107243923;1.3692230837891848;-0.020393596410727;0.030977127814113197;30.0;53.730087839999996;86.84507792
8.325052203724654;1.5282287179926972;-0.0285510349750178;0.029245836205818325;30.0;53.73016345;86.84523033
8.792482100444628;1.6681265131802738;0.0224329560517997;0.028522898989498318;30.0;53.73023548;86.8453894
7.409971595317578;2.028406374440854;0.040787192821454;0.027827743367652234;30.0;53.73030937;86.84556825
7.554482559782675;2.6296758881169873;0.037728153359845;0.026834837634227653;30.0;53.73038441;86.84577897
4.302856334341654;2.725215227801996;-0.0050983991026817;0.024676871977815512;30.0;53.73045869;86.84600685000001
4.659921334809809;2.733271146767084;-0.0020393596410727;0.02436877144626605;30.0;53.73053372;86.84625852
2.578095336465109;2.6356841408931864;-0.0249821556031405;0.0265891818973268;30.0;53.73061061000001;86.84654277
1.0597656323060212;2.2385047795335313;0.0101967982053635;0.038804775639970694;30.0;53.73069339999999;86.84685596
3.1404019677563952;1.8928869250685998;0.0020393596410727;0.0388672453981289;30.0;53.730787369999994;86.84718545
2.980487494112296;1.5317160898274311;-0.0173345569491179;0.04141293036675187;30.0;53.730888990000004;86.84751747
1.934469620722898;1.7948638847235556;0.0560823901294993;0.04071663935123995;30.0;53.730996340000004;86.84784497999999
1.9541793196292896;1.9342375575408053;0.1009483022330988;0.039339948459544055;30.0;53.73110892;86.8481598
4.831939120913117;1.9183678442332945;0.0418068726419904;0.03395059994170244;30.0;53.73122171999999;86.84844412
5.865076481692177;1.651529212784542;0.0672988681553992;0.032737607193393074;30.0;53.731340620000005;86.84868334000001
6.372394628570741;1.6101238726574914;0.0458855919241358;0.03550742060172868;30.0;53.731469960000005;86.84887668
6.011488266804622;1.530799975647531;0.0346691138982359;0.03787576410311445;30.0;53.731607239999995;86.84902164
4.726219310733286;1.2065435607514567;0.0412970327317222;0.038225377371886166;30.0;53.7317571;86.84911262
4.790776881880764;0.7622739002121944;0.0285510349750178;0.02969274643915443;30.0;53.73193478;86.84913925999999
4.831417928558167;0.7734972711337129;-0.0163148771285816;0.029260645774792742;30.0;53.732108329999996;86.84911825
4.910064343178809;0.7880214719718928;-0.0300805547058223;0.02587746583462869;30.0;53.73227414;86.8490639
5.136856738439444;0.8288924921319095;0.0081574385642908;0.025877465834628684;30.0;53.732432429999996;86.84897387000001
6.785733576441021;0.8166926893476751;0.0305903946160905;0.025554007259915818;30.0;53.73258313;86.84885321
6.2721889397936;0.7962892020229737;0.0326297542571632;0.022508083138716446;30.0;53.73272515;86.84869058999999
6.115500406582516;0.8931698807107592;-0.0010196798205363;0.020816971580749875;30.0;53.73285145;86.84850200999999
4.32298029994199;0.8626052001338815;-0.0173345569491179;0.020558977858345692;30.0;53.732959019999996;86.84829726000001
4.796332076584131;0.8447677268864333;-0.0142755174875089;0.018979319001140266;30.0;53.733049359999995;86.84807784
5.514442980393293;0.8246430169501074;-0.0050983991026817;0.018747817885855625;30.0;53.73311926;86.84784821999999
6.830621233356224;0.9561799290883263;-0.0142755174875089;0.017440532958444745;30.0;53.73315063;86.84761847000001
5.953662501264073;0.93181724484648;-0.0122361578464362;0.00975736445685287;30.0;53.7331718;86.84738364
6.377589913631903;0.9344513893291048;-0.0173345569491179;0.008863983876413076;30.0;53.73318956000001;86.84713516
6.359188667525858;0.9534539372411286;-0.0061180789232181;0.01998416368714776;30.0;53.73320536999999;86.84687961
4.037908656245385;1.0940976668675113;-0.0356887937187723;0.02025261992112703;30.0;53.73321900999999;86.84661677
5.514411850761799;1.1449782027570734;-0.0061180789232181;0.019551693981408755;30.0;53.73323149;86.84635789000001
4.890402714618152;1.0507464259100117;-0.0112164780258998;0.02004390720963495;30.0;53.73324332999999;86.84609325
4.1881616396346;1.024436087784371;-0.0703579076170082;0.0201051971053413;30.0;53.73325595;86.84579355000001
3.674236775459085;0.8513856763838352;-0.0316100744366268;0.020095713724604912;30.0;53.73326794;86.84548554
4.228008009923138;0.8175779141901773;-0.0285510349750178;0.019738407479232164;30.0;53.733279059999994;86.84517154
3.933158442839853;1.204492271359257;-0.0071377587437544;0.01967421355321764;30.0;53.73328954;86.8448569
3.91481064784759;1.1909174447829654;-0.0112164780258998;0.018846154872475474;30.0;53.73329796;86.84454276
4.950586997227898;1.1945882067527105;-0.0285510349750178;0.01820643324523338;30.0;53.733304340000004;86.8442317
6.211894985027296;1.186027642018973;-0.0101967982053635;0.009746258112669218;30.0;53.733308380000004;86.84392086
7.467080866468962;1.2116995862192388;-0.0346691138982359;0.009746258112669218;30.0;53.73330971;86.84360987
5.209521801206859;1.2976650786312294;-0.0173345569491179;0.010254558093262898;30.0;53.733307360000005;86.84329008
5.161239329473495;1.4042246765365152;-0.0260018354236769;0.013133367892222393;30.0;53.73330276;86.84296292
4.331149740515637;1.377136060998218;-0.023452635872336;0.01255317938892754;30.0;53.733298000000005;86.84265864
3.4656262636761896;1.4122384070279066;-0.0316100744366268;0.012542130876405577;30.0;53.73329691;86.84234778999999
3.319275674405919;1.304834125496741;-0.0336494340776996;0.01128949764614036;30.0;53.73330097;86.84202673
2.9432057479311973;0.8219812082563807;-0.0550627103089629;0.015725804292275724;30.0;53.73331151;86.84169935
4.8368377213789095;0.818781075181255;-0.0418068726419904;0.015411920692655817;30.0;53.733332610000005;86.84136205
3.766216841265658;0.7313014630876794;-0.0295707147955541;0.018819163425306578;30.0;53.73337783000001;86.84098999
4.610803517458495;0.7811373311724766;-0.0183542367696543;0.024024708736801296;30.0;53.73343844;86.84062564
3.462877445105701;0.7813252881160361;0.0040787192821454;0.02539528236549688;30.0;53.73351151000001;86.84026607
5.187826532706247;0.7611764360071276;-0.023452635872336;0.024633235924017748;30.0;53.733597429999996;86.83992703
4.101993006484404;0.699475585423856;0.0061180789232181;0.028397671099561216;30.0;53.73369280000001;86.8395488
3.024257541006764;0.8547452711983132;0.0224329560517997;0.024999144490247305;30.0;53.733787359999994;86.83916208
4.3716803360000265;0.8687570185675718;0.0101967982053635;0.02317788032920778;30.0;53.73388304;86.83876624
3.5867678905744587;0.8338410947043143;-0.0112164780258998;0.021775463576637698;30.0;53.73397620000001;86.83836276
4.776019049635197;0.8466261657519566;0.0550627103089629;0.02185093466977489;30.0;53.734068730000004;86.83794329
2.378815270068668;1.1473663591714993;-0.0071377587437544;0.01908524187196913;30.0;53.73415993;86.83751737
3.4217799086358567;1.1343419880640988;0.020393596410727;0.04115660548482647;30.0;53.73423348;86.83710708
3.605332024466964;1.160482835771129;-0.0010196798205363;0.04556120047250051;30.0;53.73428073;86.83666537
3.238050908495014;1.073494404672045;0.0010196798205363;0.04741386292664989;30.0;53.734299299999996;86.83621289999999
0.6993960435236709;1.0693376074120844;0.0050983991026817;0.04735876431514682;30.0;53.73428641;86.83574433
2.5575589021886485;1.0211129208191048;0.1259304578362394;0.04497139320655862;30.0;53.734242159999994;86.83531096
2.3913452197910114;1.0474229109366693;-0.0397675130009177;0.044651970930256205;30.0;53.734171790000005;86.83488731
2.749975164320544;1.0834176391733912;-0.0254919955134087;0.04750514662045107;30.0;53.73406938000001;86.83448282
2.2155869200103635;0.9680856949553714;-0.0101967982053635;0.04735534901817284;30.0;53.733930580000006;86.83410594
0.6358878081361926;0.8871370889727901;0.0142755174875089;0.048074446210392904;30.0;53.733750210000004;86.83377197000002
3.1283596618713903;0.7736774177514434;0.0071377587437544;0.049190935847694704;30.0;53.733524;86.83347152
0.9799966418169432;0.7719309600041724;0.061180789232181;0.029405188403774908;30.0;53.73325674;86.83321450000001
2.1188373439025043;0.7661128541809357;0.0040787192821454;0.028952044394921297;30.0;53.73296417;86.83300641
2.36410913060047;0.7312460851540556;-0.0142755174875089;0.02816011155716008;30.0;53.73264398;86.83282702
1.7353507245447335;0.7392299625786329;-0.020393596410727;0.030621016891011456;30.0;53.732308939999996;86.8326763
2.5310324439442367;0.6107504058741785;0.0285510349750178;0.030804955101659433;30.0;53.73196113;86.83255889
2.2133098199617613;0.8866063151677274;-0.0367084735393085;0.033099087250994225;30.0;53.731597969999996;86.83246709
1.7603500543167214;1.1731835530273058;-0.0163148771285816;0.023442843423885303;30.0;53.73119106;86.83238274
1.5015921666905976;1.8417724996178615;-0.0372183134495768;0.023373748940856632;30.0;53.73078350000001;86.83230542000001
2.5151638670982006;1.9505916308238689;0.0173345569491179;0.023595118328041648;30.0;53.73038027;86.83222475
-0.3710085345154807;1.9460360470764908;-0.040787192821454;0.02396675419895737;30.0;53.729982369999995;86.83213661
-0.7515420265419549;1.8357310939843259;-0.0081574385642908;0.018657710537353763;30.0;53.72958619999999;86.83204252
-3.032383765660149;1.7086368311005367;-0.0316100744366268;0.023145771121283156;30.0;53.72918529;86.83193345000001
-1.6037549813358876;1.555468822607774;-0.0265116753339451;0.023000254096448236;30.0;53.72879852999999;86.83181293
-0.6009799400429405;1.4223428462832328;-0.003059039461609;0.027057351290458567;30.0;53.728408159999994;86.83168112000001
-0.9808144881738556;0.9251798129216159;-0.0316100744366268;0.026181105393808864;30.0;53.72802239;86.83153599
-1.2660312816460564;0.8973763945301232;-0.0662791883348628;0.026365346174364365;30.0;53.72764502;86.83137878000001
-0.1165241804268465;0.9712302533202424;-0.029060874885286;0.02647946395086657;30.0;53.72730519;86.83121815000001
-1.6050784433944056;0.721658871308285;0.0224329560517997;0.027454930451697373;30.0;53.72696431000001;86.83104623
0.1732623467857139;0.6916002079335964;0.0112164780258998;0.03068395821676306;30.0;53.72661887;86.83086463
-1.0093407108775023;0.8926865432208395;-0.0428265524625267;0.031890657329676254;30.0;53.72626811;86.83069307
0.1141710045290736;0.9015637451942756;-0.037728153359845;0.03381079689295218;30.0;53.72591239999999;86.83053960000001
-1.7205735397256638;1.2321937160507448;0.0020393596410727;0.031009044728546837;30.0;53.72555958;86.83041462
-1.2843211333616529;1.9499031707206913;0.0244723156928724;0.031491070519426144;30.0;53.72519831999999;86.83031192000001
0.9478378094122056;1.9215952874622253;-0.0469052717446721;0.029918524989620488;30.0;53.72483744;86.83023776
-0.1163911041033133;2.0092088484365527;-0.0560823901294993;0.0283488106519791;30.0;53.72446893;86.83018925
2.2477844206217195;1.9093617314937033;-0.0418068726419904;0.027546247683624393;30.0;53.724095950000006;86.83016699
4.530511488426381;1.9391437310004231;0.0020393596410727;0.02873354887979329;30.0;53.72372236;86.83017228
2.178280513764549;1.6151338232735444;0.0091771183848271;0.028107344730000157;30.0;53.72333908;86.83020116
2.5713080047007786;1.2098565989282206;-0.0101967982053635;0.023461254770178224;30.0;53.72295820000001;86.83023755999999
1.6324329378604587;1.1363553531759591;-0.0316100744366268;0.022710619634381965;30.0;53.72258430000001;86.83025534
2.7604737300541347;0.8811367882792531;-0.0499643112062812;0.020854328999333153;30.0;53.72222236;86.83023388
2.277314801869447;0.8680644051598989;-0.037728153359845;0.021022886681811112;30.0;53.72187554;86.83017378
2.4341239524506637;0.6142276475910834;-0.0071377587437544;0.026921607142582158;30.0;53.72154412;86.83008812
2.5007375971625656;0.616880488058814;-0.0367084735393086;0.026832415889895406;30.0;53.7212264;86.82998288
4.0088895088202765;0.6176809604184048;-0.0050983991026817;0.026877155972792027;30.0;53.72091689;86.82986793
2.566274591273196;0.5378900663853207;0.0061180789232181;0.02697390962785286;30.0;53.72061277;86.82974813
2.1370244396161326;0.5831018998864281;0.0387478331803813;0.022880649799026497;30.0;53.7203119;86.82962646
2.135980601696959;0.5956287917478928;0.0081574385642908;0.02395246974252909;30.0;53.72002089;86.82950697
2.6202446697934287;0.5953020864594858;-0.0183542367696543;0.02369619287218591;30.0;53.7197364;86.82939656
2.7562060950382543;1.216457247841732;0.0101967982053635;0.023500615191719348;30.0;53.719453650000005;86.82930581000001
3.3329762353250225;1.4273426773832263;-0.0010196798205363;0.024179052852734514;30.0;53.71917035;86.82924779
2.13413982761542;1.6540731970381137;0.0428265524625267;0.02581936336648382;30.0;53.71888483;86.82922595
2.9342008122036654;2.0158615167349794;0.0;0.022639035385528927;30.0;53.71859558999999;86.82923111
-0.6267130375949934;2.4499870883623363;-0.0356887937187723;0.022725875314316222;30.0;53.71830809000001;86.82925593
-0.740507984758305;3.0561648317382417;-0.0152951973080452;0.024923472431464595;30.0;53.71802622;86.8292915
-0.8838317036465768;3.014638906272614;-0.0254919955134087;0.026333284833503088;30.0;53.71775024;86.82934320000001
-2.1779328289523185;2.6487469765069456;-0.020393596410727;0.026974766200775924;30.0;53.71748157;86.82940477
-3.499009976098227;2.3254704213466506;-0.023452635872336;0.025904238403607237;30.0;53.7172272;86.8294704
-5.845277970434694;1.65491715058775;0.0265116753339451;0.02578354292281156;90.0;53.716977459999995;86.82954577999999
-3.550230682630753;1.5195989520282953;0.0254919955134087;0.0315248033666705;90.0;53.71670661;86.82965381
-2.50971388806659;1.3670715695535207;-0.0214132762312633;0.03215469411400383;90.0;53.716436269999996;86.82977003
-1.7588069628385647;1.180189222255923;-0.0571020699500356;0.03385719191910683;90.0;53.71616478000001;86.82989278
-3.7233595987989423;1.2019711874493078;-0.0305903946160905;0.04028903952872105;90.0;53.71588902;86.8300215
-2.3145149186629297;1.5116180865304345;-0.0764759865402263;0.05393593280820671;90.0;53.715614089999995;86.83015617
-3.5001723144688;1.3474407066646195;-0.0438462322830631;0.06344633975278878;90.0;53.71536080999999;86.83030993
-4.011900927410482;1.8724419189292492;-0.058121749770572;0.0630445676353116;90.0;53.71514287;86.83046575
-4.841949508957211;2.3596905240547423;0.040787192821454;0.06452459995406035;90.0;53.714967089999995;86.83063045
-6.461163339407778;2.344071789206205;0.0917711838482716;0.061647401670761236;90.0;53.71483384;86.83079416
-3.1690759612888537;2.561343589955197;0.0989089425920261;0.061135075391328564;90.0;53.714746330000004;86.83095753
0.5238201367374525;2.650853305159894;-0.0285510349750178;0.05417476562151006;90.0;53.71473085;86.83109565
1.3503173242288775;2.765283686166053;0.0387478331803813;0.05495350046249447;90.0;53.714768590000006;86.83122298999999
-3.6668149000365697;2.6956139957764935;0.0112164780258998;0.05064580859658993;90.0;53.71486281999999;86.83133769999999
0.4680803117441638;2.457106161444627;-0.0214132762312633;0.050083709241060426;90.0;53.71501792;86.83143648000001
-0.4124332766752645;1.7785646545091438;0.0295707147955541;0.04285675454841207;90.0;53.715221269999994;86.83152463
0.5404423755661865;1.6115428506481437;-0.0499643112062812;0.027636113632293968;90.0;53.71545651;86.83158834999999
-0.5779992230987132;1.7674717084406848;-0.0224329560517997;0.026950396787178088;30.0;53.71571098;86.83163546
-0.5677948413193598;1.9701123899241284;0.0112164780258998;0.0228402842454634;30.0;53.71597488;86.83165872
1.7258699298587192;1.3717276735591566;-0.0122361578464362;0.025827919333513874;30.0;53.716246219999995;86.83166382
1.9192974822601072;1.4823122149879138;0.0015295197308045;0.02600933198875228;30.0;53.716519760000004;86.83165576
2.423229350600077;1.4089115772275473;-0.020393596410727;0.026097960836248293;30.0;53.716842029999995;86.83162475
3.186345938679972;1.6136910774574338;0.0040787192821454;0.027165107380621757;30.0;53.717165439999995;86.83157952
2.182660136181291;1.6296480654286687;-0.0520036708473539;0.026984828895922307;30.0;53.71748905;86.83152681
3.063450657812165;1.76335213047145;0.0010196798205363;0.030410667354743997;60.0;53.71783897;86.83147737
2.8497922130451965;1.8022329676936126;0.0300805547058223;0.036846531605182524;60.0;53.71818314000001;86.8314401
-0.988280444554424;3.104959449742448;-0.0560823901294993;0.03893317586657925;60.0;53.71851309;86.83142189
-0.6864002048031238;3.291257792834412;-0.0173345569491179;0.04443514735461905;60.0;53.7188255;86.83141686
-1.3999910446250616;4.213389586865212;-0.0642398286937901;0.04407568563474188;60.0;53.719118949999995;86.83143895
0.1712779664682352;4.449322069009528;0.0469052717446721;0.05014505837266088;60.0;53.71939102;86.83149854
-6.827492271805276;4.100050133389802;0.0285510349750178;0.05292982476930082;60.0;53.71964511;86.83159135000001
-3.948596865777783;3.482778758712932;-0.0774956663607627;0.04861115525391855;60.0;53.71984321;86.83175616999999
-9.768842281203549;3.367054281814748;-0.0050983991026817;0.04907851727968835;60.0;53.72002067;86.83196691
-8.072338980984297;3.116490623985118;-0.0978892627714897;0.051824641020712124;60.0;53.720178090000005;86.83221393
-6.217274391704422;2.8862643700562614;-0.0825940654634444;0.050323750287177824;60.0;53.72029189;86.83248900999999
-2.521051987496828;2.1641452099073746;-0.0356887937187723;0.04603518436437856;60.0;53.72039944000001;86.83278088
-6.224750755144502;2.1379958234287884;-0.003059039461609;0.044931043226317476;60.0;53.72050638;86.83307982
-6.4549808990533695;2.0439258492001247;0.0224329560517997;0.057244147635021635;60.0;53.72061582;86.83339406
-3.717407859461692;1.5423812829755341;-0.0086672784745589;0.057240514844693606;60.0;53.72073028999999;86.83370565
-4.842767401890292;1.661413824784317;0.0112164780258998;0.049562715716261835;60.0;53.72085305;86.83400249
-5.57396360170467;1.8867327006656474;0.0193739165901906;0.03869446448915439;60.0;53.72098614;86.83428661999999
-5.980827929577548;2.037789616137765;0.1060467013357805;0.034362688845676725;60.0;53.721117619999994;86.83453074
-5.14255740532208;1.9596748169961873;-0.0091771183848271;0.03637747358186108;60.0;53.721259569999994;86.83475973
-1.7014237838602992;1.8293190611180243;0.0448659121035994;0.03695766956107495;60.0;53.72140925;86.83497597
-1.468158582375498;2.2459664883464328;0.0305903946160905;0.03506345500333555;60.0;53.72156467999999;86.83517492
-1.3868744920652831;2.21857395165008;0.0045885591924136;0.03924733514832205;60.0;53.72172305;86.83535121
-2.728029886602024;2.1280405768085053;0.0713775874375446;0.03993424136956462;60.0;53.72188153;86.83550457
-1.8488902451308888;2.302314882189623;0.0520036708473539;0.031199212563213854;60.0;53.72203948;86.8356318
-7.54038118694874;2.201264181508783;0.0632201488732537;0.03614589579731093;60.0;53.722198330000005;86.83573688999999
-3.453006013031176;3.3475792661654733;-0.0214132762312633;0.03762270798916863;60.0;53.72235381;86.83582581
-2.7778973017094466;3.4531308537395624;0.0081574385642908;0.07584954675020766;60.0;53.72250364;86.83589116
0.8744018156904872;3.6633990204123426;0.023452635872336;0.08184133157135286;60.0;53.72265093;86.83593861
-0.8013609018643543;3.8982037463382966;0.1009483022330988;0.08753132831155895;60.0;53.7227903;86.83597302
5.6537646543390645;3.930737066498949;0.003059039461609;0.0864094673141168;60.0;53.72291758;86.83600557999999
1.124207397934;3.3494312848316286;-0.1743652493117161;0.08166674184510987;60.0;53.72302624;86.83604
2.5923878962054774;3.1804627142652464;-0.0836137452839808;0.08228506577682065;60.0;53.72311301;86.83607300999999
-5.368575615175248;3.2365828301359714;-0.1264402977465075;0.07964505207870262;60.0;53.72317905999999;86.83610578
-2.8500196055762337;3.3215326882531215;-0.0836137452839808;0.07520948039764469;60.0;53.723225049999996;86.83613385
1.985082590570661;3.3098426870921895;-0.0897318242071989;0.048629807689188134;60.0;53.72325906;86.83616018
1.1541488452980364;3.1401779898699416;-0.0876924645661262;0.0554296007954684;60.0;53.72328567000001;86.83618935
-3.2896339821687626;3.1433832650568005;-0.0509839910268175;0.055010232636299894;60.0;53.723305;86.83622915999999
2.5316684477455538;3.1433832650568005;-0.0326297542571632;0.055010232636299894;60.0;53.723305;86.83622915999999
1.1989315620752934;3.1433832650568005;-0.0723972672580809;0.055010232636299894;60.0;53.723305;86.83622915999999
4.608233770081956;3.1433832650568005;0.0356887937187723;0.055010232636299894;60.0;53.723305;86.83622915999999
1.2366328757468634;3.1433832650568005;0.040787192821454;0.055010232636299894;60.0;53.723305;86.83622915999999
-7.184431313576223;4.326519004378007;-0.1070663811563169;0.03498903687098611;30.0;53.729464310000004;86.84435967
0.0593649193060123;4.326519004378007;-0.0479249515652085;0.03498903687098611;30.0;53.729464310000004;86.84435967
3.478940965578224;4.326519004378007;-0.0316100744366268;0.03498903687098611;30.0;53.729464310000004;86.84435967
7.01042860429389;4.326519004378007;-0.1244009381054349;0.03498903687098611;30.0;53.729464310000004;86.84435967
7.287169316363914;4.326519004378007;-0.0418068726419904;0.03498903687098611;30.0;53.729464310000004;86.84435967
6.108846760169344;4.326519004378007;-0.0591414295911083;0.03498903687098611;30.0;53.729464310000004;86.84435967
4.5882716314534;2.292551668195519;-0.0285510349750178;0.0371496117760721;30.0;53.729581640000006;86.84443092000001
4.600099108455424;1.5889810864502536;-0.0418068726419904;0.04028420038980167;30.0;53.72969893;86.84452261000001
4.949327367114009;1.5108953126647484;-0.0550627103089629;0.04293650571368843;30.0;53.72981592;86.84463192000001
5.68076229736412;1.5933734055459765;-0.0122361578464362;0.03874186968158796;30.0;53.72993116;86.84476508
8.103060747340868;1.5753351058966152;0.0209034363209952;0.03946554646773574;30.0;53.730038969999995;86.84491641000001
8.024804525903678;2.0155884657714247;0.0081574385642908;0.03700562162311476;30.0;53.730144210000006;86.84508053
8.56828284813576;2.485711940900713;0.0101967982053635;0.03605228741568841;30.0;53.73025044;86.8452994
8.135107695978714;2.7243516618986328;0.0616906291424492;0.03331253207751261;30.0;53.73035341;86.84555852999999
6.4683119781303215;2.9765149184365485;0.0285510349750178;0.026678320255319694;30.0;53.730453409999996;86.84585565
2.566095765349102;3.263305218690273;-0.0397675130009177;0.026164111266655153;30.0;53.73055312;86.84618576
1.4201441975641311;3.2268929182452415;-0.0015295197308045;0.04430623224717125;30.0;53.730645259999996;86.84652622
2.2002822424813653;2.9574215992013624;0.0091771183848271;0.05070212011157855;30.0;53.730746069999995;86.84689327000001
1.8229515593286545;2.5665253854333763;-0.0040787192821454;0.05398624489115904;30.0;53.730860729999996;86.84727417
1.0050726279711542;2.1949702236824145;-0.0050983991026817;0.05367691277856642;30.0;53.730981220000004;86.84764809999999
1.17377873514311;2.1638849127023034;0.1213418986438258;0.053918499968452875;30.0;53.73110744;86.84800727999999
5.114268451160445;2.2312837938697614;0.0989089425920261;0.04720360762601222;30.0;53.73123957;86.84835701
5.756250738758668;2.0969004514392644;0.0917711838482716;0.04553352174140046;30.0;53.731395709999994;86.84863603
5.90104061755065;2.014285752210608;0.0550627103089629;0.04571330767164389;30.0;53.731558289999995;86.84885749
6.267417201940113;1.89648089976504;0.0183542367696543;0.043210615953742475;30.0;53.73172542;86.84901950000001
5.322284807173669;1.5405252693017397;0.040787192821454;0.04000880964901855;30.0;53.73189803;86.84911531
4.043210276970534;0.8601386970169236;0.0183542367696543;0.03451753837342401;30.0;53.73206904;86.84914552000001
3.961104862887016;0.9248854487585745;0.0071377587437544;0.03068772306188291;30.0;53.73223263999999;86.84911967999999
5.484113295762056;0.9291308348956243;0.0239624757826042;0.021563877750431035;30.0;53.73238357;86.84905301
6.20121966047812;0.9371633125471187;0.0265116753339451;0.017140278919556096;30.0;53.73252719;86.84895854999999
6.346556130834622;0.910119201809431;-0.0040787192821454;0.016998826858278956;30.0;53.73266298;86.84883578
6.6101640658517065;0.9166695446972096;-0.0152951973080452;0.014244022385216649;30.0;53.732789260000004;86.84868302
5.907102156675996;0.8117219550816173;-0.0040787192821454;0.01501784110439294;30.0;53.73288056;86.8485132
6.079922716478866;0.5072881914821937;0.0020393596410727;0.015554434979920718;30.0;53.732956879999996;86.84832584
5.669800907466485;0.683065056808132;0.0071377587437544;0.014617781917096615;30.0;53.73301912000001;86.84812695999999
5.15229067280592;0.6828728318505028;-0.0101967982053635;0.009480524578349744;30.0;53.733063900000005;86.84792342
6.698649013149957;0.8249394382729934;-0.0173345569491179;0.009480524578349744;30.0;53.733099059999994;86.8477077
6.474619487426666;0.8187658376023644;-0.0132558376669725;0.010231295666185965;30.0;53.73312721;86.84747985
7.709512550038466;0.9929018485537211;-0.0244723156928724;0.010379274317394042;30.0;53.73315083999999;86.84724236
6.216595464264198;1.2046330092794768;-0.0122361578464362;0.010946595189153958;30.0;53.73317058;86.84698562000001
4.814740776485991;1.234587932818485;-0.0040787192821454;0.010700027038671884;30.0;53.73318518;86.84670582
5.657018680053051;1.3669003566358136;-0.0224329560517997;0.015042437536384184;30.0;53.73319833000001;86.84641945
4.270459071267966;1.289476191874026;-0.0020393596410727;0.0160867755598942;30.0;53.73321173000001;86.84612565
3.6824118113296014;1.218835056571738;-0.0280411950647496;0.016462996576460814;30.0;53.73322393000001;86.84581017
4.775015396371185;0.7924233808500436;-0.0356887937187723;0.016487539183826432;30.0;53.73323626;86.84548457999999
3.68283813073887;0.7669855156901585;-0.0520036708473539;0.016378571298482348;30.0;53.733250010000006;86.84515017
5.076973557383953;0.78361452231383;-0.003059039461609;0.01604722861129744;30.0;53.73326228;86.84480404
4.748980784080765;0.7634309180163519;-0.0336494340776996;0.0165874359997935;30.0;53.733272320000005;86.84446080000001
5.029712781729584;0.763594071385609;-0.0173345569491179;0.015609300228318666;30.0;53.73327967;86.84411743
6.085548063768432;0.853099007745115;-0.0142755174875089;0.015544683593481852;30.0;53.733286;86.84377815999999
5.287834094757766;0.9207582163567579;-0.0071377587437544;0.015278193192384769;30.0;53.73329096;86.84345288
5.467684503465013;0.8948096401768486;-0.0081574385642908;0.012907444264607316;30.0;53.73329215;86.84312383
4.268387586532401;1.0145020832732674;-0.0316100744366268;0.011328699403907377;30.0;53.73329302;86.84277398
3.198584196447175;1.0331778145066484;-0.0193739165901906;0.010863831277508219;30.0;53.73329834;86.84242346
3.665107656607113;1.0181558873990437;-0.0326297542571632;0.013023280340059954;30.0;53.73330873;86.84207033
3.930211637791188;0.814099649488673;-0.0397675130009177;0.018673725310824247;30.0;53.73332504;86.84171544
3.0553022397200973;0.7095737908877271;-0.0214132762312633;0.018904911538407225;30.0;53.73335113;86.84136521
3.753261149234173;0.5229289970191043;-0.0142755174875089;0.02095794161920803;30.0;53.73338907;86.84101403
3.829732019168547;0.6265308789148535;0.0020393596410727;0.020394729356835544;30.0;53.73344005;86.84066053000001
4.684605045421269;0.6201067375199494;0.023452635872336;0.024593809203544603;30.0;53.73350465;86.84031553
4.31267547848096;0.6274979110390039;-0.003059039461609;0.022357899471870238;30.0;53.73358298000001;86.83997914
3.308215587594371;0.7049587335950391;0.0142755174875089;0.025975719393517883;30.0;53.73366946;86.83965346
4.957354054966978;0.7953109161791629;0.0050983991026817;0.025754850697568017;30.0;53.73376072999999;86.83934280999999
4.633715312374103;1.1719259023133304;0.037728153359845;0.028901123247935156;30.0;53.733850960000005;86.83904136000001
4.5432504798172975;1.2588133127734689;0.0071377587437544;0.02927919652362848;30.0;53.73393562;86.83873178
3.0863145158987413;1.2603583897676596;-0.0560823901294993;0.030665079965464644;30.0;53.73401363000001;86.83840531
5.703112159538632;1.2595282673897839;0.0224329560517997;0.036265831826872735;30.0;53.73408345;86.83806297
1.5554583985575148;1.825330841889165;0.0520036708473539;0.036790993735539526;30.0;53.73415124;86.83770836000001
5.5630922720958695;2.063915677976747;-0.0061180789232181;0.03854515605969313;30.0;53.73422039999999;86.83734488
3.647463111453857;2.012290264937348;-0.0244723156928724;0.049046022276031886;30.0;53.73427991;86.83696919
4.251601403937015;1.9551219116576253;-0.0560823901294993;0.04947064570203095;30.0;53.7343203;86.83658206
-0.0595419857329461;1.967538851547767;0.023452635872336;0.045849196321070554;30.0;53.734339999999996;86.83618192
0.3466638532730391;1.7220540787040333;0.0367084735393086;0.04634541690922704;30.0;53.73433454999999;86.83577967
3.239451659861148;1.6785099342191059;0.1029876618741715;0.04571292858755783;30.0;53.73430252000001;86.83537900000002
3.0589845588426634;1.4933606978870708;-0.0101967982053635;0.04711612277868096;30.0;53.73424807;86.83498151
2.3341689278326903;1.4159547082825743;-0.0254919955134087;0.04921638169123368;30.0;53.73413768;86.83457672
3.1124079124802377;1.4311192679427513;-0.0142755174875089;0.04327803806208775;30.0;53.73399107;86.83420483
2.444630464849254;1.2175856705706292;-0.0397675130009177;0.04353341582895265;30.0;53.73378979;86.83387042999999
0.5902731152898133;1.0767615205209866;0.0356887937187723;0.04303926676507328;30.0;53.73353913;86.83357113000001
2.117203184696681;1.061404618304579;0.0601611094116447;0.030168280555412017;30.0;53.733247289999994;86.83330489
4.342021312225066;1.0609245307423127;0.0295707147955541;0.02966647216463908;30.0;53.732926140000004;86.83307333999998
1.777362526809683;1.0675855150405245;0.0040787192821454;0.027209512719670863;30.0;53.732582060000006;86.83287262
3.844367171183865;1.0596047762760934;0.0132558376669725;0.026900142318689407;30.0;53.732220410000004;86.83270297
2.8475008981437604;1.122721908040453;0.0081574385642908;0.020276848790858774;30.0;53.731844020000004;86.83255442000001
2.154488207987408;1.3843430481900356;0.0132558376669725;0.030572261600498318;30.0;53.73145264;86.83243696
3.0314439237020205;1.5498212536703009;0.0071377587437544;0.024168359720367037;30.0;53.73107915000001;86.83236299000001
2.222686388675758;1.6627743807491528;-0.0112164780258998;0.023690402676443914;30.0;53.73070606;86.83229453999999
1.3693485774148784;1.8272131826050437;0.0040787192821454;0.027185566217856918;30.0;53.73034443;86.83221963000001
-0.6425402239695881;1.7034521454871883;-0.061180789232181;0.02703294948545622;30.0;53.7299848;86.83213648
0.1139072709124145;1.8507012726825423;-0.0035688793718772;0.027534292347081005;30.0;53.72959244;86.83203852
-1.273034268657772;1.7934948909422843;-0.0316100744366268;0.029367054206650534;30.0;53.729202570000005;86.83193025
-0.8908390298766629;1.4163089534557831;0.0367084735393086;0.030269781277618497;30.0;53.72881832;86.83181224
-0.9473625353861226;1.0596543669182081;0.0107066381156316;0.031390206532410314;30.0;53.7284357;86.8316805
-2.6565407202859386;0.8035264513501459;-0.0244723156928724;0.03270737710951139;30.0;53.72805561;86.83154105
-1.5134443122868086;0.876503913143707;-0.0469052717446721;0.02678393501984518;30.0;53.727679179999996;86.83138734
-0.8477303387693015;0.7376538086001764;0.0173345569491179;0.026858075269442772;30.0;53.72730564999999;86.83122373
-1.414254887659609;0.7450544099400538;0.0152951973080452;0.02561908205658967;30.0;53.726929580000004;86.83104734
-2.310821561521537;1.003153110034541;0.0224329560517997;0.02411140930272316;30.0;53.72655182;86.8308667
-2.594488216089639;1.0019205405187037;-0.0132558376669725;0.023733277520602326;30.0;53.72617097999999;86.83069834
-0.7599761595265944;1.032102482368329;-0.0081574385642908;0.02748100701086183;30.0;53.72582357;86.83055573
-1.117632635509683;1.3935007233329126;-0.0193739165901906;0.02544260649592981;30.0;53.72547094;86.8304335
0.6576136990941878;1.5812640048784479;0.0265116753339451;0.02648382649844996;30.0;53.7250999;86.83033382
-0.9758582815308208;1.7602193361099152;-0.0076475986540226;0.025619082056589682;30.0;53.7247175;86.83026118000001
0.4379099830118469;1.6850297637852794;-0.0509839910268175;0.024067768056119203;30.0;53.724336140000005;86.83021774
2.014685328419868;1.4244870862807837;-0.0326297542571632;0.024689041157644594;30.0;53.72394617;86.83020153
1.69612535883017;1.3589554389511953;0.0265116753339451;0.03277917759927952;30.0;53.72354977;86.83020961
2.347694741467345;1.1194144958821508;-0.0101967982053635;0.034981111609836045;30.0;53.72315041;86.83023009
2.1030575987502838;1.1603702811944114;-0.0265116753339451;0.03236205232697114;30.0;53.72272538;86.83020954
2.393187314640698;1.0025093265395058;0.0061180789232181;0.03777348350730086;30.0;53.7223118;86.83015692
2.284594810978908;0.7875102959694595;-0.0780055062710309;0.03856047618628817;30.0;53.72191034;86.83007546
2.217200572943544;0.8793511743311065;-0.0550627103089629;0.03773431533603641;30.0;53.72152155;86.82997338999999
2.9721498688136445;0.8018715516180431;0.0050983991026817;0.03707209717201619;30.0;53.72115208;86.82986248
4.450312314969215;0.8060314125469477;0.0397675130009177;0.037067422440996284;30.0;53.72079767;86.82975127
3.125422578141386;0.8395344408312907;0.0305903946160905;0.04308477401574965;30.0;53.720446749999994;86.82963586999999
3.998971798102392;0.8265760886054074;-0.0010196798205363;0.04666454280648864;30.0;53.72010977;86.82951649
2.5740475011130157;0.8015190616344562;-0.0387478331803813;0.03880775267060979;30.0;53.719780639999996;86.82939472000001
2.290339301285061;1.0945301599173163;-0.0152951973080452;0.031391172613523054;30.0;53.71946346;86.82928233999999
1.8168041916692963;2.4297801380184367;0.0591414295911083;0.030947511201121148;30.0;53.71917784;86.82922455999999
2.889875170554293;2.54072909185108;0.0520036708473539;0.030373415204554614;30.0;53.718890550000005;86.82920351
2.9861956008996;2.6092990727357;0.0361986336290404;0.030719282535320525;30.0;53.71860246;86.82920981999999
0.5242698921113376;2.584308615925834;0.0336494340776996;0.03353956187103441;30.0;53.71831794;86.82923762
-4.124268212882276;2.7363869172143223;0.023452635872336;0.0280964505294345;30.0;53.71804111;86.82927566999999
-1.764029988599673;2.7002431343493045;0.0137656775772407;0.02557818270752997;30.0;53.717752059999995;86.8293271
-1.4158785347396068;2.5617330162179814;-0.0010196798205363;0.022830102638361428;30.0;53.71747190999999;86.82938487
-2.5158928541022085;2.1579606086701153;-0.0285510349750178;0.021478189174071877;30.0;53.717198859999996;86.82945742
-3.709115200980024;1.3855170711861393;0.0224329560517997;0.02018183394561982;30.0;53.716938479999996;86.82953495999999
-3.1067036600117968;1.0123300553446057;0.0356887937187723;0.02743683054119195;30.0;53.71668409;86.82962617
-2.336558815174066;1.0411851175373048;0.0091771183848271;0.028898974601136905;30.0;53.71641339;86.82973947
-3.193014702149293;0.9956444655622769;-0.0101967982053635;0.028436699011603454;30.0;53.716145559999994;86.82985564
-3.704216766009349;0.9595432247304401;0.0010196798205363;0.02884570704588372;30.0;53.71587435;86.82997611
-1.2611628387047809;0.9602214265072496;-0.0571020699500356;0.028264123491283887;30.0;53.715605589999996;86.83009903
-4.303029047726747;1.1992546962285804;-0.0397675130009177;0.027452773821314082;30.0;53.71534465999999;86.83023234
-3.3145049745645223;1.3706564239446963;-0.0214132762312633;0.02237855867327666;30.0;53.715126170000005;86.83037225
-4.450212219051033;2.1147878920300114;-0.0275313551544814;0.02475510637375152;30.0;53.71494034;86.83052178
-2.507244200626601;2.5679583596277196;-0.0050983991026817;0.03258653085878918;30.0;53.71479074;86.83067170000001
-5.475175805071323;2.6531702387084657;0.0152951973080452;0.0325242521875419;30.0;53.71468181;86.83082901
-1.275564352189183;2.72047924883394;-0.0081574385642908;0.02752191205519685;30.0;53.71464746;86.83098922
1.9026793711674344;2.617133845946156;0.0254919955134087;0.04968828143011418;60.0;53.71468606999999;86.83113023
1.9220524533989307;2.5559998793306185;0.0540430304884266;0.05311869651605205;60.0;53.71477291;86.83126059
0.5746209525309611;2.223603839193071;-0.0122361578464362;0.0535395025096993;60.0;53.714912229999996;86.83137687
0.1194881649462362;2.4286883777398103;-0.0061180789232181;0.053744532308533655;60.0;53.715097809999996;86.83148053
0.3350763126413886;1.4479144978093728;-0.1356174161313347;0.05309911887867465;60.0;53.71535458999999;86.83156067
0.5227112660113217;1.2450249842790153;-0.0713775874375446;0.05341852914485454;60.0;53.715641229999996;86.83161179
0.083276188548821;1.3327805902198924;0.0081574385642908;0.05092606296360007;30.0;53.71594646;86.83164054
3.746145505748798;1.363225320885804;0.003059039461609;0.04244517195398589;30.0;53.7162665;86.8316457
2.424655043008129;1.3771902459713823;-0.0326297542571632;0.051493662672814036;30.0;53.71659665;86.83163281
2.3554273484308474;1.48628159391839;-0.0397675130009177;0.06453041862234034;30.0;53.71690391999999;86.83159703999999
2.9475517640068096;1.6467640486533752;-0.0316100744366268;0.05352169771475254;30.0;53.717215669999995;86.83154783
2.475119872611247;1.5934722680756004;-0.0438462322830631;0.050791588283759244;120.0;53.71753120999999;86.83149217
2.923724623038169;1.9180995061684976;0.0571020699500356;0.051682669502368966;120.0;53.717849810000004;86.83143445
4.544975001637923;1.8818868942331979;0.0938105434893443;0.05227112113761446;120.0;53.71816612;86.83137956
-0.6332733618668903;2.05390003272103;-0.0672988681553992;0.051592283434161876;120.0;53.71844575;86.83133151000001
3.5427618657325533;2.4024173088299663;-0.0438462322830631;0.05027939533941789;120.0;53.71871097;86.83129465
-1.5704575108531813;2.80277140497052;0.0244723156928724;0.05331277731808545;120.0;53.71897626;86.83129626
0.9749744413165246;3.3422667442458027;0.0183542367696543;0.050593316419098304;120.0;53.71921925;86.83132932999999
-0.6934601847522791;3.60995500984471;-0.0152951973080452;0.048248206349316376;120.0;53.719438839999995;86.83139020000002
-2.3979355374233537;3.017991080911352;0.0122361578464362;0.04469939011577577;120.0;53.719637660000004;86.83148406000001
-3.9373586787670543;3.379261544164754;0.0703579076170082;0.04218361726075248;120.0;53.719826669999996;86.83166539000001
-5.846834036657557;2.591815812334593;-0.0122361578464362;0.03925789379994697;120.0;53.71999645;86.83189149
-6.282284866206199;2.5469970958174453;0.0081574385642908;0.0438338468253582;120.0;53.720151290000004;86.83215641
-3.2631679439878094;1.9276726640534814;-0.07545630671969;0.04865866328430866;120.0;53.72029633;86.83245505
-7.208922061380843;1.4418452459593845;0.0448659121035994;0.05113886044095791;120.0;53.72043804;86.83278107999999
-4.137360284294392;1.207780074650308;-0.0101967982053635;0.05218540723790809;120.0;53.72057801;86.83312585
-5.055949250810711;1.7916605055486492;0.0693382277964719;0.048139736007205454;120.0;53.720702689999996;86.83346045
-4.820966504304583;2.170691042747815;0.0774956663607627;0.04785861441236833;120.0;53.72083428999999;86.83379685
-5.288994511762245;2.0435870005638246;-0.040787192821454;0.048708141072662824;120.0;53.72097092;86.83412804
-4.061830113731983;2.050878981281876;-0.0183542367696543;0.03846895192031175;120.0;53.721125040000004;86.83447928000001
-0.7620175988875161;1.744000860636881;0.020393596410727;0.041525583476448004;120.0;53.721274099999995;86.83477425999999
-0.4533660556974683;2.0652643308951366;-0.0040787192821454;0.04484479255069535;120.0;53.721428089999996;86.83505113
-3.3083021365848206;1.922897332189759;0.0356887937187723;0.04240704957854088;120.0;53.721583710000004;86.83531683
-3.060818388205708;1.795141158586212;0.0112164780258998;0.0338257851320478;120.0;53.72174216999999;86.83555977
-1.836401461198174;1.997052749062762;-0.0418068726419904;0.043692351575784515;120.0;53.721899050000005;86.83578321
0.4428662042698734;1.806702056823316;-0.0458855919241358;0.04457191968202067;120.0;53.72206243000001;86.83599523000001
-1.871370030249677;1.8612281394737527;0.0520036708473539;0.04510862049252268;120.0;53.722217539999995;86.83619386
-3.618627718179324;2.2784205004981484;0.0010196798205363;0.04538844849751824;120.0;53.72236342;86.83637814
2.194425353921869;2.130610563169669;-0.095849903130417;0.05068425881107491;120.0;53.72250279;86.83655591
-1.5618395161095548;2.1713577325662903;0.0224329560517997;0.05060555995193501;120.0;53.722622630000004;86.83669367
0.1212094164488296;2.2214486294214013;0.0280411950647496;0.04926954949942606;120.0;53.72273395;86.83679987000001
2.870963726854037;2.3043543213921174;0.0122361578464362;0.051227030250103174;120.0;53.722831760000005;86.83687208
-1.2264884030374668;2.2687833204022145;0.0764759865402263;0.0502433370940836;120.0;53.72291176;86.83690856000001
2.385924340082379;2.2588742662977928;-0.0040787192821454;0.05185263777080026;120.0;53.72296807;86.83692647000001
-2.367231082316871;2.1689141449096905;0.0346691138982359;0.04328034037912586;120.0;53.72300276000001;86.836933
-2.4312561840636326;2.5308826983727113;0.0887121443866625;0.052726228210151375;120.0;53.723014590000005;86.83692690999999
-1.1299279818227317;2.5314891214892365;0.0061180789232181;0.05354198392002361;120.0;53.72299884;86.83691372000001
-3.5537766918547407;2.3412766195130637;-0.0254919955134087;0.06383707848748933;120.0;53.722962329999994;86.83689257
1.4204590339316876;2.500867108123068;-0.0560823901294993;0.06212603804077657;120.0;53.72290459;86.83685531
3.8413780048013786;2.3493792765930674;-0.0774956663607627;0.06219991184813392;120.0;53.72282719;86.83678814999999
-0.2468340929016639;2.352558558645597;-0.0305903946160905;0.06618098229007609;60.0;53.72275058;86.8366885
-1.4717109801826969;2.369781744065707;-0.1091057407973896;0.058564409957285866;60.0;53.72268692;86.83659668
2.5068361890930806;2.433286058333597;-0.1029876618741715;0.05501653259997499;60.0;53.72264356000001;86.83651748
0.1756346090060216;2.128579881449117;-0.058121749770572;0.06481409138209059;60.0;53.72262212;86.83644996
-2.39994480793409;2.4537973568951013;0.0632201488732537;0.07298142589491616;60.0;53.7226198;86.83638108
2.4086624394767795;2.632064072734247;-0.1325583766697257;0.07191044480301842;60.0;53.72262713;86.83630649
-1.9579636791976145;2.9071961132566995;-0.0723972672580809;0.0790150617401463;60.0;53.72265828;86.836225
-1.0519569628881162;2.8953174753208653;0.0509839910268175;0.07855403445511473;60.0;53.72271006;86.8361411
-3.8481366954719713;2.725814742105873;0.0540430304884266;0.07402380778232337;60.0;53.72278301;86.83606301
4.756632194030644;2.71398888018847;-0.0305903946160905;0.08064923247693752;60.0;53.72287435;86.83601355
-4.004710571176894;2.6951577493618366;0.0662791883348628;0.07452736500304516;60.0;53.722959530000004;86.83601425
-1.0892268655514814;2.602441283921436;-0.1050270215152442;0.06688258472147408;60.0;53.72303108;86.8360218
0.3473887770998424;2.6764791104690295;-0.0346691138982359;0.06646882152508087;60.0;53.72308616;86.83603592
-0.2783015225713192;2.718439500708961;-0.1254206179259712;0.06033091243135372;60.0;53.72312502999999;86.83604407
1.0569258158785968;2.644439848904259;-0.058121749770572;0.05125473358645591;60.0;53.72315152;86.8360552
-2.817583732810041;2.029583809777864;-0.0356887937187723;0.05098897588447018;60.0;53.723171359999995;86.83607248000001
-3.076382346050794;1.792866669544599;-0.0662791883348628;0.032499200659274474;60.0;53.72318877;86.83608989
-2.500475453986229;2.124948445521255;-0.0346691138982359;0.028656500459089566;60.0;53.72320035;86.83610659
1.40210078506123;2.256158741787539;-0.0367084735393086;0.028720529087578557;60.0;53.7232048;86.83612384
1.4195038492087535;2.3035169346024897;-0.0428265524625267;0.011774371025259701;60.0;53.72320349;86.83613276999999
0.9472375225663896;2.29163046481122;-0.037728153359845;0.01050498435839621;60.0;53.72319849;86.83614057
3.2855124873997674;2.4538782528569967;-0.032119914346895;0.016306466142513586;60.0;53.723193200000004;86.8361532
2.3699758592135227;2.1964243590757078;-0.0336494340776995;0.014018382901292321;60.0;53.72318842999999;86.83616379
1.787391776557719;2.027490511972753;-0.0520036708473539;0.017404477268596827;60.0;53.723184630000006;86.83617535
0.2283057506515107;2.0487177352749395;-0.0418068726419904;0.023156749372986108;60.0;53.723180189999994;86.83618371
-3.790807529995143;2.0487177352749395;-0.0020393596410727;0.023156749372986108;60.0;53.723180189999994;86.83618371
-0.5850311485933076;2.0487177352749395;-0.0520036708473539;0.023156749372986108;60.0;53.723180189999994;86.83618371
-1.12771528833861;2.0487177352749395;-0.0040787192821454;0.023156749372986108;60.0;53.723180189999994;86.83618371
1.7969455182557363;2.0487177352749395;0.0152951973080452;0.023156749372986108;60.0;53.723180189999994;86.83618371
4.066561113312247;2.2432125634906246;-0.1116549403487305;0.04331702745873626;30.0;53.72917527;86.84480023
4.23929023355877;2.2432125634906246;-0.1004384623228306;0.04331702745873626;30.0;53.72917527;86.84480023
3.65644150206048;2.2432125634906246;-0.0616906291424492;0.04331702745873626;30.0;53.72917527;86.84480023
-0.7946701071811558;2.2432125634906246;-0.0836137452839808;0.04331702745873626;30.0;53.72917527;86.84480023
2.857286817873969;2.2432125634906246;-0.0774956663607627;0.04331702745873626;30.0;53.72917527;86.84480023
3.323011320527774;2.2432125634906246;-0.1193025390027531;0.04331702745873626;30.0;53.72917527;86.84480023
3.108360695464988;2.2952028888446723;0.0285510349750178;0.04268388335705124;30.0;53.729263270000004;86.84482935
4.520731530769304;2.3837861313462656;-0.0723972672580809;0.04290097433106617;30.0;53.72935271;86.84485735
6.954755261756445;2.3934755577606963;-0.1213418986438258;0.042939835273427755;30.0;53.729446589999995;86.84488211
7.259445526977658;1.795548458435244;-0.07545630671969;0.04329671999848046;30.0;53.72955373;86.84491757
5.447528691576787;1.7783759547593438;-0.1029876618741715;0.043958727021107084;30.0;53.72965959;86.84496199
6.082892707616262;1.7702896910082688;-0.1040073416947078;0.04367860003334835;30.0;53.7297632;86.8450144
5.247649933326083;1.5338353132975833;-0.1009483022330988;0.03536605435698748;30.0;53.7298635;86.84507886
7.854762354053449;1.343200625551229;-0.0652595085143265;0.055253830852624176;30.0;53.72995890999999;86.84514867
8.091944274767531;1.401062261737471;-0.0571020699500356;0.058640111023391915;30.0;53.73005071;86.84523279
8.7503546805402;1.625788516872681;-0.0326297542571632;0.05827251851542734;30.0;53.73013956;86.84533188
8.929525825619805;2.0451421994740238;-0.0071377587437544;0.05370840745327575;30.0;53.730229310000006;86.84547026999999
8.439399434724717;2.4807628953555776;0.0601611094116447;0.047372026749328694;30.0;53.73031937;86.84564481
8.66393818596503;2.8448116705674225;0.037728153359845;0.03961237010649039;30.0;53.73040941000001;86.84586797
4.881647516408817;3.254448574910217;-0.0142755174875089;0.03590164433687313;30.0;53.73049352;86.84614408
3.038443470592461;3.235482245998467;-0.0316100744366268;0.04536779501298677;30.0;53.730584820000004;86.84646066
2.544550297909009;2.9724547089448405;-0.0142755174875089;0.05985876642196363;30.0;53.73068594;86.84681266
2.1308198335110355;2.5788547999538083;-0.0428265524625267;0.06041271878251752;30.0;53.730797519999996;86.84716999999999
0.8865172981256615;2.3048707572887097;-0.0010196798205363;0.05963020401912824;30.0;53.730919889999996;86.84753045
2.869342388867174;1.7536476764238982;0.0968695829509534;0.05946286865275689;30.0;53.73105459999999;86.84788019999999
4.742586254490673;1.7414548061658444;0.1396961354134801;0.05802218110267282;30.0;53.73119723;86.84821482999999
3.923346916097153;1.7966246398889358;0.0672988681553992;0.05471711666502151;30.0;53.73134667000001;86.84850763
6.688810296017205;1.7290251725660142;0.0122361578464362;0.052861982634609235;30.0;53.7315064;86.84875952
5.537548382201193;1.635675610369995;0.0224329560517997;0.04669247891510399;30.0;53.73167232000001;86.84895616
4.7036175914981255;1.066136983683795;0.0356887937187723;0.04710631386764094;30.0;53.73184304;86.84908336
5.36289177628354;0.8403057306601095;0.0081574385642908;0.04259406565872922;30.0;53.73201425;86.84914705
4.225453125057946;1.0204336401795138;0.0112164780258998;0.023550704323051373;30.0;53.73217787;86.84914683000001
5.6231613097251385;1.1603192881036344;0.0071377587437544;0.025762250969147873;30.0;53.73232971;86.84910411000001
5.440259594248603;1.1275019687275643;-0.0050983991026817;0.02768179797971439;30.0;53.732471999999994;86.8490288
6.057502411423861;1.1244724537483197;0.0305903946160905;0.028013681110670284;30.0;53.73260219;86.84892603
7.194086548874342;1.1130943433770344;-0.0173345569491179;0.026900142318689233;30.0;53.732722880000004;86.84880096
8.1028370325301;1.1065842345265249;-0.0530233506678902;0.026045895358615373;30.0;53.732830469999996;86.84865767
5.632473006296778;0.9929785499452424;-0.0285510349750178;0.024368475144552513;30.0;53.73292166;86.84849542
5.719865654652415;1.0232744922553085;-0.0285510349750178;0.022799720551567374;30.0;53.7329968;86.84831456
4.812348954725163;1.0313842415754901;-0.0448659121035994;0.022220807081582576;30.0;53.73305243;86.84811419
5.535619471292171;1.047710968748884;-0.0214132762312633;0.014074311077832165;30.0;53.733091869999996;86.84789763
6.913439040113903;1.059834846763228;-0.0193739165901906;0.015758828242460145;30.0;53.73312165;86.84767397
7.102687384068747;1.0498503491059874;-0.0142755174875089;0.013001639687307241;30.0;53.733146999999995;86.84744332
7.330313886164192;1.1434442491021426;-0.0173345569491179;0.01401508605814941;30.0;53.73316762999999;86.84720539
7.203866381888268;1.33724358293296;-0.0076475986540226;0.015196783722423456;30.0;53.733183569999994;86.84695253
5.611855801673619;1.3528532974393304;-0.0020393596410727;0.016293708579766943;30.0;53.73319771;86.84669531
4.367435681978764;1.3840013509066398;-0.0040787192821454;0.019877872861773737;30.0;53.73320921;86.84642009000001
4.569362185650574;1.3076979968289535;0.0020393596410727;0.020621818183109545;30.0;53.73322105;86.84612729
3.735055345602783;1.2285898946803164;-0.037728153359845;0.020822520516702577;30.0;53.733232550000004;86.84582903
4.621786332201656;0.9741040661740418;-0.0499643112062812;0.021088795866983256;30.0;53.73324575;86.84552735
4.776307148814034;0.731896662116302;-0.0530233506678902;0.020880626156021275;30.0;53.73325926;86.84522086
5.5161045939146405;0.828303790244844;-0.003059039461609;0.019935906757818086;30.0;53.73327184;86.84491088
4.19431723103914;0.8168969324195672;-0.0295707147955541;0.017995816198387124;30.0;53.733282210000006;86.84460125
5.14484828792839;0.8000578613552559;-0.0316100744366268;0.013771446161784853;30.0;53.73329079;86.84429238999999
6.142699390271623;0.6504761185349409;-0.0356887937187723;0.015079256958976757;30.0;53.733296949999996;86.84399135
6.264276094209773;0.7738869536676322;-0.0423167125522585;0.013752138131032422;30.0;53.733298409999996;86.84368817000001
5.451642061346572;0.8491679118583302;-0.0305903946160905;0.011243354044314025;30.0;53.733298500000004;86.84339385999999
5.149662645383379;0.8681555478151048;-0.0305903946160905;0.011611348225204873;30.0;53.73329744;86.84306255999999
4.891787281806103;0.9011215198921768;-0.0142755174875089;0.011602390194252498;30.0;53.733298389999995;86.84271279000001
3.8004938927814855;0.9104100860287432;-0.0336494340776996;0.013621305099595037;30.0;53.73330436;86.84234244
3.998513540448759;0.8354180022596733;-0.0295707147955541;0.013972983123015339;30.0;53.733318829999995;86.84196011
4.237388230971373;0.5908850002273269;-0.0601611094116447;0.015651706966388776;30.0;53.73335626000001;86.84154441999999
3.89233241333368;0.4627910263948711;-0.0387478331803813;0.017243010550307896;30.0;53.73340685000001;86.84113165
4.376023611111316;0.39296324399238425;-0.0122361578464362;0.019131191138026814;30.0;53.73346953;86.84071816999999
3.75209632331433;0.33944173980494724;-0.0428265524625267;0.019506439135597072;30.0;53.733545379999995;86.84030762
4.48670792106356;0.39825641670910394;-0.0081574385642908;0.020546137218475365;30.0;53.73363141;86.83989445
4.208631833551355;0.9402902358382743;-0.0071377587437544;0.023977070477322986;30.0;53.7337241;86.83946746000001
4.76363924214025;0.9836315962221169;-0.0010196798205363;0.019778915715235237;30.0;53.7338167;86.83907622
3.806129068405307;1.0879140417601791;-0.0091771183848271;0.019651611631524565;30.0;53.73390961;86.83869041
3.4142603964203646;1.1270990837237422;-0.0461405118792698;0.019862410929977304;30.0;53.733997650000006;86.83828949
1.408483897851014;1.1634687759501345;0.0142755174875089;0.017789464052021812;30.0;53.734086000000005;86.83787608
2.772865861352539;1.7434539268362432;-0.0101967982053635;0.0414868336460488;30.0;53.73416493;86.83748397000001
5.152620047816673;1.7073095473184616;-0.037728153359845;0.04289818878657599;30.0;53.73423271;86.83707303
2.630235966337476;1.5857185680766057;-0.0265116753339451;0.04321767532365051;30.0;53.73427909000001;86.83664837
2.705811606209976;1.5673857518075096;-0.0183542367696543;0.04533181990920858;30.0;53.734299580000005;86.83621318
-0.8108691909792198;1.5479417834924094;0.1029876618741715;0.044448404924001116;30.0;53.73429427;86.83577267
3.606828296766432;1.490353083947009;-0.0382379932701131;0.04370798208758847;30.0;53.734254480000004;86.83533096
2.461429056929937;1.504727629740063;0.0101967982053635;0.043715910865418636;30.0;53.73418425;86.83488953
3.538172723667967;1.2817757326071102;-0.0489446313857448;0.045989990342646093;30.0;53.73407261999999;86.83446046
2.820508453630233;1.2831495085925957;-0.0346691138982359;0.046514521769182686;30.0;53.733924189999996;86.83408675000001
3.061149880616821;1.289236575640487;-0.0112164780258998;0.046669741488201896;30.0;53.73369673;86.83376201
2.139647252003239;0.7867616240692353;-0.0142755174875089;0.028232070135744993;30.0;53.73342133;86.83347125
1.4465874065568285;0.8454418297108952;0.0448659121035994;0.027398012283966343;30.0;53.73310618000001;86.83321753999999
1.9757616771680304;0.8567887361377236;-0.0346691138982359;0.02612649734948277;30.0;53.732761679999996;86.83299592
1.6442846534430984;0.8555133532356622;-0.0224329560517997;0.02637646262558268;30.0;53.73239306000001;86.83279882
1.7006475760819295;0.9257033517341241;-0.0387478331803813;0.025948797968663017;30.0;53.73199307;86.83262923
3.9346267357454594;1.0934733902382512;-0.0152951973080452;0.025784663064914178;30.0;53.73158281999999;86.83249545999999
2.913141683401077;1.3715739457207243;-0.0336494340776996;0.027104011170819974;30.0;53.73116228;86.83238980000002
3.5285037107855888;1.7021917382235936;-0.0509839910268175;0.0160366963040678;30.0;53.73074154;86.83230954
1.3146530808194885;1.781618522612198;-0.0214132762312633;0.01694155734942457;30.0;53.73031741;86.83222333
0.2925720105719599;2.144898819308894;-0.0183542367696543;0.01694155734942457;30.0;53.729927169999996;86.83213516999999
-0.5354485933474283;2.1653791006222916;0.0061180789232181;0.01658882889242603;30.0;53.729534560000005;86.83203696000001
-1.3517678130868975;1.87927568789118;-0.0122361578464362;0.02316572770922271;30.0;53.72914329;86.83192729
-0.2384919133662764;1.6215713809223762;-0.0438462322830631;0.022897368942704287;30.0;53.72875180999999;86.83180205000001
-2.509655199685607;1.0286730500165644;-0.0224329560517997;0.022795729896533057;30.0;53.72836082;86.83166194
-0.4737135372834772;0.8301007218614641;-0.0341592739879677;0.02341868354349756;30.0;53.727980509999995;86.83150691
-0.8757065257687927;0.7850871949294185;0.0265116753339451;0.02334902278846808;30.0;53.727603;86.83133932000001
0.057676733155743;1.1260549578464523;-0.0285510349750178;0.026452836830654157;30.0;53.72722589;86.83116445
0.1156150823748806;1.1552203135574994;0.0173345569491179;0.02863593264939219;30.0;53.72684781;86.83097837
-0.7733958662372228;1.1795217587276734;0.0071377587437544;0.02673563630692058;30.0;53.72647123;86.83080147000001
-1.2990924993004993;1.1363050759690876;-0.0163148771285816;0.027995375035237295;30.0;53.72609045;86.83063829
-3.384648848273021;1.708691587737892;-0.0550627103089629;0.027046621480000848;30.0;53.725694309999994;86.83049815000001
-0.1699897108315717;1.8464447676847184;0.0183542367696543;0.025096003219918575;30.0;53.72529411000001;86.83037955
0.0613304349889227;1.9084765527065184;-0.020393596410727;0.02597927716297315;30.0;53.72489220999999;86.83028997
0.6995936988295011;2.179942589640211;-0.0387478331803813;0.024900285212587064;30.0;53.724487499999995;86.83023342
3.419260322470993;2.185973057098904;-0.0020393596410727;0.022633931790841545;30.0;53.7240833;86.8302081
2.1900810013476883;2.056300930167385;-0.0367084735393086;0.024586292183668857;30.0;53.72367883;86.83021067
1.622069960850372;1.2686706106993748;-0.0397675130009177;0.023209758459611762;30.0;53.7232782;86.83022988
3.597517288033194;1.0926132398614647;-0.0499643112062812;0.01760240287716111;30.0;53.72288361;86.83025769
2.354485418178867;0.9767842795406453;-0.0183542367696543;0.01686124166974191;30.0;53.72249703;86.83025767
1.8745727251839484;0.8851492385470612;-0.0591414295911083;0.02123965842993724;30.0;53.72212207;86.83022319
1.985602231952824;0.8977348920986165;-0.037728153359845;0.024374163508116237;30.0;53.721774;86.8301516
2.6549218123537472;0.8987562429491543;-0.0540430304884266;0.027528417648492943;30.0;53.72144195;86.83005763
0.6962276119541653;0.9010131768322052;-0.0316100744366268;0.029543464384107865;30.0;53.72112091;86.82994907
3.1307797832081774;0.8854349062689801;-0.0774956663607627;0.028944973212792557;30.0;53.72079708;86.8298326
3.51041485213242;0.9163083223797075;0.0122361578464362;0.028635894827315548;30.0;53.72047339999999;86.82971628
2.1468597156386204;0.8856958572528643;0.0010196798205363;0.033581397369313364;30.0;53.72015226999999;86.82959482999999
3.2805074989271894;1.0437277265565517;-0.0007647598654023;0.03454184727884715;30.0;53.71983877;86.82947845
3.474621441749898;3.1746519237862363;-0.037728153359845;0.03212316250131099;30.0;53.71953405000001;86.82937597
3.294087852554909;3.65410223223325;-0.0316100744366268;0.031775760761833846;30.0;53.7192375;86.82930982
2.3592297796804376;3.6513008592300915;0.0346691138982359;0.021684035421897858;30.0;53.71895088;86.82927408
0.8302710064212332;3.5900947142394486;0.0101967982053635;0.02114700639324643;30.0;53.718671240000006;86.82926324
-6.957174086033308;3.5764566761337244;-0.0193739165901906;0.022188305398027987;30.0;53.71837454;86.82928654000001
-4.130538104503459;3.573677220605612;0.0005098399102681;0.0229084662346213;30.0;53.71808632;86.82932088
-1.3499325634710655;3.193924552328862;0.0061180789232181;0.022556279001690056;30.0;53.71781948;86.8293638
-2.05959708456532;3.0009152716188985;-0.0101967982053635;0.019587483445324527;30.0;53.71757014;86.82940374
-2.2017769634987734;2.5055776324397914;-0.0275313551544814;0.016655550751021667;30.0;53.71733802999999;86.82945067
-4.753729002867823;2.061297728066551;0.0112164780258998;0.01677993917049447;30.0;53.717114190000004;86.82950330999999
-2.4983871588500497;1.8075282324782147;0.0295707147955541;0.01573535166356738;30.0;53.71689628;86.82956188
-6.712965506583245;1.7996328735124396;0.0071377587437544;0.020522349419793078;30.0;53.71668022;86.82962742
-5.5329041334422415;1.680822021787504;-0.0081574385642908;0.02472802404767009;30.0;53.71646414000001;86.82970574
-2.2180736866512825;1.6542328904670909;-0.0142755174875089;0.029517925616661663;30.0;53.71624944;86.82979567999999
-4.967231303132741;1.6127308625694643;-0.0040787192821454;0.031265747458269724;30.0;53.71605846;86.82987862
-3.684393787366945;1.6147520454475217;-0.0428265524625267;0.031171011522414648;30.0;53.71586924;86.82996588
-2.39731112724564;1.5378824952412884;-0.0520036708473539;0.024828732520950723;30.0;53.715680139999996;86.8300507
-5.449183148329356;1.5125354713079446;-0.0622004690527174;0.025571406850379636;30.0;53.71549192;86.83014152
-2.565819627597467;1.5668124091970086;-0.0499643112062812;0.023432677122292512;30.0;53.7153005;86.8302317
-3.209855626683354;1.6011581762386111;-0.0540430304884266;0.020565368839385798;30.0;53.71511309;86.83032333
-4.372352391247743;1.616146403519247;-0.0428265524625267;0.013128858921061595;30.0;53.714926289999994;86.83042069
-6.576000367726699;1.617262027068948;-0.0846334251045171;0.012525885705375075;30.0;53.71475994;86.83052058
-1.884579151186052;1.7254056241179119;-0.0632201488732537;0.022927306706571383;30.0;53.71461898;86.83062026
-1.9209861448476853;2.830673475700499;-0.0428265524625267;0.022991462382161598;30.0;53.71450802;86.83072433999999
-1.995075291056888;2.9658384176338908;-0.0458855919241358;0.039544066323334084;30.0;53.71443403000001;86.83083210999999
-3.011171421677391;3.0881278274783517;-0.0560823901294993;0.03944651443804738;30.0;53.714400999999995;86.83094243999999
-1.2730137897389175;2.9132849899454225;0.0050983991026817;0.0398486270030427;30.0;53.71440842;86.8310497
4.535216142485801;2.201395019990676;-0.0632201488732537;0.03782463928767301;30.0;53.714455740000005;86.83115846000001
0.6344723549111868;2.290905434021948;0.0520036708473539;0.03661409477355853;30.0;53.71455035;86.83127611
1.319252981511618;2.203027091796429;-0.0244723156928724;0.03646470338909712;30.0;53.71468508;86.83139036
-1.2660425821335883;2.1165229128729317;-0.0550627103089629;0.03634093357550527;30.0;53.71485847;86.83149207
-0.3994238969122544;1.8320303632219013;-0.0662791883348628;0.036396205955567223;30.0;53.71506063;86.83157903
2.134646107102979;1.7161284717261742;-0.0367084735393086;0.03910693309402208;30.0;53.71528405;86.83164629000001
-0.1155680352529889;1.3720887503347705;-0.0336494340776996;0.037897109263347106;30.0;53.71552208000001;86.8317
1.492067805012189;1.554626769361923;-0.0193739165901906;0.02730360783232761;30.0;53.715769980000005;86.83173286
2.5663961365023327;1.6426555367547775;0.003059039461609;0.03118212827814645;30.0;53.71602531999999;86.83174756000001
2.6461647916140336;1.4424712534938169;-0.0825940654634444;0.03179160623243102;30.0;53.716294819999995;86.83174826
2.3664891232507914;1.2593212077948968;-0.0142755174875089;0.030327214224948086;30.0;53.716582040000006;86.83172572
3.5718399342252827;1.2933265922546007;-0.0672988681553992;0.03604187147694245;30.0;53.716917980000005;86.83167510000001
3.126355097700204;1.0181466730282611;0.0091771183848271;0.0367148066523789;30.0;53.71726297;86.83160537
3.945121282694753;2.0162030865904943;-0.0056082390129499;0.04357032068600784;30.0;53.717612450000004;86.83152477
0.6909677361927004;2.017632176171334;-0.003059039461609;0.04144917990664332;60.0;53.717954969999994;86.83144489
1.3150725285235796;2.4239378141397254;-0.0866727847455898;0.041293360881887675;60.0;53.71829195;86.83138251
2.600197431755604;2.905321785757117;-0.0071377587437544;0.04134229206551167;60.0;53.718617130000005;86.83133905
-3.0648619430235966;2.954081382586949;-0.1029876618741715;0.04043001556676245;60.0;53.718924560000005;86.83131879999999
2.608979629523376;2.9447094300013856;-0.0326297542571632;0.039752258453900145;60.0;53.7192081;86.83131562
-2.4052964863299025;3.6210552636290667;0.0122361578464362;0.03890883618260735;60.0;53.71946445;86.83133645000001
-3.784357540373177;3.8866140405222978;-0.0499643112062812;0.03781566624493053;60.0;53.71968678;86.83138213999999
-2.895349901595491;3.828075101744561;-0.0555725502192311;0.03585286020304042;60.0;53.71983759;86.83146127
-3.2596811854011167;3.257278300882586;-0.0764759865402263;0.03570999029026384;60.0;53.71995864;86.8315772
-9.155731245216714;3.3411154379192953;-0.0152951973080452;0.03117212337639091;60.0;53.72005908999999;86.83172373
-7.220221483392117;2.320340451715518;-0.0142755174875089;0.03278763510508984;60.0;53.72014868;86.83192084
-6.654235810914711;2.168775384918734;-0.0076475986540226;0.028891727986339825;60.0;53.72022442;86.83213226
-5.675821084634883;2.1120044972376038;-0.0672988681553992;0.031516923379773396;60.0;53.72029316;86.83235204
-6.914670975046931;1.9109852493122312;-0.07545630671969;0.03138454746013444;60.0;53.720361319999995;86.83258404
-3.042894526559292;1.9187182143501247;-0.0061180789232181;0.033591404771934986;60.0;53.720437960000005;86.83283476
-3.9284970552905953;1.8903985591791848;-0.020393596410727;0.03749967948460293;60.0;53.720526199999995;86.83310732
-5.8991964426303225;1.9441181505077674;0.0040787192821454;0.050359320820727624;60.0;53.72062888000001;86.83339944000001
-5.499813724500689;1.872260138957953;-0.0081574385642908;0.050501895719791495;60.0;53.72074529;86.83370017
-3.206149087706324;1.7967028264224025;0.0418068726419904;0.05184024306510319;60.0;53.72087365;86.83400261
-1.6641498117257578;1.74358157780453;0.0356887937187723;0.04140061922153543;60.0;53.72101349;86.83430885
-1.838246767391215;1.8068913156958688;0.0948302233098807;0.039923933934061705;60.0;53.72115623;86.83458215
-2.3545601369140314;2.186577538264002;-0.0142755174875089;0.03784830263726434;60.0;53.721313599999995;86.83484960000001
-2.9887941115516647;2.3657084558631856;0.0876924645661262;0.040917842483057035;60.0;53.72147787;86.83509579
-0.1227340183321209;2.348975442309887;0.0356887937187723;0.05311521657458269;60.0;53.72164772;86.83531172
-4.555113796236783;2.328059755446182;0.0275313551544814;0.053466087038835514;60.0;53.72181964;86.83550668000001
-7.101293264289448;2.736211329069124;0.0703579076170082;0.05331258770746567;60.0;53.72198847;86.83567295
0.6301386869866024;2.737545753667614;-0.020393596410727;0.05508287466674536;60.0;53.72215195;86.83580571
0.2057885197153575;2.7431577725059033;-0.0774956663607627;0.053597650564616565;60.0;53.72231001;86.83590745
-2.0075388641120715;2.960357182683614;0.0020393596410727;0.05391678583658563;60.0;53.72246175;86.83597471
2.345426789381768;2.944756128241728;0.0229427959620679;0.05613924193794033;60.0;53.722603570000004;86.83600133
-1.493827868597272;2.6876700850870163;0.1060467013357805;0.09126639156164577;60.0;53.72273863;86.83600838999999
-0.8004096329185989;1.510613401903954;0.0142755174875089;0.08561143425885438;60.0;53.72286164;86.83599828
2.4147809169690677;1.8704809031437335;-0.0499643112062812;0.08566997990791538;60.0;53.72297511000001;86.83599655
-0.7815175542365127;2.1627349679055428;-0.0448659121035994;0.08578600866189807;60.0;53.7230715;86.8360187
-1.1003343480941494;2.45317939405887;-0.22636892015907;0.08691970537806035;60.0;53.723148859999995;86.83603717999999
-0.364188320303883;2.1070821541570743;-0.0428265524625267;0.08495027048836738;60.0;53.72321128;86.8360484
-3.755831667388661;3.1527082559617847;-0.0489446313857448;0.0674070149528316;60.0;53.72326081999999;86.83605442
-4.146160428401942;3.6089018191004247;-0.0795350260018354;0.06255338405524605;60.0;53.723297;86.83605988
-4.692615403868536;3.5647861771009866;0.0214132762312633;0.06234619243217875;60.0;53.72332064999999;86.83608097000001
-1.379885005557714;3.6730240821101616;-0.0601611094116447;0.061896258950187;60.0;53.723329785;86.83612594499999
5.794262633422822;3.979213018362123;-0.0571020699500356;0.028311344876567154;60.0;53.723329865;86.836172105
4.6644799823276255;4.135387156036697;-0.0713775874375446;0.029327540972113028;60.0;53.723322815;86.836203455
-3.123781631140889;4.267052747884191;-0.0601611094116447;0.029607855089758432;60.0;53.723313565;86.83621468499999
-3.701914231135717;4.101099796221911;-0.0627103089629855;0.02791603069507281;60.0;53.723309095000005;86.836197415
-6.030822214933131;3.8994359408271326;-0.0703579076170082;0.013664491665536656;60.0;53.723311355;86.836174075
2.0266092125404165;3.9810969637813036;-0.0275313551544814;0.013972983123015464;60.0;53.723314835;86.836151955
3.032308881553246;3.9810969637813036;-0.0387478331803813;0.013972983123015464;60.0;53.723314835;86.836151955
0.1723240440471712;3.9810969637813036;-0.0550627103089629;0.013972983123015464;60.0;53.723314835;86.836151955
-2.563988243829552;3.9810969637813036;-0.0632201488732537;0.013972983123015464;60.0;53.723314835;86.836151955
2.9321715540699347;3.9810969637813036;-0.0662791883348628;0.013972983123015464;60.0;53.723314835;86.836151955
4.798292763905833;2.4945682693902738;-0.0774956663607627;0.07264466345498372;30.0;53.729406;86.84449336
0.0938168324549169;2.4945682693902738;0.0122361578464362;0.07264466345498372;30.0;53.729406;86.84449336
-0.168818183539941;2.4945682693902738;-0.1600897318242072;0.07264466345498372;30.0;53.729406;86.84449336
2.2543748661731198;2.4945682693902738;-0.1070663811563169;0.07264466345498372;30.0;53.729406;86.84449336
7.453633774005877;2.4945682693902738;-0.1366370959518711;0.07264466345498372;30.0;53.729406;86.84449336
5.995359707832344;2.4945682693902738;-0.1254206179259712;0.07264466345498372;30.0;53.729406;86.84449336
4.676792459478411;2.812428107718921;-0.1651881309268889;0.07698460717688907;30.0;53.729534539999996;86.8445579
3.699739517734264;2.6816575716136892;-0.0938105434893443;0.07417591529474304;30.0;53.72966026;86.8446401
5.819470820323604;2.166311968360731;0.0183542367696543;0.0716054579898144;30.0;53.72978044;86.84474236
4.222767464809206;1.7775239504528013;0.0173345569491179;0.08390002288241855;30.0;53.72989847;86.84486551
8.013806965654943;1.771557280411272;-0.0015295197308045;0.07973493414341186;30.0;53.730011239999996;86.84501412
8.36340857597233;1.9151431520034452;-0.0132558376669725;0.07161705328232511;30.0;53.730119560000006;86.84518643999999
8.513272152610018;2.0401607164521534;0.0020393596410727;0.04638005316134512;30.0;53.730222819999994;86.84538698
7.348745273305756;2.1546712409793476;0.0922810237585398;0.03392809139993278;30.0;53.730324870000004;86.84562215
7.358346096327059;2.4124236331496576;0.037728153359845;0.03473569570318131;30.0;53.73041321000001;86.84587177
4.101715673741871;2.449295721615061;0.0132558376669725;0.03464828084511008;30.0;53.73050171999999;86.84615484
3.579900853766511;2.6528447475545223;-0.0071377587437544;0.04871398135426331;30.0;53.730592709999996;86.84647111000001
2.915248422165433;2.543191990517139;-0.0316100744366268;0.0501132549524167;30.0;53.73069232;86.84681392
