acc_X;acc_X_std;acc_Z;acc_Z_std;class;lat;lon
-0.8622600445853393;4.010323632956749;-0.0367084735393086;0.039998846361032535;30.0;53.72932839;86.84436199000001
-4.721852783339429;4.010323632956749;-0.1014581421433669;0.039998846361032535;30.0;53.72932839;86.84436199000001
0.3418958226905979;4.010323632956749;-0.116243499541144;0.039998846361032535;30.0;53.72932839;86.84436199000001
6.703639026655487;4.010323632956749;-0.0764759865402263;0.039998846361032535;30.0;53.72932839;86.84436199000001
8.035593474892398;4.010323632956749;-0.090241664117467;0.039998846361032535;30.0;53.72932839;86.84436199000001
6.058609520117888;4.010323632956749;-0.0448659121035994;0.039998846361032535;30.0;53.72932839;86.84436199000001
5.428549011780236;3.781920616241367;-0.0576119098603038;0.04324816356901375;30.0;53.72942854;86.84439046
4.473274928302217;2.0493010662941917;-0.1570306923625981;0.05100879720108296;30.0;53.72953428999999;86.84444245
5.638951112653401;1.237597826138848;-0.0744366268991536;0.049033183172557615;30.0;53.729649189999996;86.84453431
4.762183999788554;1.5106568958422772;-0.0254919955134087;0.05259446176028267;30.0;53.72975923;86.84464435
6.654805520884982;1.4167190612442773;-0.0132558376669725;0.052451187507522805;30.0;53.72986497000001;86.84476801
5.884413271542177;1.4481479548483236;0.0173345569491179;0.057358664169821695;30.0;53.72996303;86.84490447
8.169810918450263;1.42321065630326;-0.020393596410727;0.05652262649609091;30.0;53.73005641000001;86.84506185000001
8.923196743644827;1.8283425656420482;0.0132558376669725;0.031032088344398957;30.0;53.73015223;86.84526519
6.956993600442967;2.2344081606719963;0.0081574385642908;0.020653935763460564;30.0;53.730246179999995;86.84549738000001
7.305949733070879;2.5534230368911817;0.0397675130009177;0.018717290237936664;30.0;53.730340639999994;86.8457608
5.824934046156315;2.743384667549553;-0.0091771183848271;0.017883684118196196;30.0;53.730435650000004;86.84605805
2.432394404484004;2.8334283329944148;-0.0193739165901906;0.037164496906668565;30.0;53.73053659;86.84639707
2.204809481294971;2.5858706833300746;0.0040787192821454;0.039439924287996364;30.0;53.73063945;86.84675593
1.928017128336228;2.102629672032052;0.0050983991026817;0.04067387928398162;30.0;53.7307547;86.84712462
2.1437167684489107;2.076601858855591;0.0061180789232181;0.04019660108988891;30.0;53.73088306;86.84749874
2.7242858024447325;1.917699780954138;0.1070663811563169;0.04006259021530802;30.0;53.731017539999996;86.84786618
4.182222694788369;1.8949743789908817;0.0734169470786173;0.03825064276078599;30.0;53.73116023;86.84821623
5.347895535014244;1.8354658058777502;0.0571020699500356;0.03599696836281969;30.0;53.73132368;86.84851024
6.780435553712858;1.6947118496165232;0.0214132762312633;0.03821528921228526;30.0;53.7314929;86.84876138
6.267850557503281;1.4465907494949284;0.020393596410727;0.03967476941280602;30.0;53.73166669999999;86.8489531
5.600913645927254;1.1363053648432084;0.0433363923727949;0.03936343460367308;30.0;53.73184658;86.84907922
4.947070034204647;0.8767188831525519;-0.0020393596410727;0.028905370103092756;30.0;53.732021759999995;86.84913151999999
4.528326942866513;0.8092827623445186;-0.0152951973080452;0.02284888132273995;30.0;53.732186950000006;86.84911751000001
4.890457018452396;0.8164986178406322;-0.0101967982053635;0.020242991591374968;30.0;53.732341500000004;86.8490647
5.592019799868078;0.7604088188553462;0.0112164780258998;0.020060111117930313;30.0;53.73248496;86.8489752
6.637516257578353;0.7301623994825189;0.0305903946160905;0.019549699652997854;30.0;53.73262268;86.84886204
6.587938108129157;0.7305470653516835;0.0152951973080452;0.014747706323195877;30.0;53.73275003;86.84872571
6.294389845265333;0.8327402416535167;-0.0163148771285816;0.016862355027178002;30.0;53.732846519999995;86.8485662
5.183893916796934;0.7578248685999098;-0.0010196798205363;0.01626887356951079;30.0;53.73292898;86.84838754
5.710486818842233;0.8326223040923798;0.0061180789232181;0.01575296237777393;30.0;53.732997020000006;86.84819958
5.521833481366611;0.8291142658291173;-0.0056082390129499;0.01588805648462315;30.0;53.7330509;86.84797441999999
4.209235738121167;0.8416128015246299;-0.0244723156928724;0.013038905821906685;30.0;53.73309450000001;86.84772618000001
5.733886918887476;0.7942062307897019;0.0081574385642908;0.013095378117682056;30.0;53.73313012;86.84746228
7.0887427875906965;0.8718502511009522;0.003059039461609;0.015853753270480796;30.0;53.733159779999994;86.84717450000001
6.051858691815604;0.9274904354170042;0.0132558376669725;0.016243556083241212;30.0;53.733183540000006;86.84686546
4.883909143231781;0.9166223879207009;-0.0112164780258998;0.018569265750976477;30.0;53.73320275;86.84653650999999
5.256206006545851;0.9115078146038151;-0.0219231161415315;0.018594678468071436;30.0;53.733219500000004;86.84619742000001
4.137096113038278;0.8420329829414468;-0.0346691138982359;0.021379800250069983;30.0;53.733234229999994;86.84586399000001
4.375759065263392;0.8330582210646319;-0.020393596410727;0.01965071142321779;30.0;53.73324711;86.84552871000001
5.147230229361729;0.5567704104427331;-0.0433363923727949;0.018932085845666205;30.0;53.733258660000004;86.84518698000001
5.273827002001437;0.43758243635342825;-0.0050983991026817;0.014873971983985004;30.0;53.73326813;86.84487133
5.147341079325745;0.5246527975274895;-0.0479249515652085;0.01477226375559225;30.0;53.73327571;86.84456659
5.530630778237163;0.6207808074471287;-0.0152951973080452;0.014905104839125934;30.0;53.7332802;86.84426644
4.692109671501951;0.5808451121311565;-0.037728153359845;0.015005527769364986;30.0;53.733282280000005;86.84397924
5.17277682653943;0.6614725848646981;-0.0122361578464362;0.015166344846636336;30.0;53.73328403000001;86.84370451
5.8897275046584925;0.8428179792754874;-0.0122361578464362;0.013874974653959019;30.0;53.73328647000001;86.84343815
3.9695003565908062;0.9485403770231556;-0.0326297542571632;0.013468096726279783;30.0;53.73328801;86.84316577
4.47132381992311;1.0461173245279358;-0.0142755174875089;0.01028085854672895;30.0;53.733288779999995;86.84288237999999
3.8355364047931153;0.9515133204968484;-0.0326297542571632;0.012055914273345177;30.0;53.73329089;86.84258752999999
3.214941773846598;0.960980954783463;-0.0183542367696543;0.01146403126138901;30.0;53.733295670000004;86.84228511
3.1506118633277693;0.8743165190479305;-0.0081574385642908;0.020342548529886827;30.0;53.73331568;86.84193392
2.870517997558027;0.587153487262563;-0.0214132762312633;0.02050122849801324;30.0;53.73334759000001;86.84156903
4.345327558739478;0.5993466051874952;-0.0418068726419904;0.022283367757090642;30.0;53.7333937;86.84119786
3.37492732959877;0.5602179610710863;-0.0326297542571632;0.02518790334881654;30.0;53.73345375;86.84082527
4.054402068124589;0.6732714481916154;0.0305903946160905;0.02428298978966646;30.0;53.73352714;86.84045322
4.475990386913165;0.6508266965348574;-0.0295707147955541;0.030012595297618485;30.0;53.73360983;86.84008791
4.191590926581035;0.630040059253149;0.0122361578464362;0.031138564982612568;30.0;53.733697830000004;86.83973303
3.399525101122659;0.5238586757055793;0.0214132762312633;0.030706493334646232;30.0;53.73378894;86.83938126000001
4.867025405392192;0.5541974333927201;-0.0010196798205363;0.029101891530966133;30.0;53.733879120000005;86.8390132
3.516147148323696;0.8461154223919792;0.0489446313857448;0.02922291595826745;30.0;53.73396975000001;86.83863535
4.4422440363770646;0.8435624858865614;-0.0285510349750178;0.02861651074320145;30.0;53.734046590000005;86.83828979
3.601416737209224;0.8267406625156192;-0.0122361578464362;0.02878797708732651;30.0;53.73411646000001;86.83793469999999
3.318956003507976;0.9447435159749606;-0.0285510349750178;0.033530949484231014;30.0;53.734186709999996;86.83757487
1.8733212759670952;1.0548882365348897;-0.0336494340776996;0.04758751638491796;30.0;53.73425409;86.83720193
3.5107728853447435;0.9043558369171854;-0.0367084735393086;0.051606752485299966;30.0;53.734293349999994;86.83677783
2.9836170760144567;0.9365227533331953;-0.0316100744366268;0.04934569678610301;30.0;53.73430683;86.83634075
1.8993548806405365;0.8247320934650126;0.0479249515652085;0.050423742775657414;30.0;53.73429582999999;86.83589455
1.8492708542184615;0.7982861047424468;0.1024778219639033;0.050423742775657414;30.0;53.73426001;86.83544401
2.265616672020779;0.7498259230275376;-0.0601611094116447;0.05118258343628487;30.0;53.734194630000005;86.83500231000001
3.871456290275209;0.7848832365050671;-0.0418068726419904;0.05234974363379954;30.0;53.73409668000001;86.83458436000001
1.9382369316647772;0.7031755794791936;-0.0479249515652085;0.050959512834948026;30.0;53.73396331;86.83419243
1.8712426100870247;0.6734183764067558;-0.0122361578464362;0.050485193578978876;30.0;53.73379107000001;86.83383843
2.500214438081412;0.6771364413487873;0.0193739165901906;0.04798878969831036;30.0;53.73356964;86.83351203999999
1.5425021744255398;0.7531657194638095;0.0372183134495768;0.03146909724470757;30.0;53.7332957;86.83321762
1.8080920386461183;0.7626151654438436;0.0061180789232181;0.026505192602324434;30.0;53.73300217;86.83300345
1.6723270720690222;0.5012606261143095;-0.0244723156928724;0.02860035782322898;30.0;53.73268117;86.83281813
1.81290384346669;0.6071966176437757;0.0061180789232181;0.026568046402410287;30.0;53.73234076999999;86.83266461
3.22576354269442;0.7683814043311168;0.0020393596410727;0.02703893183370767;30.0;53.73195554;86.83253282
1.870375811396988;0.7992966982058487;-0.0122361578464361;0.02607166414887013;30.0;53.73156417;86.83243841
1.7116174641057813;1.4013443499197673;-0.0545528703986948;0.020798580156374032;30.0;53.731169480000005;86.83235092
0.9161853694997044;2.094732602597819;-0.0326297542571632;0.02290083742409267;30.0;53.730765670000004;86.83226967
0.4063210006922862;2.173821598752553;0.0112164780258998;0.023439331927308432;30.0;53.73036695;86.83218839
0.5739772471979504;2.1364313495992424;-0.0198837565004588;0.02175184175615495;30.0;53.72997501;86.83210620999999
-2.0846425338144448;1.839957886224129;-0.0050983991026817;0.024731527742099312;30.0;53.72959466;86.83202026
-3.848264135208213;1.6505359587717512;-0.0509839910268175;0.0251959286619912;30.0;53.72921951000001;86.83192159000001
-1.6651401382911728;1.5091673343618393;-0.0346691138982359;0.021793030611874768;30.0;53.72885568;86.83181887999999
-0.992644845071542;1.3307925993125673;-0.0173345569491179;0.02085633705626488;30.0;53.72849314;86.83169954
-1.3292338791505869;1.1981937185153175;0.0214132762312633;0.02957506081258625;30.0;53.728167389999996;86.83157603
-0.7440558617069771;1.1423228060261985;-0.003059039461609;0.030119223915518703;30.0;53.72784702;86.8314451
-2.631455165868477;1.1238958685592204;-0.0152951973080452;0.030190483102190406;30.0;53.727530630000004;86.83131303
-0.9767814487800148;0.7644186981766826;-0.0132558376669725;0.026694932941052386;30.0;53.727226599999995;86.83117028
-0.9177772172809944;0.7651069239615429;0.0560823901294993;0.02446192786039448;30.0;53.72692044;86.83101772
0.2635980252002269;0.8385424068921364;0.0152951973080452;0.026738390868161786;30.0;53.72660977;86.83085553000001
-1.5496664338510318;0.8486855159925469;-0.0112164780258998;0.02645059849541989;30.0;53.726296090000005;86.83069289
-1.7856365461409969;1.0797100104656332;-0.0244723156928724;0.031341035138765974;30.0;53.72597944;86.83054519999999
-0.6937242741388259;1.3294799771480477;-0.0101967982053635;0.034267074959232896;30.0;53.725661179999996;86.83041382
-2.2484168688076256;1.443878529156642;0.040787192821454;0.03557060650194437;30.0;53.72534574;86.83031086
-1.6742828732448063;1.5073031627167859;0.0163148771285816;0.02859652016392404;30.0;53.72502903000001;86.83023223000001
0.8408089195532022;1.7651229664489716;-0.0479249515652085;0.027115091078997174;30.0;53.72469933;86.83017645
1.9906866029048105;1.8149389968048844;-0.0448659121035994;0.027115091078997174;30.0;53.72435703;86.83014390999999
1.1708633752225428;1.7442905821857861;-0.0336494340776996;0.027227339438805107;30.0;53.72400498;86.83014002
1.0499532563566505;1.8306808332210736;-0.0173345569491179;0.027492525913367268;30.0;53.723653090000006;86.83015677
2.6409613911264818;1.557900542534682;-0.023452635872336;0.024382826823674646;30.0;53.72329702;86.83018981999999
2.299888600494436;0.9926694202959748;-0.0112164780258998;0.019370207969803186;30.0;53.72293691;86.83022138999999
2.376290570609852;0.9464241833965524;-0.0020393596410727;0.01842336378258186;30.0;53.722580549999996;86.83023367
3.33700150188873;0.9318743615832408;-0.026256755378811;0.0271444868233795;30.0;53.72223031;86.83021878999999
3.851297719485807;0.8446644474997733;-0.0683185479759355;0.031802290366875124;30.0;53.72189128;86.83016648
2.7940611325662945;0.5944852707326517;-0.0326297542571632;0.03242803830087656;30.0;53.72155912000001;86.83008776
3.6163253705634686;0.5960960589939347;-0.0265116753339451;0.032140600262412895;30.0;53.721245520000004;86.82999176000001
2.82207582349053;0.6107008516568926;0.0387478331803813;0.036038796196459916;30.0;53.72093608;86.829882
3.7328053441647175;0.5792952554401821;0.0356887937187723;0.03609221067386363;30.0;53.72063675;86.82976443
2.4128144083867977;0.5779003207543867;0.0076475986540226;0.03783838109881279;30.0;53.72034014999999;86.82964446999999
2.6168708680987;0.5062785594254546;-0.0127459977567043;0.036968139975065664;30.0;53.72005507;86.82952579
2.1919270379127496;0.5499609459802882;-0.061180789232181;0.03634331773924006;30.0;53.7197813;86.82941842
2.778957678430296;1.200025392266336;-0.0316100744366268;0.035397889567180096;30.0;53.71950181;86.82932581
3.3136507373608985;1.7504081190225775;0.020393596410727;0.03416544562173136;30.0;53.71922044;86.82925948
3.221461502719088;1.80841285883874;0.0489446313857448;0.032593620589930386;30.0;53.7189353;86.82922522
2.2663984837186493;2.1488444189930336;0.0295707147955541;0.033688936358916045;30.0;53.71864011;86.82922699
-0.648718543576064;2.220266738612387;0.0316100744366268;0.0334688748775398;30.0;53.71833647999999;86.82924848
-1.6167829212707754;2.5411160439994758;-0.003059039461609;0.026723480441377477;30.0;53.71803794;86.82929042
-0.5410166945253896;2.4488678581221324;0.0040787192821454;0.025154169073532462;30.0;53.717741939999996;86.82934514
-2.270790166124378;2.177913263604157;-0.0244723156928724;0.028359404226043515;30.0;53.71743801;86.82941497
-1.4516253405217647;1.6579384830679582;0.0091771183848271;0.03507000282769481;30.0;53.71712585;86.82950473000001
-3.6737942778052544;0.9989494483965486;0.0397675130009177;0.0395160101045966;30.0;53.71681118;86.82960990000001
-2.1579375601781177;0.8792199288788705;-0.0224329560517997;0.039664831440448814;30.0;53.71649986;86.82973122000001
-2.785491978329922;0.857216437844322;-0.0295707147955541;0.04001065041978268;30.0;53.71618448;86.82986128
-2.7352012963701986;0.7090450226659069;-0.07545630671969;0.040076429458704634;30.0;53.715859939999994;86.83000265999999
-2.749213392903897;1.5227905069280636;-0.0764759865402263;0.04020464765209338;30.0;53.71553186;86.83014562
-1.7502596589095682;1.7360438129171198;-0.0723972672580809;0.03615416487043369;30.0;53.71516851;86.83030450999999
-2.247730156889316;2.3395818840487386;-0.0571020699500356;0.02360631582734372;30.0;53.71479674999999;86.83046267
-1.316788965023371;2.460233620802554;-0.0734169470786173;0.02360631582734372;30.0;53.71442107;86.83061691
1.9432241202546816;2.466000065444794;-0.058121749770572;0.022622699829772955;30.0;53.71405122;86.83076674
0.739861320849501;2.3024622048153796;-0.037728153359845;0.02171835569452332;30.0;53.71368627;86.83090867
3.983873718743717;2.288896606840441;-0.0152951973080452;0.019589179053685898;30.0;53.71331857;86.83104528999999
2.0100718783057427;2.385513912124036;-0.0224329560517997;0.01743225089542804;30.0;53.71293847;86.83117718999999
2.3690110785569147;2.2420738518337013;-0.0418068726419904;0.018754287059222118;30.0;53.712547369999996;86.83130064999999
-0.9357157679056836;2.1831273540688314;-0.0356887937187723;0.023032691562848387;30.0;53.71214913;86.83140929000001
-2.652914059850272;2.1465736670206867;-0.0530233506678902;0.022502949844511885;30.0;53.71175077;86.83149221
-2.613916542724513;2.2658829572762356;-0.0397675130009177;0.02329006896011255;30.0;53.71138469;86.83153829
-0.1822534648166627;2.056970687069186;-0.0152951973080452;0.021819520105261267;30.0;53.711024859999995;86.83155478
-0.3525096490286601;2.077655721353929;-0.0922810237585398;0.02356229066227253;30.0;53.71066089;86.83154153
1.3768561176909244;2.081139789459295;-0.0499643112062812;0.02590786172876228;30.0;53.71029427;86.83150258999999
2.663742293872444;2.0559359293877053;-0.0214132762312633;0.026010664485236916;30.0;53.70992367;86.83145454999999
2.5076646464222825;1.6846730845959863;-0.037728153359845;0.030940044275889565;30.0;53.70955299;86.83140387
2.237351168268026;1.2424539112061466;-0.0081574385642908;0.031089785231796965;30.0;53.70919323;86.83134874999999
2.402579532026328;2.4385339936261787;-0.0050983991026817;0.030788074182690434;30.0;53.70884806;86.83129798
1.7435654181144538;2.6155572727517997;-0.0285510349750178;0.02230616775796957;30.0;53.708526219999996;86.83125773999998
1.4024954843559885;2.616466680922779;0.023452635872336;0.020769954355176482;30.0;53.708232540000004;86.83123286
-0.5294631200388916;2.5033561950489096;-0.0428265524625267;0.0232674262500328;30.0;53.70796875999999;86.83122764
-5.34925769139024;2.3904034376355763;-0.0316100744366268;0.029485814941048676;30.0;53.70772191;86.83124959
-2.318749872665957;2.281269725419502;-0.0418068726419904;0.02840275589572786;30.0;53.707484699999995;86.83130166000001
-0.3467003443627993;2.106694451928328;-0.0336494340776996;0.026780484148862662;30.0;53.707243840000004;86.831368
0.7481541813577494;2.134542134272086;-0.0560823901294993;0.02696619924715033;30.0;53.70700153;86.83142777
-0.8765186390990082;2.056700946054765;-0.0836137452839808;0.022772595672202574;30.0;53.70675506;86.83147314
-1.604483502020413;2.1577446914024168;-0.0356887937187723;0.022983421300379708;30.0;53.706507339999995;86.83149934000001
0.8036468861674704;1.3423800933031824;-0.0469052717446721;0.0222862838303024;30.0;53.706251970000004;86.83149997000001
1.9584812606794304;1.093615674928323;-0.0244723156928724;0.024085042178752354;30.0;53.70598648;86.8314828
0.4855492739436367;1.1141078429861455;-0.0938105434893443;0.03410338261471459;30.0;53.70570739;86.83145715
1.3503704938430567;1.1194881803984782;-0.037728153359845;0.037662605722521454;30.0;53.70541873;86.83143729
-0.5379121378071704;1.0869829495906005;-0.0565922300397675;0.034279083407422244;30.0;53.705135819999995;86.83143598000001
-0.4009755035012636;0.9532012924461922;-0.0214132762312633;0.035604570753532745;30.0;53.704867300000004;86.8314593
1.089725403301799;1.0382259040635735;0.0275313551544814;0.03494464052297105;30.0;53.70462897;86.83152305
-0.3532871058972162;0.8495748631114179;0.0112164780258998;0.03508420616861546;30.0;53.704418280000006;86.83163236
-0.5210812369040482;0.818600636044612;-0.0122361578464362;0.025507908881428155;30.0;53.704237590000005;86.83179215
-0.7576787860243611;0.6431010158799441;0.003059039461609;0.025888233966567347;30.0;53.70408748999999;86.83200812999999
-1.1543619887000856;0.6405157571722218;-0.0336494340776996;0.02260251934702673;30.0;53.70397243;86.83228731
-0.8827079816568887;0.7773099592778563;-0.0336494340776996;0.02252264249120204;30.0;53.70388587;86.83262314999999
-0.3457273276389466;0.7267309017768784;-0.0265116753339451;0.02126004576666644;30.0;53.7038204;86.83300568
0.3465960140052151;0.9037377550019643;-0.0418068726419904;0.017331224341772207;30.0;53.703768600000004;86.83341723999999
-0.2330508007710557;0.9196149161234459;-0.0285510349750178;0.01905252636759428;30.0;53.70372682;86.8338465
-1.7078717445486666;0.9239675563271514;-0.0173345569491179;0.023177880329207836;30.0;53.70369323999999;86.83428652
0.8510467299728786;0.9314811086353921;-0.061180789232181;0.024173318576596443;30.0;53.703664700000004;86.83473925999999
1.214855072076496;0.8941714825487034;-0.023452635872336;0.025060992808865663;30.0;53.70364095;86.83519935
0.2864763670413107;0.8902329893209228;0.0010196798205363;0.024838734399676113;30.0;53.7036222;86.83567468
0.4623944374533233;0.9705971072418743;0.023452635872336;0.023928341613931106;30.0;53.70360561;86.83615217
1.211512017647318;0.9891523093428332;0.0010196798205363;0.023679610851144964;30.0;53.70358549;86.83668757000001
-0.5171902433986977;0.8730157219936059;0.0061180789232181;0.025322619160958362;30.0;53.70356375;86.83723159000002
0.7043010565513564;1.0015332063001987;-0.0183542367696543;0.019378388354033372;30.0;53.70354132;86.8377826
1.4789937551427108;1.0459229371091656;-0.0326297542571632;0.019097344502864325;30.0;53.703518540000005;86.83834350000001
-0.4629839950472935;1.2629821296048591;-0.003059039461609;0.018937882051557303;30.0;53.70349714;86.83890321999999
-1.1729451609310602;1.4257575195923786;-0.040787192821454;0.015018514198759438;30.0;53.70348115;86.83946067
-1.2729651025099609;1.6424201628783537;-0.0101967982053635;0.015645800940249307;30.0;53.70346847;86.84001375
-1.4026180511682236;1.6752134594066777;-0.0193739165901906;0.014284012291883237;30.0;53.703460670000005;86.84056147000001
-2.3811050706045545;1.7347734145323326;-0.0020393596410727;0.014644628187495085;30.0;53.70346350999999;86.84115311000001
-2.695915548453385;1.2762374461687045;-0.0173345569491179;0.014530586517875553;30.0;53.703475090000005;86.84175861
-4.164204255584319;1.1737085021105416;-0.0367084735393086;0.019306416652473533;30.0;53.70350193;86.84230513
-2.545690372571018;1.2604753139817442;-0.0367084735393086;0.01740074310557037;30.0;53.70354641;86.84284625
-4.354537070712558;1.293394398653609;-0.0112164780258998;0.01744053295844483;30.0;53.70360851;86.84337427
-2.7897797507533117;1.3108947674560876;-0.0081574385642908;0.019342286659220345;30.0;53.703686919999996;86.84389811999999
-3.859668671109629;1.463616568145142;0.023452635872336;0.01929953395429373;30.0;53.703781389999996;86.84442011
-0.6258398614099338;1.5068676046243237;-0.0050983991026817;0.02722733943880514;30.0;53.70389021;86.84494877
-1.0126656575786388;1.3467072891360583;-0.0081574385642908;0.02630189817803826;30.0;53.704013350000004;86.84548151
-1.239090157797889;1.4045970780019317;0.0163148771285816;0.027679085131577942;30.0;53.704151380000006;86.84601889999999
-0.5187014338507886;1.1699462926671989;-0.0152951973080452;0.0280373838811718;30.0;53.70430054999999;86.84651367000001
-1.159192712933678;1.10240300630581;-0.0703579076170082;0.03110724519578392;30.0;53.70445768;86.84699848
-2.262771244365521;0.7022173472026804;-0.0040787192821454;0.02747470043547161;30.0;53.70461722;86.84748570000001
-0.5973369176577648;0.7293073439970471;-0.0479249515652085;0.02805020593860007;30.0;53.704768130000005;86.84797453000002
-0.2388853093852545;1.1146548850527578;-0.0275313551544814;0.029124361605165457;30.0;53.70490906;86.84846874000002
-0.4153027788397575;1.2082583851923974;-0.0586315896808402;0.025470686628834623;30.0;53.70503982;86.84895278
0.3514315724424908;1.7944152203234698;-0.037728153359845;0.026411041519587102;30.0;53.705158059999995;86.84942686
-0.1445399313799137;2.0833596885924486;0.0010196798205363;0.023376467220932177;30.0;53.70525738;86.8498769
-3.376509763946041;1.9904723074065176;0.0040787192821454;0.03466698950018879;30.0;53.70533699;86.85030467
0.5777042200412283;2.2245443459884853;-0.032119914346895;0.04089683805427093;30.0;53.70539140000001;86.85071748
3.3979258348153385;2.3528335952360537;-0.0571020699500356;0.04753249754401272;30.0;53.70540665;86.85109625
3.1546905106517844;2.3249428427564545;-0.0433363923727949;0.05186842628434629;30.0;53.705387859999995;86.85144865999999
1.9710341550469868;2.3628607203586176;-0.1193025390027531;0.05663574618629267;30.0;53.705341329999996;86.85177845
3.943088329929403;2.295977407867268;-0.1101254206179259;0.060912535184276126;30.0;53.705277769999995;86.85208608999999
3.796278878334469;1.0861591878951224;0.0295707147955541;0.06031683630189998;30.0;53.70520643;86.85238595
3.080070409551245;0.8380203307239548;0.0275313551544814;0.0604570918253257;30.0;53.705138379999994;86.85268398000001
3.8073023490734825;0.9765465699967923;0.0387478331803813;0.0696972063650258;30.0;53.70508331;86.85297707
3.89591836121114;1.1175617544411078;0.0479249515652085;0.07015943871540183;30.0;53.70504666000001;86.85326810000001
2.274849310764365;0.9655359441286471;-0.0152951973080452;0.06535505568014069;30.0;53.70502649;86.85354489
4.809952522161871;0.9671387630786499;-0.0061180789232181;0.05826966854846833;30.0;53.705027640000004;86.85380204
5.000337959505607;0.9722692992420281;-0.133578056490262;0.05625210572050432;30.0;53.7050598;86.85404924000001
5.400151946483292;0.9323101518648256;-0.0571020699500356;0.053693482732762456;30.0;53.705122040000006;86.85428300000001
4.977326662722786;0.9374888580942355;-0.0780055062710309;0.04902154851276602;30.0;53.70521793;86.85449665000002
3.8692096760343095;0.9163178625420008;-0.023452635872336;0.03965496381048628;30.0;53.70534583;86.85468599000001
4.578697723434662;0.770362697302914;-0.003059039461609;0.0389865511529762;60.0;53.70549528;86.85484568000001
5.129393879467532;0.9036911120385025;-0.023452635872336;0.04246384622571834;60.0;53.70566209;86.85496896999999
5.139987213030453;0.8983951112409444;-0.0489446313857448;0.03284330328988896;60.0;53.705836399999995;86.85505624
4.312062163951275;0.8153537098573399;-0.0418068726419904;0.03268689525110456;60.0;53.706014679999996;86.85511164
2.820943114011617;0.9553795068486588;-0.0254919955134087;0.037610855202068846;30.0;53.706204490000005;86.85514785000001
3.0694601351740616;1.301044873638454;-0.116243499541144;0.037451559904258795;30.0;53.7064018;86.8551634
3.8127432300866166;1.2758533983152764;-0.0275313551544814;0.03637414876841783;30.0;53.70660115;86.85516050999999
3.986525067038695;1.7742814824889301;-0.0527684307127561;0.0360046399353445;30.0;53.70680137000001;86.85515337
2.2674693769615764;1.5781290248383708;0.0295707147955541;0.03634881065455651;30.0;53.707001690000006;86.85515145000001
1.1089383657863008;1.819650104313742;-0.0336494340776996;0.03938511931848625;30.0;53.70719921999999;86.85515186
2.824050404699119;1.869755763312921;-0.058121749770572;0.03964794391859563;30.0;53.70739559;86.85515111
-1.0636978846450371;2.0548468773374955;-0.0336494340776996;0.031975370509512144;60.0;53.707583279999994;86.85516216
2.415545618636353;1.866563684036785;-0.058121749770572;0.03878457231364722;60.0;53.70775963999999;86.85519516
-1.1061965590754914;1.5393044319725695;-0.0897318242071989;0.0469244791709471;60.0;53.70792583;86.85524871
0.2949633292248877;1.457358703232205;-0.0214132762312633;0.04444018439708093;60.0;53.708076840000004;86.8553178
-1.446729065433032;1.464253661705256;-0.0622004690527174;0.0419792273603976;60.0;53.70821194;86.85541194
0.4365789393267997;1.4909915089549777;-0.113184460079535;0.05347202880151382;60.0;53.708329830000004;86.85552471
0.910349231569817;2.039324797118199;-0.1325583766697257;0.054555146894927846;60.0;53.70843086;86.85563342
1.3333704729739817;2.326583381465972;-0.15091261343938;0.059129805661571576;60.0;53.70851121999999;86.8557317
-0.2367988882376199;2.296876079773763;-0.07545630671969;0.0622845497391173;60.0;53.70857338;86.85581945999999
2.968998101429319;2.284005502938218;0.0254919955134087;0.06499164688975852;60.0;53.70861795;86.85590499
5.329421031500762;1.9978815792275635;-0.0214132762312633;0.06694605510303378;60.0;53.708646305;86.85597942500002
4.778132172379976;1.873614036406602;0.0020393596410727;0.06493031387918786;60.0;53.708658075;86.856039835
4.031827190972681;2.2600201656382652;0.0071377587437544;0.06212950138499628;60.0;53.708654815;86.856090335
3.547111970792308;2.2829595554026443;0.0112164780258998;0.03839835101246394;60.0;53.708637305;86.856126585
4.529954937999496;2.6754978572094155;0.0025491995513408;0.027838535227455632;60.0;53.708610914999994;86.856138595
4.388909457729886;2.686042345737038;0.0193739165901906;0.02780490063144898;60.0;53.708584130000006;86.85612461000001
-1.3048975973407306;3.202399108933824;0.07545630671969;0.02506058944367586;60.0;53.70856103;86.85610663
1.0615938008825847;3.107498185184143;0.0275313551544814;0.023978801972161606;60.0;53.70854336;86.85608896
-2.3698924473445806;2.981138272355431;0.0550627103089629;0.0227414382648899;60.0;53.708526140000004;86.8560743
1.8550683219510251;2.8139932191366346;0.0163148771285816;0.021264460446634787;60.0;53.708507399999995;86.85605555999999
-4.0214990011431295;2.3842181586344444;0.0489446313857448;0.017779050070577236;60.0;53.708487094999995;86.856032695
-1.1668278003644197;1.7930925747772204;0.0438462322830631;0.023903947483113846;60.0;53.70847281500001;86.856013295
-1.0771459650098862;1.8137125413050297;0.0438462322830631;0.025885723662680993;60.0;53.708466775;86.85599701499999
-0.991969745172522;1.637953493304516;0.040787192821454;0.030883750998591024;60.0;53.708469985;86.855987425
-1.8147189263275536;1.8326471072195119;0.0295707147955541;0.031052185162050615;60.0;53.708479515;86.855989275
-3.4052620430825864;1.7251748285543274;0.0978892627714897;0.031238577285062845;60.0;53.708491779999996;86.85600409999999
-0.4629858844970399;1.482119777533182;0.0010196798205363;0.034661782091583125;60.0;53.708504149999996;86.85602159
-2.180364658598683;1.5200803498285682;-0.0132558376669725;0.034554961753301805;60.0;53.708513440000004;86.85603599999999
1.2755271265340344;1.5996186961282528;0.0112164780258998;0.033616845191439225;60.0;53.708522505;86.856052745
1.235028617088993;1.6195233924655152;0.0132558376669725;0.03285737041351092;60.0;53.708532655;86.856070575
-2.22402850265492;1.6625972341154458;-0.0214132762312633;0.0342450274495139;60.0;53.708547235000005;86.856097955
-0.0;1.6625972341154458;0.003059039461609;0.0342450274495139;60.0;53.708547235000005;86.856097955
0.6281029188312615;1.6625972341154458;0.0127459977567043;0.0342450274495139;60.0;53.708547235000005;86.856097955
0.0580502961281693;1.6625972341154458;0.0020393596410727;0.0342450274495139;60.0;53.708547235000005;86.856097955
1.1617109158655747;1.6625972341154458;-0.023452635872336;0.0342450274495139;60.0;53.708547235000005;86.856097955
