acc_X;acc_X_std;acc_Z;acc_Z_std;class;lat;lon
-0.8221571787120168;2.0772941903192246;-0.0723972672580809;0.049601248564550234;30.0;53.72626636;86.84498892
-1.927773741252767;2.0772941903192246;-0.0632201488732537;0.049601248564550234;30.0;53.72626636;86.84498892
1.6382101668607594;2.0772941903192246;0.0550627103089629;0.049601248564550234;30.0;53.72626636;86.84498892
-0.8696186634822128;2.0772941903192246;-0.0499643112062812;0.049601248564550234;30.0;53.72626636;86.84498892
0.3489405988661029;2.0772941903192246;-0.0193739165901906;0.049601248564550234;30.0;53.72626636;86.84498892
-4.5424462813557644;2.0772941903192246;-0.0734169470786173;0.049601248564550234;30.0;53.72626636;86.84498892
-0.5111001067578765;2.1825113527506317;-0.1284796573875803;0.04882658856086815;30.0;53.726173429999996;86.84488318999999
2.935166465578257;2.232192967145387;-0.0662791883348628;0.048427814216256374;30.0;53.726070809999996;86.84477801
-2.3321972020443837;2.2628747179969397;-0.023452635872336;0.04924360327316019;30.0;53.72596189000001;86.84467421000001
-0.8979715960807404;2.2838603912196938;-0.0040787192821454;0.05616668211456584;30.0;53.72585064;86.84455528000001
-2.8058774678747063;3.228962439828162;-0.0275313551544814;0.05868934309314321;90.0;53.725755189999994;86.84441631
1.0906547059667522;2.89760975960135;-0.0540430304884266;0.05967196454030847;90.0;53.72568356000001;86.84427556
1.902126397633586;3.0089515860443443;-0.1580503721831345;0.060224469982664244;90.0;53.72564628;86.84415892000001
0.4978747262282329;3.058598418350545;-0.147853573977771;0.06200162475655307;90.0;53.72564108;86.84407436000001
6.751860282166059;2.8690116529233745;-0.1539716529009891;0.059740654500547;90.0;53.72567378;86.84402257999999
3.4879262329796554;2.7800351496375733;-0.1208320587335576;0.05500500836922837;90.0;53.725749199999996;86.84400328
4.253502510333783;1.9388076786739128;-0.0326297542571632;0.05309291778852023;90.0;53.72586003;86.84400659
3.69329901771413;1.7333187350178756;-0.0316100744366268;0.05888684069992049;90.0;53.72601388;86.84404012
4.736453300101747;1.6728418373509673;-0.0571020699500356;0.052715134695507586;90.0;53.726212450000006;86.84410557
5.338152411636933;1.1842880464768584;-0.0489446313857448;0.0451948150104836;90.0;53.72644967;86.84421479
4.177282818433504;1.188099849081935;-0.0474151116549403;0.030184599104074655;90.0;53.7267102;86.84437292
3.4417759459332364;1.194110022821646;-0.0010196798205363;0.01638588774561904;90.0;53.72698551;86.84456119000001
2.454821869217916;1.1877008263463447;-0.0458855919241358;0.023780387002089343;90.0;53.72726026;86.84475658
3.82258594625744;1.2129599104761863;-0.040787192821454;0.025228977474807342;90.0;53.72753298;86.84494738000001
1.100094843344939;1.1936145665873574;-0.0545528703986948;0.02405744565040979;90.0;53.72780113;86.84513873
4.087996939545632;1.0255323954791895;-0.0295707147955541;0.023012870613506937;90.0;53.72806534;86.84533126000001
4.109871423293452;1.094569054283362;0.0152951973080452;0.021646692264832092;90.0;53.72833085;86.84552765
4.475273533225547;1.1686346614894711;-0.0076475986540226;0.02186335575565768;90.0;53.72858966;86.84571478000001
2.8447293721712485;1.2233394091438008;-0.0142755174875089;0.02022836203086915;90.0;53.72883972000001;86.84589828
3.6422635573810074;1.5989467270194246;-0.0163148771285816;0.022854126479329998;90.0;53.72907757;86.84608237
4.807448342614724;1.526383985829326;-0.0142755174875089;0.017331974234294344;90.0;53.729298119999996;86.84626708
4.778139585400126;1.5388439352721848;0.0010196798205363;0.01486085924431066;90.0;53.729499780000005;86.8464457
5.462156283841812;1.65498773766072;-0.0081574385642908;0.013769768277352781;90.0;53.729687049999995;86.84662017000001
7.180533263239881;1.7125736222934536;0.0285510349750178;0.016370016607927515;90.0;53.729866060000006;86.84681198000001
7.7566389678216225;1.3800752692381106;0.0101967982053635;0.016708442549376843;90.0;53.73002749;86.84700925
6.113262433449151;1.4639178859934072;-0.0071377587437544;0.01587559943389699;90.0;53.73017205;86.84721525
7.456436604532589;1.576568998725525;0.0020393596410727;0.02198455337317256;90.0;53.73030686;86.84743710000001
7.325471675834754;1.6518239086331434;0.0265116753339451;0.031284217083029156;90.0;53.73043692;86.84767468
5.852243122725265;1.7954335471419003;-0.0173345569491179;0.031262791305711954;90.0;53.73056153;86.84791193
3.226719049960012;1.7157121849481332;0.0112164780258998;0.057183040670401586;90.0;53.73068678;86.84812934
3.854438148858812;1.648762577100875;0.0571020699500356;0.06420520060141867;90.0;53.73081463;86.84832630999999
4.029078555144127;1.799453610319312;0.0825940654634444;0.07018643843938974;90.0;53.73094409;86.84850953
3.604729449741273;1.7556468928361237;0.0509839910268175;0.07094705233918186;90.0;53.73107573;86.84867957000002
5.8306731133631935;1.6649622389092866;-0.1274599775670439;0.07018816672648416;90.0;53.73120578;86.84882242
7.25647729524203;1.6719289899453305;-0.0836137452839808;0.0702815954949158;90.0;53.73134451;86.84894579
7.775795541127272;1.4955157673778792;-0.0897318242071989;0.07157485756792309;90.0;53.731493379999996;86.84904601999999
7.029972401884567;1.4159373272390692;-0.0448659121035994;0.06665583543612799;90.0;53.731665220000004;86.84909754
6.200279896466024;1.2850246104758998;-0.0479249515652085;0.05741369887043568;90.0;53.73183657;86.84910505
6.068583841527733;1.0107066153347264;-0.0091771183848271;0.053660203148818926;90.0;53.732003729999995;86.84907765
4.888467605159114;1.093597025575287;0.0316100744366268;0.04413066199771498;90.0;53.732162859999995;86.84903454
4.557444870014071;1.1886460791202091;-0.0132558376669725;0.04127373717768449;90.0;53.73231456;86.84897376
5.805993271754467;1.1047606712785094;0.0163148771285816;0.03477043398384925;90.0;53.73246074;86.8488921
5.691382088563335;1.1104517637922748;0.0244723156928724;0.03406809133019045;90.0;53.73259943000001;86.84877991
7.498412539702307;1.1206857492419355;-0.061180789232181;0.032160621792939555;90.0;53.73273028;86.84863428000001
7.999597302631158;1.1784581404402725;-0.0591414295911083;0.03287824020244281;90.0;53.73285047;86.84846519
6.955126368610299;1.167996549851161;-0.0316100744366268;0.029754933525317016;90.0;53.73295621;86.84826885000001
5.268520049082209;1.0212058989671589;0.0010196798205363;0.029999504827987584;90.0;53.733028180000005;86.84806434
5.589118889455634;1.0122213745372197;-0.0020393596410727;0.03021802218944672;90.0;53.733084489999996;86.84784417
7.181441645734415;1.0039705671141184;0.0112164780258998;0.03127092005280568;90.0;53.73312919999999;86.84761752
7.58655909602484;1.027743591943354;-0.0101967982053635;0.03028695107684609;90.0;53.73316652;86.84737836
7.638800140764195;1.0936624174943228;-0.0244723156928724;0.029051630703188277;90.0;53.73319758;86.84712526
5.900151211285352;1.425866569642299;-0.0520036708473539;0.030766631452058428;90.0;53.73322229;86.84686325
5.765790743444125;1.5063053069225392;0.0305903946160905;0.02995118427428504;90.0;53.733241480000004;86.84659828
5.560191174451313;1.5557639583629819;-0.0540430304884266;0.030965051387893364;90.0;53.7332581;86.84633074
4.379792812843321;1.4583930608024331;-0.0499643112062812;0.027859639898706726;90.0;53.73327555000001;86.84602819
3.0789493320951165;1.2538607086924058;-0.0520036708473539;0.026827033453120805;90.0;53.73329339000001;86.84569787
4.210037376914324;0.9789279083795308;-0.014785357397777;0.0268167096087855;90.0;53.73330937000001;86.84536569000001
4.4645549109331775;1.0818031504722152;-0.0571020699500356;0.026108375300131437;90.0;53.73332282;86.84503354
5.892917102317347;1.090395821025912;-0.0331395941674314;0.014737445651081942;90.0;53.73333255;86.84470023
4.893949735310586;1.0789246888186423;-0.0367084735393086;0.014032926117901651;90.0;53.73333877;86.84437109000001
6.060217225177853;1.0590507549972754;-0.0247272356480064;0.013182234900796527;90.0;53.73334122999999;86.84403563
6.676483138156677;0.8793678453666163;-0.0295707147955541;0.015796834707771466;90.0;53.73334175;86.84368799
5.882447283213224;0.9341046191333552;-0.0244723156928724;0.015365868741772124;90.0;53.733346;86.84333128
5.0222718110327325;1.0855441730595725;-0.0244723156928724;0.016156576580570597;90.0;53.7333498;86.84295619999999
4.757302729329653;1.1965707434043489;-0.0254919955134087;0.01694720353751632;90.0;53.73335323;86.84260123
4.081094210609512;1.2357073856225107;-0.0652595085143265;0.019206394923795687;90.0;53.73335976;86.84226215999999
3.8242031129945513;1.1317437624307196;-0.0530233506678902;0.019220055508827088;90.0;53.7333733;86.84191473999999
3.3223438895609467;0.8347058456256365;-0.0622004690527174;0.01918824721312798;90.0;53.73339565;86.84156589
3.0949244843057047;0.630116703722851;-0.0214132762312633;0.019802174530515516;90.0;53.73343045;86.84120389
3.760117229238816;0.5827397736421275;-0.0081574385642908;0.019617540304078238;90.0;53.7334792;86.84083791999998
4.51103750943453;0.5563066550315939;-0.0244723156928724;0.024122846060880256;90.0;53.73354489;86.84048377
4.459500527926479;0.6000177470674836;-0.0311002345263587;0.0208498967410541;90.0;53.73362301000001;86.84014973
4.54742386694812;0.622613094231994;-0.0163148771285816;0.021009968716792216;90.0;53.73370637000001;86.83982349
4.664825396392077;0.5868539976671434;-0.0295707147955541;0.015257006048845414;90.0;53.733793809999995;86.83951157
4.5076348880122135;0.6318034354030353;0.0107066381156316;0.015340072920193005;90.0;53.73387953;86.83919793
4.787846989647311;0.6834510907784156;-0.0336494340776996;0.019480659101928754;90.0;53.73396104;86.83887496
3.5470284570342168;0.7600237175323946;0.0061180789232181;0.024251569659542494;90.0;53.73403598;86.8385403
4.803514171624769;1.3357028761040388;-0.0193739165901906;0.024208002128088654;90.0;53.73412176000001;86.83813968
5.89803388356438;1.7329361303721165;-0.023452635872336;0.05623793309995456;90.0;53.734208;86.83774464000001
3.433393605109367;1.7509261230840747;-0.0571020699500356;0.0577454814657577;90.0;53.734282140000005;86.83734261999999
3.465227761513728;1.7476805991603008;-0.0672988681553992;0.06171295693266276;90.0;53.734329960000004;86.83692964
0.9322706878433908;1.6803289330836695;-0.0224329560517997;0.06269579964474807;90.0;53.73435199000001;86.83650367
0.4710771699918716;1.6786184323829034;0.1345977363107984;0.0628385359364128;90.0;53.73434896;86.83606544
2.1616854772199674;1.584201908966849;0.0387478331803813;0.06289228850756269;90.0;53.73431982999999;86.83561647
4.460570902343689;1.219374935216459;-0.07545630671969;0.06340162167366863;90.0;53.73425887;86.83515359
2.9540075989657804;1.2064400085728222;-0.0520036708473539;0.06182657710899263;90.0;53.73416754;86.83470129999999
2.891708496474541;1.1787408229002312;-0.0418068726419904;0.05851457919234668;90.0;53.73400404;86.83426899999999
3.516689358369402;1.0389833401794577;-0.0101967982053635;0.05908514461086651;90.0;53.73377318;86.83393062
2.605137199720676;0.731847413717369;0.0091771183848271;0.03361031502921601;90.0;53.73349168;86.83362096
3.214761243782995;0.7910509388883035;0.0071377587437544;0.02886497473689717;90.0;53.73315963;86.83334267000001
2.2246324396444237;0.9804131606822883;-0.020393596410727;0.03487845758895472;90.0;53.732790550000004;86.83309135
2.3988354749424743;0.9827580124531352;-0.0346691138982359;0.03474604602370874;90.0;53.732395970000006;86.83286573000001
3.7359435435816857;1.0585939561788122;-0.0035688793718772;0.03470891188502175;90.0;53.731978219999995;86.83266814000001
1.7684202522251284;1.8462449747469352;-0.0571020699500356;0.03423975586618785;90.0;53.73154321;86.83250193
0.3481984354144948;2.3271554672885575;-0.1040073416947078;0.03133587411808866;90.0;53.73110018;86.8323789
2.040979818198366;2.224065138725964;-0.0499643112062812;0.02821707897126899;90.0;53.73064889;86.83227833
1.1004202145632869;2.189362294105963;-0.0178443968593861;0.027410659272200103;90.0;53.73023326;86.83219294
-2.8123592605340355;2.1065270821427933;-0.0387478331803813;0.027195497814072593;90.0;53.7298189;86.83210114
-3.043036611252544;1.7234238086430118;-0.0448659121035994;0.022864044749888953;90.0;53.729407370000004;86.83199936999999
-0.0548892577436663;1.5726528869359975;-0.0632201488732537;0.02359511832804165;90.0;53.72899784;86.83187656
-0.4291672695266136;1.5609819290875249;-0.0316100744366268;0.030678310082791774;90.0;53.72859896;86.83173624
-0.6366357954240085;1.2976721583331186;-0.0438462322830631;0.03320015313544347;90.0;53.72820222;86.83158269999998
-1.0554232659197262;1.1106510402944019;-0.0499643112062812;0.03290546085513619;30.0;53.727806959999995;86.83141784
-0.060410472350409;1.1247174597377783;-0.0693382277964719;0.03297998287109164;30.0;53.7274013;86.8312349
-1.2142412507191145;1.0178907428771231;0.0397675130009177;0.04084111523475575;30.0;53.72698534;86.8310391
-2.0033046417726705;0.9865958683761821;0.0071377587437544;0.04061191278108169;30.0;53.72654343000001;86.83086087000001
-0.2311774578209916;1.1425633098449042;-0.0275313551544814;0.043612956102277986;30.0;53.726091069999995;86.83070547
-2.8957965038637883;1.41689373489134;-0.0214132762312633;0.04310417626685689;30.0;53.72564027;86.83056699
0.4879026331480651;1.4115702245703112;0.0489446313857448;0.04242012396676433;30.0;53.725141410000006;86.83045469000001
-0.6186186184792939;1.6305342035777355;-0.061180789232181;0.040997983854054516;30.0;53.724651900000005;86.83036966
0.9715574868967018;1.9685492295119962;-0.0713775874375446;0.04289478024588601;30.0;53.72415136000001;86.83031968
1.916129058093192;1.9021980928816609;-0.0244723156928724;0.04220240726877645;30.0;53.723653160000005;86.83028484
0.1162544591387821;1.9971577047345381;-0.037728153359845;0.04224673085873921;30.0;53.72315264;86.83025024
2.215632118440832;1.407402636224608;-0.0565922300397674;0.04455613849505375;30.0;53.722661540000004;86.83020458000001
3.687100336493737;1.4052931209358257;-0.1050270215152442;0.033489794800007834;30.0;53.72219013;86.83015045
2.7142207389042112;1.0757571360951763;-0.0795350260018354;0.043193234127764685;30.0;53.72174404;86.83006788
3.215388581674997;0.9802900724336374;-0.0642398286937901;0.041820997933464006;30.0;53.72130112;86.82997056
2.297316866099716;0.9608387881321294;0.003059039461609;0.041978160941279714;30.0;53.72086111;86.82986847
3.15988709074813;0.5474255116921205;-0.0081574385642908;0.043300088561181935;30.0;53.720475150000006;86.82975387
2.5390223786869583;0.5444622868480173;0.037728153359845;0.04713818536567307;30.0;53.72009761;86.82963489
2.8305853562183554;1.0803518172465612;-0.0367084735393086;0.03777864425012469;30.0;53.71973751;86.82950774999999
2.529539059209962;1.9058140543754225;-0.020393596410727;0.03569834182397846;30.0;53.71937075999999;86.82939444
3.778735046134899;2.0629545243956264;-0.003059039461609;0.0279242545349348;30.0;53.71901153;86.82931169
3.7075240271306993;2.3422635972883636;0.0336494340776996;0.02871489707879479;30.0;53.718649389999996;86.82928491
-0.0608872998296494;2.695485257433205;-0.0050983991026817;0.028932684951502793;30.0;53.71827141;86.82930629
-2.298728704643979;2.738178362800323;0.0540430304884266;0.03267910767425764;30.0;53.71788409;86.82937208999999
-0.7006290300072113;2.7034091711090484;0.0081574385642908;0.037625433122285765;30.0;53.717498320000004;86.82947016
-1.834269827464248;2.679316939818908;-0.0147853573977771;0.04459718387039008;30.0;53.717107639999995;86.82959148
-3.500326963369548;2.1136026167291813;0.0239624757826042;0.04506874583622242;30.0;53.71670537999999;86.82972682
-2.0547759983443905;1.7746491507572155;-0.0540430304884266;0.04215279584868156;30.0;53.716279959999994;86.82988252
-2.57711929282017;2.199015561635737;-0.0683185479759355;0.0439212607896325;30.0;53.71584533;86.83005205
-3.5473548104492263;2.383933917669535;-0.0805547058223717;0.036118998239931324;30.0;53.71541426;86.8302277
-1.316854050636976;2.5726760070427823;-0.0336494340776996;0.03688664248381263;30.0;53.71497626;86.83041434
2.4005445972291715;2.823066663920437;-0.0040787192821454;0.03626778293755769;30.0;53.714542519999995;86.83059756
2.7124561668538565;2.573347862017553;-0.0601611094116447;0.027237308822120984;30.0;53.714117699999996;86.83077177999999
1.96921254570072;2.4983021383907937;-0.0642398286937901;0.027257289629911564;30.0;53.71366438;86.83094822000001
2.201884010210955;2.65383538985533;-0.092790863668808;0.03620206431406726;30.0;53.71319574;86.83110422000001
3.5285738425518605;2.3409353241078557;-0.0224329560517997;0.0416214545185363;30.0;53.712718089999996;86.83123329
1.5899893259499946;2.368146562297292;-0.037728153359845;0.04777695384497575;30.0;53.71221838;86.83133262
-1.274196168033657;2.352361440843236;-0.0474151116549403;0.047297587091299005;30.0;53.71173176999999;86.83138873
-3.579626420552203;2.316598687795518;-0.1269501376567757;0.052469107863510105;30.0;53.711244580000006;86.83140842
-1.1543877612878135;2.3365288732159653;-0.1244009381054349;0.05468628214609332;30.0;53.71074747;86.83140539
3.451043104535837;2.308120775316394;-0.1447945345161619;0.05666582572839508;30.0;53.71025149;86.83139581
2.0888371799013896;2.1809495389402143;-0.0071377587437544;0.06349796313199045;30.0;53.709756760000005;86.83138491999999
2.133899795330302;2.2834768293290204;-0.0010196798205363;0.06384705380685138;30.0;53.70926015;86.83138239
2.3658394669193936;2.5510766781318814;-0.0183542367696543;0.06387859813109208;30.0;53.708802909999996;86.83137315
1.3087095012172767;2.1957963489618133;-0.0010196798205363;0.05740484453890749;30.0;53.708365560000004;86.831371
2.1487277833990768;2.2024975001187883;0.0402773529111858;0.0520208848144598;30.0;53.70793222;86.83136773999999
-1.437632941281362;2.041407653667753;-0.0244723156928724;0.03697407710109994;30.0;53.707522229999995;86.83137246999999
-3.345097590214793;1.9842042379360116;-0.0520036708473539;0.04438620957679683;30.0;53.707114219999994;86.83138686
-0.79350957395967;1.9721911404857322;-0.052513510757622;0.053181513756614035;30.0;53.70671228;86.83140732
-1.2255775839094043;1.9085064626204642;-0.0856531049250535;0.06031415476192576;30.0;53.70631316;86.83143571999999
2.008242043666704;1.926773714654284;-0.0622004690527174;0.07136860397856615;30.0;53.70592226;86.8314749
1.1973918265062566;1.7498998369361018;-0.1091057407973896;0.0723279988182961;30.0;53.70554833;86.83155153
2.003412970299008;1.7489770968027925;0.0601611094116447;0.07219610367528115;30.0;53.705199019999995;86.83168350000001
-1.2721317948057949;1.420180595354501;0.0591414295911083;0.07093274167059012;30.0;53.70487837;86.83185949
-1.7006653920144692;1.4541163842737599;0.0978892627714897;0.06934497534932277;30.0;53.704590259999996;86.8321013
0.2352310703265698;1.732165034757525;0.0509839910268175;0.06446728040827589;30.0;53.70435243000001;86.83240874999998
-1.4230760417721862;1.5226731093321386;-0.0132558376669725;0.06275982264297872;30.0;53.704153180000006;86.8327855
-0.3521259575548181;1.3881408907493953;-0.023452635872336;0.05007058824043198;30.0;53.703987819999995;86.8333011
-1.2897445217538823;1.077923172938731;-0.0183542367696543;0.04860307427052722;30.0;53.70385596;86.83389884
-3.260337350599301;1.0730518061817031;-0.0356887937187723;0.04499396183545996;30.0;53.70376754;86.83457586
-0.1466158592660796;1.0347618846658513;-0.0443560721933312;0.026161627434218463;30.0;53.70370723;86.83528867
-0.5244867942887713;1.294704673318549;-0.0173345569491179;0.012245123967274332;30.0;53.703664720000006;86.83600904
0.2847698303928426;1.4109170245282663;-0.032119914346895;0.014801561817764977;30.0;53.70363382000001;86.83670518
-0.7430266964570684;1.4181945023765659;-0.0285510349750178;0.021693340364325343;30.0;53.703615449999994;86.83740617
-0.8175601117199527;1.4201831872250898;-0.0122361578464362;0.020763000393070885;30.0;53.70359953;86.83815313
1.7989241146870194;1.5466017555324298;-0.0458855919241358;0.020736275507521246;30.0;53.70359072;86.83891744
1.4104674668514614;1.9867741598712132;-0.0591414295911083;0.021943592394607973;30.0;53.70358761;86.83968489
0.0886497144035123;2.078297956256931;-0.0836137452839808;0.02320758068489295;30.0;53.703595289999996;86.84038889000001
-1.315624316838564;2.063859772170096;-0.0316100744366268;0.025031472377140797;30.0;53.70361596;86.84110332
-3.791592803424449;2.0549065197680743;-0.037728153359845;0.026439458595729094;30.0;53.70366831;86.84187759
-4.352974862425241;2.049378846587982;-0.0152951973080452;0.024870574027748893;30.0;53.70373931;86.84264747
-2.778794451563328;1.8141747179865555;-0.0703579076170082;0.024818261122180076;30.0;53.703831300000004;86.84342554
-2.3952951411691803;1.754967683200221;-0.0112164780258998;0.02409265565200218;30.0;53.70394391999999;86.84421144000001
-1.3375445502218757;1.6465997333832587;-0.0112164780258998;0.017708406930635044;30.0;53.70407781;86.84500325
-1.7574575376935426;1.7626398312692335;-0.0387478331803813;0.020092551603023222;30.0;53.70423323999999;86.845727
0.1687421057546929;1.6903801229798951;-0.0367084735393086;0.021250534110226944;30.0;53.704400699999994;86.84642694
1.0788284587204244;1.5469542168683774;-0.0265116753339451;0.023531074234143322;30.0;53.704576540000005;86.84712502
-1.8332050173350567;1.4013092892689603;-0.040787192821454;0.021787397445442537;30.0;53.70475274;86.84782602
0.1811236925767753;1.4574210300855044;-0.0020393596410727;0.060402487093791105;30.0;53.70491948;86.84851244000001
0.2846849612621063;1.553846607303046;-0.0520036708473539;0.07730790128734674;30.0;53.705037600000004;86.8491016
1.7248127018412118;1.6717700880423183;-0.0683185479759355;0.07873978167412234;30.0;53.70511354;86.84965626
0.6705015244130293;1.9088716007333302;-0.058121749770572;0.08157410239802176;30.0;53.70513743;86.85015631
2.538314794614612;2.1185676234988198;-0.2171918017742428;0.081103567062255;60.0;53.70511202;86.85061218000001
2.730498772681188;1.7972649873952231;-0.2202508412358519;0.08325208559137531;60.0;53.70500723;86.85101171
4.085021413217192;1.6432584727490689;-0.0173345569491179;0.08241877497054925;60.0;53.70485255;86.85135111
4.389488434844652;1.4099387812332358;0.0010196798205363;0.08453728922744634;60.0;53.704645559999996;86.85163564
4.6012653775668895;1.329132480369135;-0.0351789538085041;0.08595942214496038;60.0;53.704384319999996;86.85184544
4.585396045520109;0.8209089209370118;-0.0061180789232181;0.08981355770864824;60.0;53.70409503999999;86.85198111999999
4.18740229213601;0.6015892715907373;-0.0122361578464362;0.06878807145016927;60.0;53.703779659999995;86.85204974000001
4.636887187658506;0.2683724069242823;-0.0081574385642908;0.014977014408772206;60.0;53.70346152;86.85206952
4.748753358286909;0.30295017931253493;-0.0142755174875089;0.015557405615798386;60.0;53.70313618;86.85206162
4.786543378797551;0.37237034676878594;0.023452635872336;0.01685001834681557;60.0;53.702811329999996;86.85203885000001
4.367462750718071;0.3726754931343734;-0.0020393596410727;0.012954460379434735;60.0;53.70249432999999;86.85200345
4.921717681736003;0.46461824950092123;-0.0132558376669725;0.016620833205530615;60.0;53.70220384;86.85195616000001
3.91489207731422;0.6729307598387907;0.0091771183848271;0.01955974309160271;60.0;53.70192092999999;86.85191645
3.829284594501772;0.8547931601499176;0.0152951973080452;0.018927584935683896;60.0;53.7016574;86.85187820000002
4.608251218431169;0.9584833824887004;-0.0045885591924135;0.017163853107674227;60.0;53.70141878;86.85185206
5.333205834380294;0.9849548516902478;0.0326297542571632;0.01832029473722413;60.0;53.701183449999995;86.85183945
6.15854764254038;0.9862971579524646;0.040787192821454;0.021117810065333448;60.0;53.700954120000006;86.85183796
6.411047976584252;1.0130942803347065;0.0183542367696543;0.01887869255270255;60.0;53.70072801;86.85184224999999
6.308226814813375;1.0401861446730056;0.0244723156928724;0.0223413583560852;60.0;53.70050938000001;86.85185401999999
5.875403914040223;0.941254751723696;-0.0091771183848271;0.03388277373840437;60.0;53.70029417000001;86.85186665
4.352797751373336;1.035173344262621;0.0489446313857448;0.03386337596294441;60.0;53.70008184000001;86.85187704
4.416318089031516;1.5048365971118347;0.006118078923218;0.03277089417653135;60.0;53.69987648;86.85187648
3.721297412453167;1.83275343035079;-0.0198837565004588;0.03042832716612116;60.0;53.69963956;86.8518674
5.437021006240952;2.0243797662543854;-0.0652595085143265;0.029881819158885565;60.0;53.699390400000006;86.8518512
3.7907839648031696;1.828921879380163;-0.0040787192821454;0.028438324012262425;60.0;53.699118139999996;86.85183494
1.7054169951610127;1.6013073272107932;-0.0035688793718772;0.030627194252771793;60.0;53.698836240000006;86.85182184
1.0404566667246375;1.7414566105030522;-0.0152951973080452;0.024277993852592973;60.0;53.698542020000005;86.85180666
0.4855262849768699;1.8691639525057326;0.0091771183848271;0.026939409957713767;60.0;53.69823561;86.85179721
2.54103370775312;2.167494153062693;0.003059039461609;0.028251296289922442;60.0;53.69791636;86.8517954
2.667602365640925;1.7321502087939418;-0.040787192821454;0.03138933243340185;60.0;53.69759961;86.85180120999999
0.2420789212435498;1.6354700884933269;-0.037728153359845;0.031061484840959525;60.0;53.69728003;86.85180931
-0.5397593386617916;1.8679085522474055;0.0254919955134087;0.030594218176459822;60.0;53.69694756;86.85183012
-1.9752673879001712;1.9427050499059815;-0.0418068726419904;0.03244872805606028;30.0;53.69662945;86.85185505
-0.2266679493485507;2.015300521645183;-0.0805547058223717;0.03139485265018378;30.0;53.69629906;86.85188306
3.218502576289069;1.9875793335478025;-0.0127459977567043;0.03233138176874958;30.0;53.69597644;86.85190603999999
3.813592996349044;1.9453424358851252;-0.0163148771285816;0.03341208794829476;30.0;53.69564851;86.85191347
-0.554679584522082;1.9780645463306339;-0.0560823901294993;0.04101629599053575;30.0;53.695318220000004;86.85190573999999
2.7982865030533293;1.9941543420744214;-0.0560823901294993;0.03692064770972558;30.0;53.694988349999996;86.85189075
2.1055313456590583;1.7788386214921112;-0.0805547058223717;0.03729703422075077;30.0;53.694666330000004;86.85186825
2.0656403602308706;1.6839264976136445;-0.0662791883348628;0.03493075250843707;30.0;53.694339250000006;86.85183556999999
-0.2874786661285475;1.6881732240075804;0.0326297542571632;0.03400563831464806;30.0;53.69401137;86.85179441
3.148056828247149;1.7421509139732847;-0.0050983991026817;0.033784091971331996;30.0;53.69368816;86.85173488000001
-0.6686395477374022;1.7139954778862694;-0.0550627103089629;0.03366899800314178;30.0;53.69337626;86.85165338
0.9813755106473956;1.7478489086886098;-0.0540430304884266;0.038449877287093426;30.0;53.69307168;86.85153824
3.2594206408982727;1.8195325978140402;-0.0489446313857448;0.04032228841092771;30.0;53.69277563000001;86.85139323
-1.3193225719131525;1.9702232784088933;-0.0672988681553992;0.04711722615338657;30.0;53.69249734;86.85121733999999
-0.2780616484432534;2.0056564478507406;-0.0520036708473539;0.040980051164641984;30.0;53.692236660000006;86.85102322
3.0991006259116114;1.9460614539217798;-0.1040073416947078;0.03722413308488352;60.0;53.691994709999996;86.85080174999999
-0.771983082544388;1.9522241205910773;-0.0978892627714897;0.03877350301795685;60.0;53.691784580000004;86.85054554
-1.9103165152915995;2.018758679852371;0.0285510349750178;0.04022421850282814;60.0;53.69160588;86.85025164
2.106881899343209;2.0728577093564606;-0.0897318242071989;0.04023685369921703;60.0;53.69145058;86.84992226
2.6580887633496797;2.566857833382163;-0.0509839910268175;0.04039732006703685;60.0;53.691325299999995;86.84956145999999
2.483776921586234;2.6791989572340893;-0.0249821556031406;0.04168791346031798;60.0;53.69123021;86.84918477
-0.5899790534210444;2.48804107770388;-0.0224329560517997;0.03979687968546201;60.0;53.69116878999999;86.84880335
-2.4310351312718974;2.70404221683231;-0.0479249515652085;0.0330610205334631;60.0;53.69113159999999;86.84841544000001
-4.631121243624962;2.6634509048319615;-0.0316100744366268;0.029928032180275944;60.0;53.69110885;86.84803429000002
2.445181921561374;2.5834714646886976;-0.0163148771285816;0.022100970418138254;60.0;53.691099359999995;86.84765359999999
0.3447799695660771;2.3946770671144546;0.0122361578464362;0.022963872252847958;60.0;53.69109717;86.84723157
-3.396056262329225;2.407333781806955;-0.037728153359845;0.02719151498924138;60.0;53.69109113;86.84681849
0.9147793707440504;2.8062525258017503;0.0101967982053635;0.02886497473689715;60.0;53.69108046;86.84641614
0.909980930398632;2.8615317712259802;-0.0418068726419904;0.02963125735207127;60.0;53.6910676;86.84602184
-0.0;2.2695018390787296;-0.0571020699500356;0.03516216038604084;30.0;53.69104367999999;86.84562416
2.57741286192681;2.304760436028523;-0.0718874273478127;0.03889250225009708;30.0;53.69100677;86.84522885
4.203232038116742;2.274253910717288;-0.0632201488732537;0.03729114851277461;30.0;53.69095936;86.84484096
3.691274399344686;1.4694251394817843;-0.0071377587437544;0.042239893833482194;30.0;53.69090162;86.84445553999998
3.4872264243485462;1.4483565555152984;0.0295707147955541;0.049071955258673736;60.0;53.6908329;86.84407706
3.050168746065517;1.3786971188378463;-0.078515346181299;0.05156196082950936;60.0;53.69075418999999;86.84370139
1.021416093844044;2.2458575888316954;-0.003059039461609;0.052266286193344814;60.0;53.69067027;86.84336403
1.0860387504954394;2.88181385840976;0.0316100744366268;0.051442933968544546;60.0;53.69058808999999;86.84301561
3.27517182862049;2.9304414150695473;-0.1172631793616804;0.05598200602356614;90.0;53.69050793;86.84266665
3.2096678192971284;2.9233992505874067;-0.0876924645661262;0.05544223493441802;90.0;53.690419999999996;86.84231248
-3.4420759867139195;2.866045333644148;-0.0723972672580809;0.052544053770755855;90.0;53.69033451;86.84198379
-3.5488091306890444;2.7422602386614985;-0.0305903946160905;0.05244835850476682;90.0;53.69025211;86.84166330999999
-2.027911337513603;2.7262261942108688;0.0372183134495768;0.06315346561390017;90.0;53.69016655;86.84133967
-2.2640768421539805;2.7154440856279463;-0.0265116753339451;0.054638841450659455;90.0;53.69008067;86.84102594999999
2.96625088737656;2.5752527862034813;-0.0774956663607627;0.05856116114924784;90.0;53.69000296;86.8407076
1.5055425887844422;2.353436437053823;-0.0772407464056285;0.0619551938091674;90.0;53.689927839999996;86.84039440000001
0.1181602654667297;2.083381632817802;-0.1662078107474253;0.061904919926099394;90.0;53.689852640000005;86.84009904000001
0.7790684623924239;1.6371628876661344;-0.0632201488732537;0.06121104759344539;90.0;53.689763600000006;86.83981544
2.0164470730181625;1.4294111145353816;0.023452635872336;0.0561024775719641;90.0;53.68966443000001;86.83954987
1.0955876332788712;1.0495337576103994;-0.1244009381054349;0.05340669389324584;90.0;53.68956296;86.8393076
0.6718444620145083;0.9816903515812309;-0.0703579076170082;0.06664682763932527;90.0;53.689453639999996;86.83906515999999
0.197431370293838;0.9878470120405299;-0.0540430304884266;0.06690376259543913;90.0;53.68933907;86.83882515
-0.4595948433822989;1.0775458235730326;-0.1458142143366982;0.06659846371741351;90.0;53.68922853;86.83859941
-0.0883100375404793;1.214110107246798;-0.1024778219639033;0.07403451717052248;90.0;53.68911989000001;86.83838325
2.6469845444045133;1.361588981795674;-0.2131130824920974;0.05506294634545263;90.0;53.689015010000006;86.83817853000001
1.5843182614647078;1.3616778962465395;-0.1325583766697257;0.0634927776642239;90.0;53.68892412;86.83798012
2.527251805466282;1.3927064948729042;-0.1631487712858162;0.06071163718406937;90.0;53.68884648999999;86.83777193
-0.6715707713261534;1.526154832476651;-0.2212705210563882;0.06427677471905212;90.0;53.68878988;86.8375694
3.113537557545613;1.4285956976344412;-0.1040073416947078;0.08267691660490897;90.0;53.68875541;86.83738389
0.9960597956396346;1.351569502022809;-0.0336494340776996;0.09455944491984603;90.0;53.68873969;86.83721969000001
2.110315205743888;1.6063119607939031;-0.1198123789130212;0.0876842962078034;90.0;53.688730469999996;86.83707991
-0.957363734811384;2.9139333188422913;-0.0305903946160905;0.08744516627811964;90.0;53.68872371;86.83695539
1.0406510963023956;2.9139333188422913;0.0412970327317222;0.08744516627811964;90.0;53.68872371;86.83695539
1.307686486310663;2.9139333188422913;0.0367084735393086;0.08744516627811964;90.0;53.68872371;86.83695539
4.317997301640825;2.9139333188422913;-0.0101967982053635;0.08744516627811964;90.0;53.68872371;86.83695539
-6.156715064618458;2.9139333188422913;-0.0050983991026817;0.08744516627811964;90.0;53.68872371;86.83695539
1.7653754620734432;2.5385323722354705;-0.040787192821454;0.043434583598735275;30.0;53.722594990000005;86.84167339000001
-0.7892902482876366;2.5385323722354705;0.0214132762312633;0.043434583598735275;30.0;53.722594990000005;86.84167339000001
2.7968667115657437;2.5385323722354705;-0.0020393596410727;0.043434583598735275;30.0;53.722594990000005;86.84167339000001
2.3307922461146418;2.5385323722354705;-0.0254919955134087;0.043434583598735275;30.0;53.722594990000005;86.84167339000001
5.219159697979569;2.5385323722354705;-0.1040073416947078;0.043434583598735275;30.0;53.722594990000005;86.84167339000001
2.5285978304733496;2.5385323722354705;-0.0632201488732538;0.043434583598735275;30.0;53.722594990000005;86.84167339000001
5.200910775717806;2.4573096854064596;-0.0397675130009177;0.04346768553289047;30.0;53.722702979999994;86.8416713
7.259879066400206;1.733765127441622;-0.092790863668808;0.04425470463311009;30.0;53.722804329999995;86.84169585
7.029659791108429;1.588230580694516;-0.1070663811563169;0.044000231230499;30.0;53.72289759;86.84175839000001
5.086488014985514;1.3507239596017637;-0.0764759865402263;0.0452984782497932;30.0;53.72298281999999;86.84186154
5.200831210590693;1.3884669202329947;-0.0397675130009177;0.04133806529981784;30.0;53.72306085;86.84200612999999
5.2295326441386205;1.329939595299765;0.0254919955134087;0.057607748774680057;30.0;53.72313391;86.84217903
5.257061546301302;1.6008214246415409;-0.0040787192821454;0.06797771998949505;30.0;53.72320608;86.8423664
3.905298939553629;1.4154827175035296;-0.0101967982053635;0.06281279193273642;30.0;53.72328434999999;86.84253939
6.205936805079319;1.3588341714366932;-0.0489446313857448;0.0545229494674567;30.0;53.72336332;86.84268492000001
2.7998160784841946;1.4630796731089368;0.0846334251045171;0.04982063266699259;30.0;53.72344869999999;86.84280358
2.509916730228245;1.477425435055206;0.0846334251045171;0.05106561337394883;30.0;53.72354332;86.84289564
4.133983373455166;1.476544475553572;-0.0020393596410727;0.05117047796773422;30.0;53.72365098;86.84297258000001
6.700023752443974;1.478815143780045;-0.0438462322830631;0.05125980480344002;30.0;53.72377028;86.84303556
6.427576261421078;1.4529957893972516;-0.0367084735393086;0.05326519098686154;30.0;53.72390132;86.84308211999999
5.561596981522129;1.364841884480196;-0.0520036708473539;0.05165483223959174;30.0;53.7240456;86.8431112
4.471744097504907;1.2138259069189872;-0.0336494340776996;0.04076962788683477;30.0;53.72420248000001;86.84313496
4.173431694675303;0.9176434018048995;-0.0163148771285816;0.02066484017666078;30.0;53.72436741;86.84315653
4.8099243783741;1.0801990531302927;-0.0530233506678902;0.02001073838464238;30.0;53.724536;86.84319712
4.452550682003653;1.1288589968438862;-0.003059039461609;0.023527882797739715;30.0;53.72471700999999;86.84327060999999
5.157610701173842;1.0364002443033273;0.0010196798205363;0.028320269794944796;30.0;53.72490983;86.84337127
4.475144386144204;0.9475772948960485;-0.0214132762312633;0.027278208728085555;30.0;53.725109350000004;86.84348375
3.0743686527100214;1.002961824182389;-0.0499643112062812;0.027430250580413505;30.0;53.72531445;86.84360437000001
2.510919663290509;1.0181897868829388;0.0122361578464362;0.027601552235234597;30.0;53.725525770000004;86.84372865
2.7077957558603845;1.0217314672827649;-0.07545630671969;0.027094419131617097;30.0;53.725743720000004;86.843857
3.124479279958111;0.996915159999685;-0.0346691138982359;0.02619693090812209;30.0;53.72596886;86.8439951
5.052385354827872;0.9398825796353133;-0.0152951973080452;0.02456866515625959;30.0;53.726201460000006;86.84413298
3.3234112709960004;0.8231111342830062;-0.040787192821454;0.02469225796702816;30.0;53.7264415;86.84427574
2.684673208540452;0.8595940479578479;-0.003059039461609;0.027288159526957546;30.0;53.72668520999999;86.84442729
3.0370974649224407;0.8471423021409477;-0.0214132762312633;0.022640311104442083;30.0;53.72692382;86.84458142000001
1.8398299845692736;0.8631550899452598;-0.0265116753339451;0.01820643324523339;30.0;53.727158759999995;86.84474212
3.090171129871953;0.8692955869974585;-0.0387478331803813;0.029569200864345977;30.0;53.727393819999996;86.84491317999999
2.256976346412084;0.7378845536201842;-0.0703579076170082;0.029416432476432178;30.0;53.72762738;86.8450853
2.8141179979228736;0.7406860947378027;-0.0418068726419904;0.028974032592005518;30.0;53.72785838;86.84524461999999
2.4129488900253;0.7382125521332591;-0.0382379932701131;0.028127118219893048;30.0;53.72808959;86.84540670999999
3.317663025926484;0.8024492282969261;0.040787192821454;0.028086426189455636;30.0;53.72831675;86.84556219
4.534901710776481;0.7287209110997307;-0.020393596410727;0.02808807145472331;30.0;53.72854051;86.84572195000001
3.368592749807433;0.8601797767164383;-0.0275313551544814;0.03250493223308318;30.0;53.72875509000001;86.84587765
3.1665979864556597;1.0679649900191672;-0.0173345569491179;0.03223260976919689;30.0;53.72895941;86.84603077
3.974554427589698;1.3066300537872197;-0.0244723156928724;0.03331756027958386;30.0;53.72914826;86.84617865999999
4.088469098230557;1.3085876523602753;-0.0254919955134087;0.031277569274538106;30.0;53.729323380000004;86.84631538
4.790471492470166;1.399495669524277;0.0285510349750178;0.03539527852568009;30.0;53.72948494;86.84644622
6.022245903432551;1.4364543204148748;0.040787192821454;0.035080542668746495;30.0;53.72963535;86.84657359
6.6078481030532;1.3937424814508608;0.040787192821454;0.031811540994789674;30.0;53.72977901;86.84671213
6.459999953606112;1.3460503493135638;0.0254919955134087;0.029458375695453135;30.0;53.72991086;86.8468491
6.923648994609404;1.1589877981541685;0.0672988681553992;0.024864766917795423;30.0;53.73002985000001;86.84698857
6.188409073855756;1.0324624658127097;0.040787192821454;0.01694735265660666;30.0;53.730131310000004;86.84712587
7.01604424464642;0.7977881464080179;0.0254919955134087;0.018967141060200157;30.0;53.73021896;86.84726728000001
8.14227853547824;1.3207722110803333;0.0071377587437544;0.01927647399254122;30.0;53.730293659999994;86.84741366
6.946185760635608;1.7611460374794372;0.0122361578464362;0.020161144205463895;30.0;53.730365459999994;86.84758274
8.401325978470082;1.9671425038375954;0.0305903946160905;0.02302384951333174;30.0;53.7304398;86.84777228
6.300800476712473;1.979320617560118;0.0050983991026817;0.02043773477141555;30.0;53.7305214;86.84797676
3.529669886835515;1.9774351301959028;0.0448659121035994;0.023006531835429524;30.0;53.73061037;86.84818093
2.972149434642152;1.957715929480354;0.0509839910268175;0.03183114570333398;30.0;53.73070381;86.84838189
3.4910609539852016;1.900592357325067;0.0672988681553992;0.03599997701747771;30.0;53.73080936;86.84857704
4.640906944588672;1.9736842499907445;0.0193739165901906;0.0376759083544029;30.0;53.730919500000006;86.84875886
5.329672479372801;1.790415933019297;-0.0061180789232181;0.037565357642888125;30.0;53.731034969999996;86.84892553
6.727234647750032;1.779944682965007;-0.0438462322830631;0.039303774394504803;30.0;53.73115844;86.84907203999998
7.711081317847576;1.6424722684019526;-0.0346691138982359;0.03841681220208429;30.0;53.73129307000001;86.84919387
7.703758710932484;1.3642911179201205;-0.020393596410727;0.036179240155721167;30.0;53.73143666;86.84927602
6.874872233616929;1.1974951118759458;0.0285510349750178;0.03131097868703705;30.0;53.73158496;86.8493168
6.044942814568718;1.1626711748290348;0.0489446313857448;0.03155355777204985;30.0;53.73173468;86.84932316
5.405037768068665;1.1387981208037157;0.0316100744366269;0.03159362370720844;30.0;53.73188431999999;86.84930896
5.122793549233614;1.1933193725550417;0.0081574385642908;0.02834575407756329;30.0;53.73204177;86.84925905
4.464037288709684;1.0744616885191938;-0.0244723156928724;0.02662126052343135;30.0;53.732186909999996;86.84918915
4.942647243974007;0.9877204140631973;-0.0254919955134087;0.02799202192193082;30.0;53.73232774;86.8491047
5.864558722184495;0.9358666902429369;-0.0091771183848271;0.02653780809074215;30.0;53.732462250000005;86.84900113
7.348642538156197;0.9506787663340319;-0.0020393596410727;0.019505569244860032;30.0;53.73258793;86.84888104999999
6.54025335061398;0.964675564646837;-0.0193739165901906;0.013728937909757193;30.0;53.73270344;86.848738
7.135685581256955;0.9259732576565414;-0.0326297542571632;0.01127762731503335;30.0;53.73280528;86.84857104
5.935245627253551;0.8226739209065635;-0.0163148771285816;0.011106536062503001;30.0;53.73289364;86.84838547999999
6.421446210355769;0.691084825137375;-0.0252370755582746;0.010591405182565839;30.0;53.73296765;86.84817533
5.204979583545032;0.6633291150464309;0.003059039461609;0.010808960147379918;30.0;53.73302688;86.84795296
5.882982255470711;0.7274558508111885;-0.020393596410727;0.010311189197477578;30.0;53.73306558;86.84772541999999
7.146135843410531;0.7489825147482914;-0.0112164780258998;0.010341954533441037;30.0;53.73309723;86.84748571
6.691991613537955;0.8963826970952895;-0.0163148771285816;0.013439357039846566;30.0;53.73312288000001;86.84722464000001
6.511978195508511;1.0266151663494796;-0.0249821556031405;0.0167714385251974;30.0;53.733143919999996;86.84695128
5.036836602134092;1.214875230657851;-0.0305903946160905;0.017282912877428325;30.0;53.733163000000005;86.84666572
5.569512668972124;1.2649846794364252;-0.0219231161415315;0.014086208215271963;30.0;53.73317899999999;86.84637196
4.143039362391614;1.266804830395373;-0.0489446313857448;0.017508710497079347;30.0;53.73319275;86.84607595
4.260367725791597;1.0623961638810688;-0.0540430304884265;0.015598564807359388;30.0;53.73320354;86.84578466
3.394905781332392;0.9171009390416394;-0.0382379932701131;0.01646334744273773;30.0;53.73321524000001;86.84547380000001
4.271794037271999;0.8399008266626089;-0.037728153359845;0.0172911829536412;30.0;53.733226390000006;86.84515727
4.533223609669682;0.9256064448876813;-0.0662791883348628;0.017581059658249715;30.0;53.73323591;86.84484678999999
4.576106890222893;0.9012010327601939;-0.0458855919241358;0.022325128410055805;30.0;53.73324367;86.84453199
5.74517276181802;0.8700819547044941;-0.0112164780258998;0.021941486395201208;30.0;53.73324964;86.8442282
6.112490446574578;0.871413748432892;-0.0173345569491179;0.022284728638742094;30.0;53.73325446;86.84392838
6.000878176550471;0.7284965915996473;-0.0254919955134087;0.02302987000098472;30.0;53.73325583;86.84363023
5.199538086617198;0.8198101725919681;0.0081574385642908;0.024401638571907143;30.0;53.733254179999996;86.84333418
5.043795156653299;0.8958089225207482;-0.0428265524625267;0.024401638571907143;30.0;53.73325254;86.84302790000001
4.244567860594946;1.0772297529953787;-0.0571020699500356;0.024316982450122464;30.0;53.73325631;86.84267071
4.335300404751962;1.0159530525630622;-0.0520036708473539;0.023084984641203232;30.0;53.73326674;86.8423253
3.645732535674228;0.8869871361626676;-0.0601611094116447;0.02299146238216178;30.0;53.733286;86.84196824
3.7597167503585216;0.725536059310746;-0.0662791883348628;0.022709347865116865;30.0;53.73331387;86.84160443
2.9793348543814884;0.6788054686406602;-0.0285510349750178;0.022017372231606377;30.0;53.73335347999999;86.84123699999999
4.370178694354932;0.5924364934928891;-0.0265116753339451;0.022894026090746925;30.0;53.73340717999999;86.8408683
3.700204445605574;0.6259313444015846;-0.0183542367696543;0.0279821149947326;30.0;53.73347476;86.84050324
5.064992585529572;0.6925276586080132;-0.0438462322830631;0.02792011705665068;30.0;53.73355567;86.84014126999999
3.42432221084464;0.6890296943913745;0.0050983991026817;0.024940848698918;30.0;53.73364617;86.83978889
4.270680348645655;0.7571133591539468;-0.0183542367696543;0.01856825474063842;30.0;53.73374281;86.83941193000001
3.246609586241134;0.7317280949184448;0.0214132762312633;0.01807164941907857;30.0;53.73383563;86.83906955
4.894120213997933;0.7120867344282925;-0.0010196798205363;0.0187715272886632;30.0;53.73392169;86.83872041
3.7324273313583807;0.7207126104886421;-0.0112164780258998;0.022318335489062837;30.0;53.73400011;86.83836363
2.9515352044850034;0.5876930465357231;-0.0173345569491179;0.020269725659068615;30.0;53.734073179999996;86.83800149999999
3.1954859801140527;0.7267707383187973;-0.0214132762312633;0.02112703971352036;30.0;53.73414562000001;86.83763362
3.747704223532101;0.9290421727964615;0.0101967982053635;0.041427399130578385;30.0;53.73421268;86.83724500000001
4.213457550518078;0.9277952167875948;-0.0479249515652085;0.0412811540055591;30.0;53.7342614;86.83683036
3.843605701208;0.7652363067735178;-0.0275313551544814;0.04263581445699624;30.0;53.73428202;86.83640298
2.3881598388557896;0.7466185149793121;0.0132558376669725;0.044088003153737364;30.0;53.73427481;86.83595800999998
1.6228764666845148;0.7439715427293948;0.1040073416947078;0.04386151164396776;30.0;53.73423973;86.83553381
3.4025355280102443;0.9040309228478379;0.0183542367696543;0.04378440188705632;30.0;53.73417488;86.83510032000001
3.150286774020312;0.8790509393541568;-0.0316100744366268;0.050041825360054915;30.0;53.73407201;86.83467745
2.9769713909535267;0.8057214701189234;-0.0372183134495768;0.04610361275819146;30.0;53.73392385;86.83428609
3.07736480843004;0.7713534880547572;-0.0076475986540226;0.04477066663861084;30.0;53.7337279;86.8339263
1.5335516811554015;0.7759698687180515;0.0183542367696543;0.04589805298548477;30.0;53.733485970000004;86.83360245
3.4149195883815566;0.8589122598898341;0.0774956663607627;0.03540539523889293;30.0;53.73320192;86.83332608
1.9885421620504968;0.8516047178522945;0.0224329560517997;0.03790762495641203;30.0;53.73288776;86.83309384
1.63645442996476;0.8003701980393957;-0.0122361578464362;0.03776656318255862;30.0;53.732520390000005;86.83288519
2.2293891089151376;0.7878602545461044;-0.0152951973080452;0.03625408312513707;30.0;53.7321463;86.83270822
1.080272038663393;0.7427179511004127;-0.0356887937187723;0.03903482246997132;30.0;53.73174759;86.83256295
1.344363503329439;0.8051416719514812;-0.0499643112062812;0.03795806734014739;30.0;53.73133101;86.83245101
2.554011501363418;1.141498631175363;-0.0295707147955541;0.023274686723026985;30.0;53.730912620000005;86.83236542
1.3348848523777213;1.2137618198282611;-0.0071377587437544;0.029355102513775645;30.0;53.73049837;86.83228141
1.0705779265614923;1.2398532418822013;-0.049454471296013;0.029461169786903094;30.0;53.730090600000004;86.83219364
0.8176106493627306;1.2304744060873172;-0.0050983991026817;0.02970208280237834;30.0;53.729680040000005;86.83209796
-1.5976013441180474;1.7920414015893906;-0.0438462322830631;0.030162727365105006;30.0;53.729267359999994;86.8319848
-0.3803556143424202;1.7570035927201562;0.0479249515652085;0.03055241629195354;30.0;53.728855069999994;86.83186178999999
-0.1220299495273254;1.5016724094398204;-0.0091771183848271;0.03064906435881236;30.0;53.72847934;86.83173182
-0.7968896140708646;1.4254442740389013;-0.0331395941674314;0.031618479281917335;30.0;53.728096900000004;86.83158746000001
-3.695530451759428;1.3079773056382689;-0.0428265524625267;0.029797660326010646;30.0;53.72772669;86.83143741
-0.9936903336721028;1.134860979332639;0.0152951973080452;0.03323423695512696;30.0;53.72736724;86.83127764000001
-1.440730436375121;1.459534280449429;0.003059039461609;0.033337318964935164;30.0;53.72700595;86.83110579000001
-2.308894045567732;1.5796683617802636;0.0122361578464362;0.03397781151574637;30.0;53.72664655;86.83092815
0.1742298382308596;1.5516588265903883;-0.0336494340776996;0.03396250768808419;30.0;53.72628784;86.83075888
-1.3142731623490853;1.5917790800888556;-0.0560823901294993;0.04236442768824808;30.0;53.725930319999996;86.83060872
-4.136920639813446;1.4750387176343998;-0.0448659121035994;0.0424241067685578;30.0;53.725570579999996;86.83048194
0.6549165794992109;1.7679837524759854;0.0509839910268175;0.04045818752033952;30.0;53.72521044;86.83037268000001
-0.4753898708919128;2.2946376598180445;-0.0183542367696543;0.03930586862355795;30.0;53.724808780000004;86.83029869999999
-0.1769274957093747;2.3184281212047333;-0.0953400632201488;0.036509070786413876;30.0;53.72440643;86.83025475
0.6444395925976073;2.4193988280393386;-0.0438462322830631;0.037553554049599785;30.0;53.724001599999994;86.83023392
2.151826492399655;2.3378928927992386;-0.0265116753339451;0.036517613528942776;30.0;53.72359897;86.83023833
4.1821281320631165;1.586965371461468;-0.0367084735393086;0.036683326986166304;30.0;53.72320353;86.83025761
2.8983264612276014;1.533650806223572;-0.0346691138982359;0.025267184501415383;30.0;53.722816;86.83028736
2.702173311618446;1.2938740188152145;-0.0061180789232181;0.024060566844756937;30.0;53.72243137;86.83028672999998
2.0321537260441858;0.9842177960953331;-0.0285510349750178;0.018016267317605788;30.0;53.722059630000004;86.83025291
3.550485389939081;0.7263859261145192;-0.0479249515652085;0.02416351937347641;30.0;53.72170208;86.83018464
1.9032654124067945;0.7271044996474981;-0.0652595085143265;0.02471306937033393;30.0;53.721354919999996;86.83009604
2.8657361229763776;0.5751332944509497;-0.0418068726419904;0.024464997451782777;30.0;53.721055469999996;86.82998603
3.1561869885866987;0.5726318694817849;-0.0071377587437544;0.02627619030130813;30.0;53.72076031;86.82986495
2.233000912125666;0.6106028454138606;0.0193739165901906;0.025873001046411697;30.0;53.720470660000004;86.82973914
3.527644131514617;0.6317968471726969;-0.0112164780258998;0.02578287081419088;30.0;53.720184499999995;86.82961682
2.5780808470420387;0.6035464567687722;-0.020393596410727;0.027257024728301067;30.0;53.71986592;86.82950303999999
2.7070294881495838;1.85789905201188;0.0091771183848271;0.020281406282286186;30.0;53.71954874000001;86.82939834
2.0573838941945195;2.1257546867156574;-0.0163148771285816;0.020196926217638814;30.0;53.71923417000001;86.82932696999998
3.5979690444536554;2.475835792671487;-0.0152951973080452;0.02004967009961048;30.0;53.71889952;86.82928928
3.296595715827137;2.859200300741295;0.0254919955134087;0.019146659042148583;30.0;53.71854403;86.82929219
-2.752596049402183;3.057211671201255;-0.0183542367696543;0.023055752710618493;30.0;53.71817962;86.82932458
-1.0542062865490047;2.9545067806114824;0.0336494340776996;0.02155744784954445;30.0;53.71780935;86.82938183000002
-2.4379066035185626;2.9083439883731512;0.0020393596410727;0.02805432423125947;30.0;53.71742838;86.8294719
-3.3417802653631874;2.763162358877332;-0.0096869582950953;0.03997934579015611;30.0;53.71703595;86.82958123
-4.041863280496571;2.1849020098045586;0.040787192821454;0.04488139131446788;30.0;53.71664019;86.82970259
-1.5026892921928043;1.2159811580330315;0.0020393596410727;0.04339070793554721;30.0;53.71626113;86.82984065000001
-3.6547360553857207;1.6214082224112578;-0.0520036708473539;0.04610314291421201;30.0;53.7158631;86.82999814000001
-3.104824864588043;2.0546717811025172;-0.0907515040277353;0.041077933718000434;30.0;53.715450829999995;86.83016955
-0.2037817141399266;2.3863939140234933;-0.0723972672580809;0.043734405756984264;30.0;53.71504737;86.83034721
-2.0968808758203514;2.5984186879091387;-0.0428265524625267;0.042421213317225634;30.0;53.71465614;86.83052430000001
1.0297918147008494;2.479181199072316;-0.0703579076170082;0.029895154382646432;30.0;53.71426773;86.83069653
1.9882026041603609;2.47131729777311;-0.0346691138982359;0.023536780916358857;30.0;53.713881549999996;86.83086075000001
2.2577891751892256;2.09892863189768;-0.0978892627714897;0.036214547667993216;30.0;53.71347465;86.83101449
2.9488062988892074;1.8398690716857606;-0.0316100744366268;0.03328633847558017;30.0;53.71307027;86.83115795
2.612380062408668;2.1662127426718016;-0.0499643112062812;0.03525764058851802;30.0;53.7126583;86.83129126
1.7788891968087528;2.1022190985360507;-0.0382379932701131;0.03924203635733188;30.0;53.7122526;86.8314078
-0.8828500175270773;2.1090861050421736;0.0285510349750178;0.03881489661254607;30.0;53.71185376999999;86.83149793
-1.6057214988088775;2.1361437440680437;-0.0418068726419904;0.04045533194223227;30.0;53.711461240000006;86.83155596
-2.885948848564813;2.175474484144357;-0.0897318242071989;0.04992903771832645;30.0;53.71105967;86.83157423
3.1893419739901923;2.1890457573126443;-0.1019679820536351;0.05057972805164332;30.0;53.71065359000001;86.83155983
0.5065764829516417;2.2094330632273502;-0.0438462322830631;0.052672382288137795;30.0;53.71024466;86.83152978
-0.6618190872408481;2.255065152938708;-0.0917711838482716;0.05315307587310018;30.0;53.709833419999995;86.83149741999999
2.698767351685941;2.304480834458202;0.0525135107576221;0.05069699310946097;30.0;53.70945236;86.83145171999999
3.0681891356010964;2.179943954357489;-0.0142755174875089;0.05082614951462706;30.0;53.709079540000005;86.83140914
2.8220127250795533;1.9467016782695736;0.0101967982053635;0.04893825797190369;30.0;53.70870789000001;86.83138053
2.4869387463253023;2.3861729366450573;-0.0091771183848271;0.043656112223121525;30.0;53.7083439;86.83136726000001
3.530754927454123;2.4766340053494025;0.0045885591924135;0.05231055758159712;30.0;53.70798277;86.83137221
-0.5845827440650171;2.5134998088481484;-0.0469052717446721;0.05569016707048065;30.0;53.7076236;86.83138936
-1.7426763682857689;2.415331748284095;-0.0723972672580809;0.05010446512254072;30.0;53.70726133000001;86.83141621
-3.3894823401591;2.3295756871931976;0.0122361578464362;0.05591797035943974;30.0;53.706902119999995;86.83145124
-1.2223832291093062;2.1958977081759077;-0.1121647802589986;0.053740125516877624;30.0;53.70654428;86.83147996
-1.180573341937214;2.043849720311622;-0.1136942999898031;0.054171780045710945;30.0;53.706183980000006;86.83149598
-0.170774862913138;1.6080161357089573;-0.0856531049250535;0.062488641140520836;30.0;53.70582806;86.83151638000001
2.2912691457644283;1.6148784839155126;0.0387478331803813;0.07107267097932815;30.0;53.705480539999996;86.83154773999999
1.3814033307140683;1.5556212603698867;-0.0224329560517997;0.0708113003180795;30.0;53.70515356999999;86.83161501
0.4739954225424492;1.1557639798562402;-0.003059039461609;0.07034725435824397;30.0;53.704851670000004;86.83172015
-0.576360684043687;1.132675689849329;0.0652595085143265;0.06170595988863869;30.0;53.70458052;86.83188164
-0.9461401205057094;1.1436989602172138;0.07545630671969;0.04715778788881663;30.0;53.704343230000006;86.83211283
-0.3187394272128442;1.2321137613812756;0.0367084735393086;0.043504214624725444;30.0;53.70415121;86.83243024999999
0.6378086238083026;0.9673086681415399;-0.0152951973080452;0.045942834529761604;30.0;53.703991329999994;86.83283357
-1.0187681726387594;0.7271867392592347;0.0214132762312633;0.04685894456553734;30.0;53.703861419999996;86.83332062000001
-1.268953078379321;0.6174765127966939;0.0193739165901906;0.04679381195310447;30.0;53.703764019999994;86.8338837
-1.3968302163770978;0.753086194751421;-0.0693382277964719;0.04557473251582945;30.0;53.70369046;86.83452181999999
-1.377806016675015;0.8009025179945444;-0.0418068726419904;0.038577661943892096;30.0;53.70363724;86.83521356
-0.4660204115264658;1.4762518682872887;-0.0336494340776996;0.03591242264066547;30.0;53.70359856;86.83593008
-0.6138595435485099;1.5952040426546024;0.0010196798205363;0.0399696280667271;30.0;53.703566030000005;86.83665531
0.6224512892811169;1.6150020539781293;0.0560823901294993;0.0383998177043568;30.0;53.70353756000001;86.83737436
0.3595285001345018;1.589315494684452;-0.0183542367696543;0.037424703603441044;30.0;53.70351196;86.83808604000001
3.423383045913856;1.746583243423979;0.0010196798205363;0.03482869639359506;30.0;53.70348914;86.83879026000001
-2.2771605821504;2.0062354019089987;-0.0632201488732537;0.03822084369700612;30.0;53.703472829999995;86.83948307
-1.3845198995518253;2.1540586209350843;-0.0020393596410727;0.037033707964312185;30.0;53.70346756;86.84017924
-0.17414612143926;2.208198879578931;-0.0458855919241358;0.037025128287156234;30.0;53.70347065;86.84086841
-2.789590306309297;2.3541685078032284;0.0142755174875089;0.030992041996469665;30.0;53.703484630000005;86.84153518999999
-3.647923151833286;2.395605559039801;0.0489446313857448;0.037255310834999555;30.0;53.7035173;86.84220273999999
-3.2130919461215988;1.7695432859079772;-0.0142755174875089;0.0402840211512707;30.0;53.70357168;86.84284848
-2.5957904522047657;1.7701995878464327;0.0;0.03355918984849107;30.0;53.70364756;86.84348500000002
1.891623575932975;1.781770050665914;-0.0193739165901906;0.03423924975149044;30.0;53.70374648000001;86.84412152
-3.29133869574734;1.6757008992960511;0.0571020699500356;0.03476711124828273;30.0;53.70386754;86.84475713999998
-3.590346695538185;1.8104179831297011;0.0458855919241358;0.03731727861068631;30.0;53.70403093;86.84545301
-1.8456910635942916;1.759558639270686;-0.0081574385642908;0.041678212972886854;30.0;53.70420533;86.84613685000001
-1.149079538033691;1.7911836186980208;-0.0152951973080452;0.04393707280629191;30.0;53.704389379999995;86.84685594
-1.4521729841290418;1.7186629326027987;-0.0489446313857448;0.04663730214877655;30.0;53.704573419999996;86.84756990000001
0.1750845998027148;1.7202090601168385;-0.0387478331803813;0.07071187319583969;30.0;53.704746179999994;86.84827770000001
-0.232798870461706;1.8434724061070107;-0.084123585194249;0.06588813792353589;30.0;53.70488129;86.84893761000001
0.8057276713279807;2.1379818938039814;0.0316100744366268;0.05774208029180353;30.0;53.704976380000005;86.84954726
-1.301101422131199;2.2335161090952154;-0.0591414295911083;0.056285161290293866;30.0;53.70503196;86.85010972
1.899890089026224;2.3113982703253053;-0.1815030080554706;0.05491146513955139;60.0;53.70504829;86.85061501
2.5558195841657723;2.282242991649571;-0.092790863668808;0.05679902888673294;60.0;53.70501979000001;86.85107035000001
4.857417510025408;2.3003680232912798;-0.0428265524625267;0.06271839126999441;60.0;53.704921389999996;86.85140715
3.9365672741692417;2.083652055308177;-0.0285510349750178;0.06408552245118065;60.0;53.70478046000001;86.85169886
4.297707735390295;1.9273234778367012;-0.037728153359845;0.06227634735941294;60.0;53.704601520000004;86.85188600000001
5.021814922347116;1.0563212472256207;-0.0122361578464362;0.06418608531660584;60.0;53.70439725;86.85201709
4.855927453314702;0.8138527703167652;0.0295707147955541;0.03759011583683106;60.0;53.70417161;86.85209097
3.940735238842452;0.5300260851231854;0.0142755174875089;0.02528725149038637;60.0;53.70394415;86.85213231
3.7341380645122633;0.6840511716217477;0.0150402773529111;0.022877888387940467;60.0;53.70372062;86.85215966000001
4.931440084101512;0.715357739430214;0.0163148771285816;0.022815945189171585;60.0;53.70350036999999;86.85217236999999
5.199522813243906;0.7049984899235999;0.0071377587437544;0.016085990062395427;60.0;53.70327983999999;86.85217200000001
4.822842951468466;0.7241607539458417;0.0050983991026817;0.013084373561546818;30.0;53.70306429;86.85215357
5.933630151618029;0.7748743893131472;0.0285510349750178;0.01869028653660989;30.0;53.70285586999999;86.85212435000001
3.700990706425192;0.7482085753900212;0.0428265524625267;0.0200659593134963;30.0;53.702655660000005;86.85208542000001
4.654014417503629;0.6574853002957657;-0.0010196798205363;0.02105034533707372;30.0;53.70245755;86.85204091
3.994539698250263;0.67454304088361;0.0142755174875089;0.0207777400296754;30.0;53.7022594;86.85199379999999
5.471190168650882;0.6606911848582631;-0.0285510349750178;0.020769676241395217;30.0;53.70206219000001;86.85194763
5.156948942193324;0.7424652005154608;-0.0122361578464362;0.021018489968036888;30.0;53.701870199999995;86.85190412
4.719724406683819;0.6889655057444164;-0.0132558376669725;0.02211553659504595;30.0;53.70168080999999;86.85187089
4.366865107277522;0.6911330284768588;0.0091771183848271;0.02656587213330758;30.0;53.701493719999995;86.85184764
4.657308874593478;0.7052697754903858;0.0061180789232181;0.03210885242284436;30.0;53.70129951;86.85184031
5.813883566257037;0.5762359346950457;0.0152951973080452;0.03253512849079856;30.0;53.701109210000006;86.85184457
5.558128117257326;0.7682555213021212;0.0367084735393086;0.029100154710454976;30.0;53.70091842000001;86.85185601999999
6.176118071117969;0.7709075900525281;0.0642398286937901;0.027644472981892522;30.0;53.70072997999999;86.85186725999999
5.732323662600133;0.8798978199349722;0.0683185479759355;0.027352487503898706;30.0;53.700514659999996;86.85187466
5.486804354662301;1.0192242475364177;-0.0005098399102681;0.026982955806110313;30.0;53.700293;86.8518834
3.680220086953031;1.3009191730766727;0.0061180789232181;0.026360032717324722;30.0;53.70007162;86.8518873
5.335902865745903;1.2773836445563762;0.0387478331803813;0.031101116750484558;30.0;53.69983552;86.85188928
3.7758172157098415;1.8880757915153805;-0.0112164780258998;0.030936870286932105;30.0;53.69958547;86.85188499
3.33620456097799;1.9057039580787751;0.0316100744366268;0.02776768910074568;30.0;53.69931964999999;86.85187773
2.410523699105949;1.8537884467541053;0.0392576730906494;0.021039160261349363;30.0;53.69904974;86.85186894
5.527817299517425;1.8892758365493207;-0.0239624757826042;0.02316865738528621;30.0;53.69872109000001;86.85185773
0.1084010268696093;1.9980967748576366;0.0152951973080452;0.030662819445763392;30.0;53.69836839;86.85184551
1.5448155795440504;1.7452013348186226;0.0020393596410727;0.02831537418804054;30.0;53.697997099999995;86.85183518
1.6846483560958094;1.644765152728734;0.0061180789232181;0.028250273951632817;30.0;53.69763647999999;86.85183808000001
0.3447284813936644;1.6212040704053996;-0.0214132762312633;0.02823472985204968;30.0;53.697262460000005;86.8518455
0.3847511207473612;1.6614130425677252;-0.0550627103089629;0.024688748699644488;30.0;53.69686807000001;86.85186583000001
1.2030647378550507;0.8071625045982291;-0.0183542367696543;0.027474700435471587;30.0;53.69647217000001;86.85189233000001
2.4291838963756542;0.9945432458230002;-0.0086672784745589;0.024294702421600842;30.0;53.69607132;86.851919
0.401058692407897;0.9697068276082352;-0.0458855919241358;0.022020323529688742;30.0;53.69566218;86.85193226
0.0571643762562879;0.9814214251195283;-0.0520036708473539;0.018676277121523928;30.0;53.69525118;86.85193086000001
1.425515411097807;0.9687999186932054;-0.058121749770572;0.01836060866249333;30.0;53.694880379999994;86.85191846
-1.0131153271179267;1.019895608645067;-0.0428265524625267;0.01718470609622352;30.0;53.69451564999999;86.85189677
1.1072741505641106;1.01277742997785;-0.0458855919241358;0.017411113803196602;30.0;53.69415765;86.85186645
1.795021055995531;0.8786020242076894;-0.0132558376669725;0.015464210143880048;30.0;53.6938039;86.85181734
0.7071038756873971;0.8917859100845136;-0.0254919955134087;0.0229779542713108;30.0;53.69346272;86.85174752
-0.2313439368546875;1.432130766317576;-0.0367084735393086;0.02290190939388266;30.0;53.693140160000006;86.85164
0.4813978245974388;1.372437830258632;-0.0163148771285816;0.022309598694311136;30.0;53.69282955999999;86.85149836
-0.5165504717799934;1.6225303280652148;-0.0509839910268175;0.02549023933766977;30.0;53.69253662;86.8513283
-0.0600395087253657;1.5443074107821082;-0.0922810237585398;0.025858764389164686;30.0;53.69227493999999;86.85114598
-3.1506046516017543;1.5699900696361189;-0.0499643112062812;0.024515943648228587;30.0;53.69204109;86.85095053
-0.9019767908229778;1.712212508660755;-0.0387478331803813;0.024237512642000057;30.0;53.691841149999995;86.85076595000001
-2.975267486085439;1.865238136400053;-0.0020393596410727;0.024414181542949456;30.0;53.691680435;86.850589875
-0.0559353711033309;2.9574939237596625;-0.0530233506678902;0.024580946654283044;30.0;53.691548694999994;86.850427415
1.9478798608494;3.208318689324943;-0.032119914346895;0.02681438047392234;30.0;53.691444555;86.850266955
1.9218433286336425;3.2069743531521917;-0.0305903946160905;0.02042586074929862;30.0;53.69136198499999;86.850107585
1.9760218706227133;2.8320539591625544;-0.0305903946160905;0.01979137854265587;30.0;53.691298065;86.84995406499999
7.088305316473035;2.921139498476033;-0.014785357397777;0.019868862434799205;30.0;53.691253595;86.849799515
4.743452881175219;2.8794762013430577;-0.0020393596410727;0.026611114615638705;30.0;53.691227525;86.849650565
2.3788374669006687;3.3526032366900953;-0.061180789232181;0.027224846522560815;30.0;53.691204685;86.849512525
0.4563678035930925;3.351625107596439;-0.0423167125522585;0.027053881916825562;30.0;53.691177555;86.84939579499999
-1.6929485841110044;3.33948253888849;-0.0193739165901906;0.02689004793246126;30.0;53.691150105;86.849283865
-2.730549330484225;3.319479784773299;0.0316100744366268;0.0272453665076033;30.0;53.69112699;86.84917627
-3.946820150311469;2.6756279950329005;0.0132558376669725;0.027301756612969824;30.0;53.69110732;86.84906444
0.3588344888221371;2.353721617511891;-0.0061180789232181;0.02681761158933311;30.0;53.69108662;86.84898742
0.6206956243829648;2.3253279032296335;-0.0275313551544814;0.02485646039337994;30.0;53.69107186;86.84894706
0.9851434484518596;2.509511363777458;-0.0356887937187723;0.023268419268950496;30.0;53.691064489999995;86.84895249000002
3.263024473391795;2.3950076131282745;-0.0224329560517997;0.023248302368837574;30.0;53.69106246;86.84901701999999
2.5418398724471416;2.1052135085743564;-0.0142755174875089;0.016629085185597445;30.0;53.691066680000006;86.84913132
2.0832183377732547;1.2531310685620047;-0.0489446313857448;0.013141612006810457;30.0;53.69110403;86.84930691
3.163054131033292;1.2127758490852418;-0.0183542367696543;0.012564103248317061;30.0;53.69116290000001;86.84950914
1.065940347189913;1.2572795613953642;-0.0183542367696543;0.012826186916905175;30.0;53.69123721;86.84972937
-0.2275563674636174;1.5051949915652736;-0.0173345569491179;0.011677696137591434;30.0;53.69132449;86.84996769
0.3218769705726316;1.4703702003679031;-0.0061180789232181;0.011715722271790777;30.0;53.69142458;86.85022905999999
2.158809172345652;2.510365315559693;-0.0112164780258998;0.01159429713841914;30.0;53.69154246000001;86.85048006000001
3.2152814646961945;2.4549883142436775;-0.0112164780258998;0.0054066005810277295;30.0;53.69166901;86.85071157000002
-0.8366076042384221;2.576546821542634;-0.0214132762312633;0.005808347432836799;30.0;53.69179481;86.85092185
0.0570525221879548;2.528656998080071;-0.023452635872336;0.006250941329707197;30.0;53.691914510000004;86.85110043
-5.345804265913676;2.59638257315595;-0.0193739165901906;0.008419651047493504;30.0;53.69201885;86.85124829
0.0902579564594803;2.6395807165401486;-0.0198837565004588;0.008001761929803888;30.0;53.692088690000006;86.85134885
-3.9160922072156135;2.508289063389016;-0.023452635872336;0.00751310228223177;30.0;53.692141265;86.85142190500001
-0.4619175604754867;2.203993846984891;-0.0244723156928724;0.007039156049681152;30.0;53.692177664999996;86.85147366499999
1.3623820690702988;2.2504798965614627;-0.0356887937187723;0.0075063719196140155;30.0;53.692195235;86.85150147499999
1.263403250878878;2.289003626971131;-0.0336494340776996;0.007657222907534414;30.0;53.692195874999996;86.85150723500001
0.0862796166851723;1.5584875269015384;-0.014785357397777;0.007619221566724607;30.0;53.69219099000001;86.85149979
0.6387876395838828;2.9080774100775977;-0.0142755174875089;0.009605969624164504;30.0;53.69217691;86.85148826999999
0.7545306127665397;2.5636566043864937;-0.014785357397777;0.009895069042935255;30.0;53.69216288;86.8514768
0.868800700745181;2.8102915286534653;-0.0173345569491179;0.011571980852545705;30.0;53.69215969;86.85147105
1.2130857488204174;2.8102915286534653;-0.0209034363209951;0.011571980852545705;30.0;53.69215969;86.85147105
7.965858474167455;2.8102915286534653;-0.040787192821454;0.011571980852545705;30.0;53.69215969;86.85147105
4.795211443835652;2.8102915286534653;-0.0316100744366268;0.011571980852545705;30.0;53.69215969;86.85147105
-2.349402083713287;2.8102915286534653;-0.0438462322830631;0.011571980852545705;30.0;53.69215969;86.85147105
6.809133658307781;1.5184184633717013;-0.1876210869786886;0.0822311524356247;30.0;53.723694079999994;86.846464
7.340307906930541;1.5184184633717013;-0.0652595085143265;0.0822311524356247;30.0;53.723694079999994;86.846464
9.18811523220912;1.5184184633717013;-0.1029876618741715;0.0822311524356247;30.0;53.723694079999994;86.846464
9.175395906864807;1.5184184633717013;-0.0897318242071989;0.0822311524356247;30.0;53.723694079999994;86.846464
8.897689898940403;1.5184184633717013;-0.0265116753339451;0.0822311524356247;30.0;53.723694079999994;86.846464
7.184456618594538;1.5184184633717013;-0.0713775874375446;0.0822311524356247;30.0;53.723694079999994;86.846464
4.136219314200775;1.509918870272716;0.0428265524625267;0.06271654924038275;30.0;53.723691640000006;86.8462542
6.694175827620336;1.6473982990202838;0.0509839910268175;0.062471075309126836;30.0;53.723690469999994;86.84603287
6.711334203666199;1.5841603291669677;0.0509839910268175;0.055321324065364455;30.0;53.723691540000004;86.84579074
6.929717386838428;1.3359455570620407;0.0474151116549403;0.04895064995908707;30.0;53.7236955;86.84554381999999
7.142406477747512;1.2305726955459517;-0.0387478331803813;0.04819672835685901;30.0;53.723700599999994;86.84529036
5.256520169787642;1.3463046449852425;0.0316100744366268;0.04683221784830301;30.0;53.72370678;86.84503798
5.1204872393036975;1.3620311114753103;-0.0463954318344039;0.046904686779774815;30.0;53.72371099000001;86.84480667
6.04546779580957;1.359177978733665;-0.0428265524625267;0.04364119112239413;30.0;53.7237179;86.84458573999999
8.354762101150655;1.356919586900853;0.0137656775772407;0.03814402951024003;30.0;53.723728640000004;86.8443712
8.221802199422278;1.4330192046206855;-0.0632201488732537;0.03022662300870051;30.0;53.723747720000006;86.844165
9.38420130762004;1.4321954602173768;-0.0428265524625267;0.031187685170062287;30.0;53.72377849000001;86.84396792999999
7.184536541698601;1.304946718856208;-0.037728153359845;0.024435702570055954;30.0;53.72382646999999;86.84378807
7.332043424545677;1.331213229770608;-0.0428265524625267;0.024397199655880584;30.0;53.72390345;86.84363721
5.64687123265962;1.3235248581672212;-0.0061180789232181;0.030284137804486685;30.0;53.72399301;86.84350917
6.833185968984228;1.3170020544091754;0.0010196798205363;0.028127272244454188;30.0;53.72410013;86.84341149
7.037891870112462;1.5665965319676758;-0.0285510349750178;0.029219753133867456;30.0;53.72422514;86.84333938
4.9694916909160085;1.472381154434395;-0.0458855919241358;0.029250576083681944;30.0;53.724370580000006;86.84330306000001
6.135973345828274;1.8193355162105673;-0.0866727847455898;0.029863449325040342;30.0;53.72453516;86.84329612
5.652531514892887;1.7738877621313758;-0.078515346181299;0.030195122519693297;30.0;53.72472073;86.84331785
3.595176874522214;1.7690859248402977;-0.0744366268991536;0.026812010741814003;30.0;53.72493085999999;86.84337181999999
3.162119823535256;1.6755547537737012;-0.0489446313857448;0.020087160475663886;30.0;53.72515466;86.84344970000001
1.8620098887356649;1.370564578666706;-0.0662791883348628;0.019339972064185702;30.0;53.72538496;86.843552
3.0237223679306044;1.3576343942287905;-0.0331395941674313;0.019739065922419412;30.0;53.72561074;86.84367282000001
3.8411452636842576;1.045321560229587;-0.040787192821454;0.01836375446074696;30.0;53.72585345;86.84381313
2.66950669022408;0.5800981003886648;-0.0652595085143265;0.01951125059642519;30.0;53.72610409;86.84396649
3.0497637481085653;0.5584108945062597;-0.0336494340776996;0.0173785705678445;30.0;53.72636205;86.84412972999999
2.5052018631874677;0.5631831507758027;-0.040787192821454;0.024142054795768635;30.0;53.726626599999996;86.84429956
2.3946242460248994;0.530936237741808;-0.0295707147955541;0.023858534691775915;30.0;53.726894419999994;86.84447778
3.012593757806882;0.5937590596763632;-0.0112164780258998;0.025893532697789726;30.0;53.727161290000005;86.84465760999998
2.2611777105374866;0.6025483268022196;-0.0591414295911083;0.02925867159869907;30.0;53.72741635999999;86.84483588
2.250237122409915;0.6886590941517204;0.0112164780258998;0.0264778823498622;30.0;53.72766894;86.84501934
3.476828645970157;0.734202004087084;-0.003059039461609;0.026613665020541234;30.0;53.72792201;86.84519816999999
3.69184057674746;0.7029994545358424;-0.0622004690527174;0.027237308822121022;30.0;53.72819981;86.84540429
3.891040534507882;1.0252934879493227;0.0112164780258998;0.03094783783796634;30.0;53.72846818000001;86.8456061
4.038791093496053;1.325517399207877;-0.0122361578464362;0.031728814066435754;30.0;53.72872734;86.84580126
3.863071940963501;1.6863251948971203;-0.0071377587437544;0.02927446127974944;30.0;53.728975260000006;86.84598774
3.425161796643906;1.9870372826796594;0.0112164780258998;0.03422642568280915;30.0;53.729204010000004;86.84616529
5.859720107094556;1.9110527110349806;0.0356887937187723;0.03666690749489685;30.0;53.72941539000001;86.84633059000001
6.369422234435076;1.925144774278618;-0.0305903946160905;0.027357713776162747;30.0;53.72961033;86.84649225000001
7.869084976869602;1.8344045460005416;0.0326297542571632;0.027332153611930428;30.0;53.729793289999996;86.84664961
8.861649878622556;1.6947403136819614;0.0550627103089629;0.026438366196052814;30.0;53.729962990000004;86.84680907
5.975485067007917;1.4712993261588334;0.0458855919241358;0.024949185008670778;30.0;53.73011611;86.84697754999999
7.59197597550696;1.0493117214458556;0.0265116753339451;0.026994459876248877;30.0;53.730226890000004;86.84712673
6.967837622088442;1.4797120938687576;0.0224329560517997;0.026750324022525696;30.0;53.730320629999994;86.84728703
6.784779137920273;2.071901702146427;-0.0040787192821454;0.02131601040055779;30.0;53.73040407999999;86.84747031999999
7.410605309129816;1.9928078500323136;0.0295707147955541;0.04190902669659094;30.0;53.73048189;86.84768381
5.434390256611505;1.806771354907339;-0.0112164780258998;0.04106696390687878;30.0;53.730569179999996;86.84791702
3.5290068171603424;1.8062272737178757;0.0056082390129499;0.04548808327371499;30.0;53.73066385;86.84815249
2.114854210445856;1.756063031855635;0.0081574385642908;0.04651871279944162;30.0;53.7307688;86.84838032
6.149116795356109;1.7877182343850584;0.1345977363107984;0.04953517390161179;30.0;53.73087293;86.84859453
4.2013558116611565;1.7636357852433435;0.0275313551544814;0.04953517390161179;30.0;53.73099355000001;86.84878427
5.950073674126686;1.6398424132731826;-0.0382379932701131;0.04933829223092948;30.0;53.73112241;86.84895153000001
7.138850499411491;1.6397031450144512;-0.0122361578464362;0.04882422242716769;30.0;53.731262750000006;86.84909443
7.294229225891971;1.5767415907257978;-0.0387478331803813;0.048810969958800264;30.0;53.73141643;86.84920459
6.404893452543498;1.159147092622852;-0.0040787192821454;0.04904943761827872;30.0;53.73158075;86.84927419
5.405311673936738;1.1550773383371336;0.0244723156928724;0.023996862290734534;30.0;53.73175338;86.84929322
5.311001988717752;1.075865319492169;0.0173345569491179;0.022511932341214982;30.0;53.73192289;86.84927073
4.114085815442602;1.1009805106190442;0.0198837565004588;0.020119844447093905;30.0;53.732089310000006;86.84922467
4.371897532082539;1.0251692434380617;-0.0020393596410727;0.02298844730610365;30.0;53.73224484;86.84915748
5.093844422029563;1.026147926030406;-0.0005098399102681;0.02230901611967226;30.0;53.73240021;86.84907733
6.31434878652001;1.005801354709649;0.0132558376669725;0.02333931061502672;30.0;53.73253779;86.84898195000001
6.491916819917972;1.0279574738809234;-0.0224329560517997;0.02322145272607221;30.0;53.732667420000006;86.84886581999999
6.432574063746993;1.1221859579973328;-0.0367084735393086;0.022382430150664018;30.0;53.73278342;86.84872582
7.299971016020379;0.9529207971413388;-0.0346691138982359;0.02279725022844042;30.0;53.73288331;86.84855947
6.047024958801905;0.7822264202828316;0.0193739165901906;0.02398410107513662;30.0;53.73296649;86.84837129
4.9784158097085855;0.7261728675563502;0.023452635872336;0.023953193210884988;30.0;53.73303307;86.84817419
7.153793662576528;0.7514913163106554;-0.0010196798205363;0.023019834980137;30.0;53.73308431;86.84796175
6.369247722531961;0.7752152533903129;-0.0326297542571632;0.022673964123622527;30.0;53.73312372;86.84774004
5.509690131008879;0.8213367134778704;0.0163148771285816;0.02030417839475872;30.0;53.73315523;86.84750787
7.051324127814142;0.8224001367802509;-0.0101967982053635;0.018766603124945654;30.0;53.73317943000001;86.84726071
6.984661150694193;0.8891562393995494;-0.0020393596410727;0.019365268252086464;30.0;53.73319815;86.84698503
5.819674951848106;0.9063922806060095;-0.0163148771285816;0.017877223016024228;30.0;53.733211919999995;86.84669928
5.4956654421232205;0.929028399609444;0.0020393596410727;0.017755642029027335;30.0;53.733223339999995;86.84641117999999
5.005632052038068;0.8938762907977624;-0.0244723156928724;0.016231104959261947;30.0;53.7332351;86.84612342
4.971973136523873;0.9669597563584074;-0.0336494340776996;0.01866289556722895;30.0;53.733247389999995;86.84583107
4.841504318566625;0.8559407206460155;0.0142755174875089;0.018638118238015977;30.0;53.73326034;86.84552914
4.268727282876832;0.6601761298195313;-0.0040787192821454;0.018270962838606304;30.0;53.73327191;86.84522326999999
5.374983122572881;0.6778183881965382;-0.0193739165901906;0.019795974851786687;30.0;53.73328029;86.84490396999999
6.701352348238706;0.67593789399549;-0.0499643112062812;0.018689803628141464;30.0;53.733286510000006;86.84457995
4.867364764772692;0.6806743430912927;-0.0183542367696543;0.018852283902808423;30.0;53.7332914;86.84425716
5.322415545298026;0.6723746216998525;-0.0254919955134087;0.018374367553626352;30.0;53.733294869999995;86.84395087
5.988614137189161;0.7647458882219582;-0.0418068726419904;0.014660791153386907;30.0;53.73329742999999;86.84364366999999
5.087234460786878;0.6939644208724345;-0.0091771183848271;0.01341437797518747;30.0;53.73329928;86.84333064
5.635143764839639;0.7117780641586475;-0.0122361578464362;0.014524224614541741;30.0;53.73330011;86.84301147
5.18369644092366;0.7462678650512247;-0.0112164780258998;0.011736904035156084;30.0;53.73330171;86.84268539
4.108814711557577;0.754989819967242;-0.0275313551544814;0.011663837715660194;30.0;53.73330555;86.84235131
4.956384112682244;0.7867116067838881;-0.0173345569491179;0.013235777500441326;30.0;53.733324100000004;86.84197306
4.812992823178504;0.6608641168274506;-0.0418068726419904;0.011285275670818702;30.0;53.7333545;86.84159898
3.3619818650400703;0.6410250558446955;-0.0254919955134087;0.012243708700500469;30.0;53.733397419999996;86.84122973999999
4.570683924080443;0.5391306737918053;-0.020393596410727;0.016858500784338593;30.0;53.733454210000005;86.84085901
4.0156728658683445;0.4778876979294263;-0.003059039461609;0.01734488396265855;30.0;53.73352421;86.84049381
4.56455641566095;0.4747494804380912;-0.0112164780258998;0.019009729722456185;30.0;53.73360547;86.84013475
4.567011113077879;0.4364411890327942;-0.0010196798205363;0.02135141261463551;30.0;53.73369425999999;86.83978578
4.038320283594;0.8529767935291266;0.0193739165901906;0.02135141261463549;30.0;53.733785020000006;86.83944134
4.015221442410052;0.905785479059836;-0.0010196798205363;0.022757371311848507;30.0;53.733874650000004;86.83909577
4.196913632852992;0.9788838094144682;-0.040787192821454;0.022577716108812717;30.0;53.733963470000006;86.83873659
4.646559553168504;1.090894813154082;-0.0448659121035994;0.025503549266450834;30.0;53.73403974;86.83840582
6.611922792839889;1.2118008898207595;0.0132558376669725;0.025525962211370896;30.0;53.734110720000004;86.8380544
3.0269911174004096;1.213003491661088;0.0193739165901906;0.028071357245721823;30.0;53.734177779999996;86.83768626
3.224451763284636;1.6160397216892282;-0.0173345569491179;0.03858065649949434;30.0;53.73423833;86.83729881000001
2.76832898247984;1.6457131503929023;-0.0448659121035994;0.03877823275881957;30.0;53.73428261;86.83688228999999
2.3954271199054884;1.6171953677735722;-0.0142755174875089;0.037589337888039503;30.0;53.73429467;86.83643866999999
3.1729897186424174;1.5532052951758548;-0.0509839910268175;0.03577382758815729;30.0;53.73428027999999;86.83597628
0.3980765032444439;0.8806140950029463;0.0723972672580809;0.0350278117492033;30.0;53.73424;86.83550592
2.212651145550019;0.9014698768614171;-0.0285510349750178;0.04491030800915842;30.0;53.73417155;86.83503811
3.537000331705725;0.8610098990120976;-0.0112164780258998;0.04946165408584771;30.0;53.734068130000004;86.83459165000001
2.2925689380465832;0.8579899557914983;-0.0173345569491179;0.04674243142699726;30.0;53.733925709999994;86.83417531
2.8011928315552512;0.8763304793916564;-0.0050983991026817;0.04607328233773568;30.0;53.73374070999999;86.83380855
1.7493674060015347;0.8234370329171258;0.0815743856429081;0.043307391772373555;30.0;53.733511;86.83348156000001
2.5018097865426934;0.5471077545545076;0.0652595085143265;0.03796487668202588;30.0;53.73323637;86.83320181
2.702680419705395;0.5785349328141142;-0.0101967982053635;0.04547512880746095;30.0;53.73292669;86.83297661
1.8098737178208748;0.5632571747367516;0.0101967982053635;0.048258261949641265;30.0;53.732600070000004;86.83279847
2.1612358663201108;0.7742463863548249;-0.0295707147955541;0.04849039472129124;30.0;53.73225444;86.83265508
2.9625277646698955;0.8236586495401036;-0.0010196798205363;0.04857608831223344;30.0;53.731894409999995;86.83254337
3.1634641401175965;0.9385030718645909;-0.078515346181299;0.038551899163780566;30.0;53.731524300000004;86.83245742
1.4683754134897955;1.3199420802420159;-0.0509839910268175;0.028861922791451635;30.0;53.731145600000005;86.83239103999999
0.6873345961211262;1.7160081389868587;-0.023452635872336;0.029364152802460013;30.0;53.73076357;86.83232645000001
1.0229451380202823;1.7453438009803885;-0.0132558376669725;0.03113694176807802;30.0;53.730379830000004;86.83225503
0.5986592758707909;1.7668845014725894;0.0081574385642908;0.03150212017102469;30.0;53.72999391999999;86.83217632
-1.1664342083674797;1.5768384799403747;-0.0509839910268175;0.030072824501109364;30.0;53.72960788;86.83208468000001
-2.288033056018313;1.2521752645357456;-0.0484347914754767;0.025551351085625854;30.0;53.72921396;86.83197492000001
-0.363688052841655;1.0778166220777534;0.0214132762312633;0.026770182810993297;30.0;53.7288104;86.83184528000001
-1.044948598656632;1.0066702147208795;-0.0418068726419904;0.028854967152551442;30.0;53.72839897;86.83169753
-0.8214950891348037;0.7860081028177535;-0.0275313551544814;0.028892177829129947;30.0;53.72798895999999;86.83153584
-1.6980074993885432;0.5337489462033694;-0.0071377587437544;0.028492353196018082;30.0;53.72756615000001;86.83135367
-0.822495958632488;0.5860591277911106;0.0193739165901906;0.026431428404513263;30.0;53.727142470000004;86.83116039000001
-1.459547515083585;0.5054396445547366;0.0193739165901906;0.021717291799367648;30.0;53.726719159999995;86.83097004
-1.4150879148534536;1.2089393719652877;-0.0071377587437544;0.0299091113424877;30.0;53.726255370000004;86.83080321
-1.3679947044250358;1.4813342917813925;0.0020393596410727;0.02787130024094446;30.0;53.725787409999995;86.83065269
-2.0237698736717933;1.718608072406758;0.0193739165901906;0.026746004943455737;30.0;53.72531473;86.83052049
-0.7221579418730057;2.0886676548476504;0.0071377587437544;0.028403416852369218;30.0;53.72484697;86.83041369
2.3236885127414864;2.128029740399165;-0.0708677475272764;0.027371909415947186;30.0;53.724386609999996;86.83033732999999
1.8218578806272696;2.028475845290113;0.0081574385642908;0.028919355332690605;30.0;53.72393399;86.83029431000001
2.168741313744535;1.8680631732881157;0.0081574385642908;0.03790305327442441;30.0;53.72348174;86.83027214
3.887739263256188;1.735684692897155;-0.0305903946160905;0.037924535387937136;30.0;53.72302638;86.83026222000001
2.103795852564889;1.221093843799823;-0.0010196798205363;0.03480862264561668;30.0;53.72258128;86.83024464
1.62321535864407;0.8367053205426607;-0.0469052717446721;0.03426758066296631;30.0;53.722146640000005;86.83021192
0.9239213331606844;0.8367884694533326;-0.0892219842969307;0.031152891978597108;30.0;53.721761709999996;86.83014187
2.9548774275771;0.8981460404517203;-0.0458855919241358;0.03214144269808822;30.0;53.72138256000001;86.830052
1.488319035994307;0.9022255228940229;-0.020393596410727;0.03066060585873294;30.0;53.72101298;86.82995122
2.696300659456119;0.8041959268513634;0.0020393596410727;0.03397611143085992;30.0;53.72065311;86.82983967
2.328631942334269;0.9517233742805059;-0.0112164780258998;0.037537861445412005;30.0;53.720305440000004;86.82972496
3.355640584574067;0.9173278985770086;0.0163148771285816;0.04158802896487993;30.0;53.71996949;86.82960661
2.713332159736346;1.0306516756633723;-0.0387478331803813;0.030426855906658334;30.0;53.71964114;86.82949074000001
3.258984580003085;1.207937550283202;0.020393596410727;0.02681976545001303;30.0;53.719334419999996;86.8293965
4.003067209193486;1.6733029141671334;0.0316100744366268;0.028822919532496393;30.0;53.719027080000004;86.82933492000001
3.254488731813832;2.2586851327759088;0.0499643112062812;0.029296010316644007;30.0;53.71871774;86.82930718
5.363063174458758;2.918270785346054;-0.0015295197308045;0.02988747286069338;30.0;53.7184073;86.82931162
1.1594828502344956;2.9453741973138894;-0.0183542367696543;0.030437105784328334;30.0;53.71810163;86.82934131
-0.8853371670413569;3.108443256888076;-0.0367084735393086;0.029763522607487863;30.0;53.71779456;86.82938752
-2.06979614441086;3.050628428500707;-0.0152951973080452;0.030102390204270413;30.0;53.71748434;86.82945362000001
-3.604967214891672;2.831099344676365;-0.0214132762312633;0.034762666592991376;30.0;53.717168300000004;86.82954206000001
-0.8059033258173989;3.18505751941307;0.023452635872336;0.030171391810053978;30.0;53.71684259999999;86.82964899999999
-2.468761191334484;2.1112905753190314;-0.0336494340776996;0.03286629112381496;30.0;53.7165069;86.8297741
-1.658056082655538;1.8293615908746959;0.0244723156928724;0.03303161106546541;30.0;53.71616064;86.82991168000001
-2.352841264467553;1.8391585783283644;-0.0683185479759355;0.042272667308498685;30.0;53.71580181;86.83006485
-6.965481980117099;2.4644539076202876;-0.0540430304884266;0.045564591783427276;30.0;53.71542298000001;86.83022618
-1.899878151947441;2.707559295668577;-0.0683185479759355;0.04480871177202368;30.0;53.715039309999995;86.83039035
-0.9568802364590347;2.8907700595910333;-0.0418068726419904;0.03787881414814267;30.0;53.71465309;86.83055453
-0.7795643571613257;3.3243765309173576;-0.1121647802589986;0.037059902678419486;30.0;53.714267400000004;86.83071924
2.8092280726112446;3.315915269388887;-0.0978892627714897;0.02282504176564333;30.0;53.713884029999996;86.83087859
2.3615895076759608;3.2446233706551206;-0.0489446313857448;0.025770097419843006;30.0;53.71350281;86.83102729
1.9207512149631825;2.3357225486614;-0.078515346181299;0.029000884415156733;30.0;53.713079390000004;86.83116963
4.606397831179182;2.225585697307469;-0.0499643112062812;0.0323954131613197;30.0;53.712641080000004;86.83129452
-1.4601469068195758;2.2005900997580037;-0.0550627103089629;0.03160258127741853;30.0;53.71220153;86.83140025
-0.8590111595142704;2.167963515368808;-0.0295707147955541;0.03669966043353541;30.0;53.71175565;86.83147149
-2.025392876992966;2.178978725078154;-0.1080860609768532;0.036570526094321945;30.0;53.71132218;86.8315065
-0.5364196975094976;2.134151238295729;-0.023452635872336;0.03735120107803923;30.0;53.71087881;86.83151624999999
1.9130325008097009;2.2548189070862983;-0.078515346181299;0.03779335805352915;30.0;53.71043373;86.83151661000001
2.248938927155124;1.982565905506896;0.0132558376669725;0.03778051723426078;30.0;53.70998077;86.83150653
2.931223097272051;1.8438473652644165;-0.0050983991026817;0.04044762087434015;30.0;53.709524959999996;86.83148847999999
0.9835383715386102;1.6948255290235803;-0.0219231161415315;0.04082290138956755;30.0;53.709067700000006;86.83147154000001
3.3980440234532687;1.8398467593079986;-0.0825940654634444;0.03406508161858504;30.0;53.708654409999994;86.83145761
2.5953186387637137;1.863839741730516;-0.037728153359845;0.036028727074016116;30.0;53.70825632;86.83145376
2.4792521914291634;1.8597462121925157;0.0061180789232181;0.04099206587695155;30.0;53.70785897;86.83145577
0.8125165056994917;1.858402431449436;-0.0183542367696543;0.03951400010578769;30.0;53.707469059999994;86.83146522
-2.635632992560586;1.7487146661831632;-0.0652595085143265;0.04017938897142477;30.0;53.70707976;86.83147784
-0.7321079291216243;1.8957152130221662;-0.0703579076170082;0.04526582186760886;30.0;53.706690259999995;86.8314877
0.9260983908442504;1.8066376851029973;-0.1091057407973896;0.05676166785197727;30.0;53.70630055;86.83148967
0.1657678363899322;1.7266307212675973;-0.0917711838482716;0.060606792678004895;30.0;53.70591459;86.83151842999999
1.3548147156174308;1.5926344158636676;0.0;0.06765063103191832;30.0;53.70554413;86.83159085
3.244566777925152;1.5735719523245284;0.020393596410727;0.06768136277264507;30.0;53.70519695;86.83171215
-0.7850677632384039;1.2708738089860334;0.07545630671969;0.0651606521569573;30.0;53.70487849;86.83188265
-0.6512042426759487;1.2356153653469064;0.0397675130009177;0.06281830939311817;30.0;53.70459416999999;86.83211033
-0.7045580131016906;1.2200767035628712;0.07545630671969;0.059291261653479886;30.0;53.70434754;86.83241666
0.1753914083607289;1.2440014898252485;-0.0061180789232181;0.05118853635770844;30.0;53.70414022999999;86.83281351
-0.1151625299364895;1.1916205203956096;-0.0091771183848271;0.05118326058072789;30.0;53.703968370000005;86.83332261
-0.2317460722478115;0.462467050193996;-0.0438462322830631;0.05175192508549872;30.0;53.70383989;86.83391605
0.0590732868399731;0.7407039218883417;-0.0887121443866625;0.04469797667219045;30.0;53.703746460000005;86.83460342
-0.5129708483190435;0.7840978546221642;-0.0214132762312633;0.04213827629449149;30.0;53.70368816;86.83533104
0.7000910209591498;0.7829996363734505;0.0086672784745589;0.02689296119613853;30.0;53.703646570000004;86.83607280999999
-0.3234223538435815;0.9200894476655426;-0.026256755378811;0.025965279530588314;30.0;53.703611439999996;86.83681336
-2.1059348555492408;0.9048020817685497;-0.020393596410727;0.024907606009860125;30.0;53.70358031000001;86.83754511
-1.210875930206797;1.3393849518070282;-0.0418068726419904;0.024670741235983708;30.0;53.703552609999996;86.83827004999999
-0.1170830823368871;1.381101204800534;-0.0382379932701131;0.016745587312009647;30.0;53.703529530000004;86.83897657
-2.0717319215245773;1.7916486151076674;-0.0193739165901906;0.016763859634411342;30.0;53.70352068999999;86.83971781
-0.6997458554563808;1.5985488172345093;-0.0326297542571632;0.013101579618652253;30.0;53.70352107;86.84042219
-3.855646079878348;1.469213959491765;-0.0244723156928724;0.013215359067064558;30.0;53.70353408;86.84112896
-2.7317876694431065;1.4720006383700766;0.0061180789232181;0.016510296080966474;30.0;53.70355925;86.84180437
-5.091260067229462;1.422127003761448;-0.023452635872336;0.017149375659804816;30.0;53.703599940000004;86.84246202
-2.955285672137682;1.2560446203150202;-0.0270215152442132;0.01738945276134267;30.0;53.703658499999996;86.84311194
-2.340399814099081;1.2855029220047074;-0.0188640766799225;0.0172564052626135;30.0;53.70373755000001;86.84375419
-1.9707660676185172;1.1186204642868898;0.0071377587437544;0.017116250420254414;30.0;53.70383983000001;86.84439406999999
-2.6077379137844425;1.262721474973522;0.0081574385642908;0.018729322220970526;30.0;53.70396239;86.84503119000001
-1.2068863864246742;1.7061799419119505;0.0122361578464362;0.022626784824358443;30.0;53.70411035000001;86.84568347
-1.5893644223608467;1.5709845907324773;-0.0163148771285816;0.029560164501541007;30.0;53.70426748999999;86.84627581
-2.809509346863473;1.466873772115405;-0.0316100744366268;0.03050837983524919;30.0;53.70443598000001;86.84686925999999
-0.3452593773701539;1.4461898375540518;-0.037728153359845;0.03194345845246511;30.0;53.704605130000004;86.84745569
1.3272617527639012;1.4025868159563086;-0.0591414295911083;0.060044073245850746;30.0;53.70477244999999;86.84805309
1.1608403063645976;1.2463590307586967;-0.078515346181299;0.07696464585993788;30.0;53.70492104;86.84865992
-0.8644617192770414;1.8663711056520238;-0.0479249515652085;0.07414834279017768;30.0;53.70503105;86.84924864999999
0.1160247499088602;2.142518313710559;-0.058121749770572;0.07479189103864761;30.0;53.705098510000006;86.84979739
-0.2786857388718052;1.9890170954033555;-0.200367084735393;0.07924597275841835;30.0;53.705099340000004;86.8503051
0.0568367533512349;2.1473362386694035;-0.223309880697461;0.08393886153221557;30.0;53.7050577;86.8507601
4.115790845564645;2.321405922404158;-0.1539716529009891;0.08625104076197612;30.0;53.70496813;86.85114413
4.089594960295898;2.403521178060408;-0.0107066381156316;0.0884121958861757;30.0;53.70483564;86.85147500000001
3.956117475450522;2.1118654551509004;0.0086672784745589;0.09027332752620823;30.0;53.704664120000004;86.85174636
4.686555013843741;1.9031310919988929;0.0112164780258998;0.09240978665113676;30.0;53.70445912;86.85195352
4.739051260987234;1.4134280995828825;-0.0163148771285816;0.07864819312666706;30.0;53.704224520000004;86.85209012
4.561573089919221;0.4084148666564939;-0.0152951973080452;0.04726780895464597;30.0;53.70397598000001;86.85216158
3.870394089671463;0.4852981818623631;-0.0101967982053635;0.01318823131279151;30.0;53.70373087;86.85219551
4.662073273437651;0.4819834286893065;-0.0045885591924135;0.013288914206104646;30.0;53.70346571;86.85219915
4.800828111183616;0.5017551217822174;-0.0295707147955541;0.012012354368400773;30.0;53.703225759999995;86.85218447999999
3.7238875518597614;0.4797903842213827;-0.0254919955134087;0.009149539294992064;30.0;53.70298881;86.85215489
3.4837512870900715;0.44633165061565083;-0.003059039461609;0.011350730652727003;30.0;53.70275356999999;86.85212189
4.327923821994255;0.47679452392011906;-0.0040787192821454;0.011355818499259979;30.0;53.70252154999999;86.85207419000001
3.747265861368495;0.5117303041930905;-0.0183542367696543;0.012414366260475563;30.0;53.70228958;86.85202398
4.306175793875256;0.5107859705002608;-0.0081574385642908;0.02324755696415617;30.0;53.70206121;86.85197225
4.305622569555367;0.7816248845485038;-0.0346691138982359;0.030601722294544387;30.0;53.701820399999995;86.85193112
4.816106662492419;0.7690307071164345;-0.0142755174875089;0.03256330118371231;30.0;53.70158418;86.85189713999999
4.936554262249715;0.6953129499261748;-0.0326297542571632;0.03285627163636038;30.0;53.701352889999995;86.85187065
4.649492872618776;0.676475652268852;0.0448659121035994;0.03279943672709891;30.0;53.70115176;86.85186408
6.2040600609061;0.5656613437767899;0.0550627103089629;0.03199062056322055;30.0;53.70095334;86.85186278
5.205880810501254;0.5132833769569822;0.040787192821454;0.031347669488239936;30.0;53.700755189999995;86.85186943
5.3959722994914205;0.45598111925299734;0.0183542367696543;0.028605406590541296;30.0;53.700560239999994;86.85186904
4.772775961896158;0.5099028909670774;0.0132558376669725;0.027766648956562657;30.0;53.700365;86.85187348
5.240260693507499;0.8489952130703322;0.0244723156928724;0.022205789704625657;30.0;53.70017163999999;86.85187468
5.088528792677257;0.9305811490118111;0.0071377587437544;0.02840219661270984;30.0;53.6999735;86.85187622
4.758205568901615;0.7811497000499592;-0.0152951973080452;0.024727381649840795;30.0;53.69978237;86.85186429
4.348426870622661;0.8721869907772167;-0.0056082390129499;0.021677691124007515;30.0;53.69957715;86.85184851
2.922748564834296;1.1113997019826283;0.0254919955134087;0.026114389731197854;60.0;53.6993131;86.85182766
3.654728357144968;2.0867461474888622;-0.0438462322830631;0.025253464079296017;60.0;53.69903089;86.85180657000001
4.458642217660404;2.3017442060169144;-0.0112164780258998;0.022528604618981755;60.0;53.698732799999995;86.85178752
3.10787412974887;2.158732032963212;-0.0101967982053634;0.024124342617474436;60.0;53.69841869;86.85177037
1.805270516593506;2.0164655312218747;-0.0520036708473539;0.03090642078793966;60.0;53.69808773999999;86.85175942000001
-1.7164232696837656;1.938779241620998;-0.0163148771285816;0.03070799822294802;60.0;53.69773103;86.85175598999999
-0.5518859203124279;1.9536335793119408;-0.0254919955134087;0.026798811810697994;60.0;53.697358980000004;86.85176282
2.135658664235897;2.187194050856166;0.0193739165901906;0.04278188445648835;60.0;53.69697618;86.8517717
2.8719328220378406;1.91841774070569;-0.0744366268991536;0.04778178971589971;60.0;53.696584370000004;86.85179205
0.6311866324576928;1.7763644330439718;-0.0316100744366268;0.04778178971589971;60.0;53.696189770000004;86.85181473
3.1598288486082886;1.7469917411582465;-0.0040787192821454;0.04663652803401984;60.0;53.69583596;86.85183212
-1.871128491481762;1.5652453362569354;0.0846334251045171;0.049454179290620466;60.0;53.695483360000004;86.85184047999999
0.3625449950869621;1.712304869493619;-0.0795350260018354;0.049547533180766296;60.0;53.69513057;86.85183841
0.2382218463286319;1.703123515405902;-0.0101967982053635;0.04944436690700824;60.0;53.69477799;86.85182631
1.2593662872416629;1.670743297638916;0.0010196798205363;0.05471004315756978;60.0;53.69442477;86.85181100999999
1.8663644863480373;1.7346344956883566;0.0387478331803813;0.06081801057098755;60.0;53.69408277;86.85178389
3.982430027626016;1.5566145687945014;0.0152951973080452;0.06081801057098755;60.0;53.69374067;86.85173363
0.8950503955170507;1.501389473998584;0.0173345569491179;0.05455496160227422;60.0;53.693401879999996;86.8516534
-0.1747168809146744;1.568871968027572;-0.1040073416947078;0.054197392003711;60.0;53.69307211;86.85153355
-0.4619679973040678;1.7247830672881328;-0.092790863668808;0.057606871398982844;60.0;53.69272624;86.85132848
0.1263398665426134;1.701137354373137;-0.0040787192821454;0.06025151166922622;60.0;53.69240463;86.85108367000001
-1.5474291589588076;1.6001618624523697;-0.0922810237585398;0.054007773765685274;60.0;53.69211137999999;86.85080578
-0.7884631538552684;1.1177161349100684;0.0244723156928724;0.04937261308018574;60.0;53.69185493;86.85049301000001
-1.717690188554892;1.168711615102926;-0.0846334251045171;0.042985716547588974;60.0;53.691637979999996;86.85014550000001
-0.2316196400637303;1.2647220502563983;-0.095849903130417;0.04315657565924018;60.0;53.69146138999999;86.84974363
-0.3313585140193043;1.4958239080330356;-0.0560823901294993;0.042236611668245244;60.0;53.69132208999999;86.84930737
2.120871351694765;1.836833814654399;-0.0479249515652085;0.0402041088701138;60.0;53.69122186;86.84885386
1.3020124026888995;2.026332600827608;-0.0438462322830631;0.036588686015561395;60.0;53.691154329999996;86.84839976999999
-1.6984427303741545;2.057024846813949;-0.0040787192821454;0.031295293625757406;60.0;53.69111379000001;86.84793939
-2.837840910040634;1.9268801824443855;-0.0061180789232181;0.029495412646391776;60.0;53.691119230000005;86.84751987000001
2.8197614861080007;2.172864719298211;-0.0418068726419904;0.030149127305715968;60.0;53.69112953;86.84709497
2.893166179974583;2.3986626719172834;-0.0418068726419904;0.02764029362311173;60.0;53.691128070000005;86.84665575
1.7898485022325477;2.408955254563419;-0.0081574385642908;0.029541839069914734;60.0;53.69110875;86.84622171000001
1.2866784946233922;2.41935338784804;-0.0061180789232181;0.032250883900981644;90.0;53.69107768;86.84579896
4.160088056008557;2.267447568662367;0.0418068726419904;0.04175658378709825;90.0;53.691039149999995;86.84539691
-2.295043338581176;1.8680121865172064;-0.011726317936168;0.041697888750200474;90.0;53.69100209;86.84500401
-0.6504827643069325;1.8111080246617084;-0.061180789232181;0.04342211398204952;90.0;53.69096834;86.8446221
1.5996778350492604;1.7433404567411108;-0.0652595085143265;0.05091667604457552;90.0;53.69094018;86.84424578
0.8245187397927669;2.050127586310538;-0.1080860609768532;0.050455808424325836;90.0;53.6909182;86.84388076
2.512014475752355;2.1514966114641334;-0.0601611094116447;0.052352640029397324;90.0;53.690905640000004;86.84353796
1.0705242870399634;1.859853956975575;-0.0744366268991536;0.04711786977669943;90.0;53.69090143999999;86.84321120000001
1.950496671230614;1.6253890744846584;0.0448659121035994;0.04950192846241069;90.0;53.69091605;86.84290837
-2.306664781695277;1.5377302168010232;-0.020393596410727;0.052952383136896694;90.0;53.69094538;86.84261258000001
2.8920179086836466;1.578865620847265;-0.0876924645661262;0.05265998856689349;90.0;53.69097438;86.84232158
1.5274326654363055;1.708886369071352;-0.1050270215152442;0.04780982812144013;90.0;53.69099491000001;86.84203747000001
-0.6839945708776156;1.6241012095206582;0.0081574385642908;0.05203864809809495;90.0;53.69100211999999;86.84176052000001
1.3507259379954992;1.9743022512567947;0.0081574385642908;0.05596392034232898;90.0;53.69098821;86.84148549
2.2894371129042046;2.0947374233310936;-0.0560823901294993;0.05566160989069756;90.0;53.69094803;86.84122003
-0.9195492194064306;1.7809678561088351;-0.0326297542571632;0.05688568611433282;90.0;53.69088633;86.84096377
1.1378545609836253;1.6789526352888742;0.0346691138982359;0.05401298754357758;90.0;53.69080799000001;86.84070623
4.364051547013985;1.670472366013897;0.0601611094116447;0.04908369565443436;90.0;53.69072874999999;86.84046314999999
-1.309157877418864;1.821771159457032;-0.0846334251045171;0.05446740659249522;90.0;53.6906573;86.84024322
1.04760509532991;2.1963494070489915;-0.0662791883348628;0.05436085277463274;90.0;53.690588985;86.840052025
0.6138553221970164;2.0782691005747966;-0.0509839910268175;0.05722759638921719;90.0;53.690524045;86.839897485
0.5034807351317403;2.1657450071638085;0.0265116753339451;0.057245762134501825;90.0;53.690464935;86.839776935
-1.845934196940182;2.2887489871752122;0.061180789232181;0.05505958928690419;90.0;53.690410015;86.839686175
-3.288197872213918;1.5435079426582807;-0.0290608748852859;0.04805040925620078;90.0;53.690363264999995;86.839613825
-0.1674981079143539;1.5435079426582807;-0.0825940654634444;0.04805040925620078;90.0;53.690363264999995;86.839613825
-2.070725189364012;1.5435079426582807;0.0040787192821454;0.04805040925620078;90.0;53.690363264999995;86.839613825
-2.9549374686541774;1.5435079426582807;-0.0356887937187723;0.04805040925620078;90.0;53.690363264999995;86.839613825
-0.1701842324752821;1.5435079426582807;-0.003059039461609;0.04805040925620078;90.0;53.690363264999995;86.839613825
