acc_X;acc_X_std;acc_Z;acc_Z_std;class;lat;lon
-1.591137140845242;2.765339240392252;0.0020393596410727;0.05460816767975125;90.0;53.72778203;86.85367003
-2.206898219400895;2.765339240392252;0.0122361578464362;0.05460816767975125;90.0;53.72778203;86.85367003
2.30896786627837;2.765339240392252;0.0091771183848271;0.05460816767975125;90.0;53.72778203;86.85367003
-1.992336459898626;2.765339240392252;-0.0163148771285816;0.05460816767975125;90.0;53.72778203;86.85367003
-7.921080370659941;2.765339240392252;-0.078515346181299;0.05460816767975125;90.0;53.72778203;86.85367003
-0.120160851038181;2.765339240392252;-0.0652595085143265;0.05460816767975125;90.0;53.72778203;86.85367003
-3.070437104527249;2.7877044083531834;0.1101254206179259;0.05942049942692597;90.0;53.72773646;86.85381134000001
-1.6199228415448013;3.1506900558491453;0.0509839910268175;0.059157152448557085;90.0;53.72768530999999;86.85393939
0.2295374914422637;3.2249934475804873;0.0305903946160905;0.0590249894221779;90.0;53.72762942000001;86.85404478000001
-4.280242569355467;3.2184271035895686;-0.0193739165901906;0.06071306433319052;90.0;53.727567869999994;86.85411379
-0.8599011662208168;2.2406430396730004;-0.0703579076170082;0.05619670436004359;90.0;53.72749381;86.85414981
2.726274529704999;2.434589262002711;-0.0050983991026817;0.05637826950863589;90.0;53.727399160000004;86.85414988
2.840824856469697;2.560093573415216;-0.0173345569491179;0.04397649588026265;90.0;53.72729196;86.854099
-1.3577535568301384;2.6296246448770266;-0.0530233506678902;0.03703468280185913;90.0;53.72718027999999;86.8540078
-0.4159600967256757;2.5898287283770687;-0.0193739165901906;0.030930708084476705;90.0;53.727069119999996;86.85385568
-3.7019505213775377;2.391675124353775;-0.066789028245131;0.03298055209657128;30.0;53.726971070000005;86.85366291
-4.152675205599087;2.4002579444693675;-0.0836137452839808;0.03286369865467406;30.0;53.726894370000004;86.85344285
-2.9960364493394063;2.0286890338666232;-0.0734169470786172;0.0272721200134962;30.0;53.72684828;86.85322012
-2.014421410206939;1.7482304431908464;-0.0856531049250535;0.024462931423033317;30.0;53.72683216;86.85299663999999
-1.5731853902830328;1.931984528107989;-0.1019679820536351;0.024332417960871155;30.0;53.72684511;86.85276895000001
-0.4647648574555766;2.0805093949688884;-0.0672988681553992;0.01778067448469764;30.0;53.726898989999995;86.85252843
-0.2251933916738171;2.135626102611287;-0.0601611094116447;0.017879989461208327;30.0;53.72699649;86.85229057000001
1.5388107621000768;1.71869533114413;-0.0346691138982359;0.031640679710013664;30.0;53.727145199999995;86.85204759999999
1.051893762972921;1.4742654838025355;-0.0759661466299581;0.03143425950009133;30.0;53.72732868000001;86.85180611999999
1.2364422019923214;1.6829191481766756;-0.0774956663607627;0.0333746054044971;30.0;53.72753958999999;86.85157927
2.39443108882141;1.5168948818496935;-0.0644947486489242;0.029048958785479;30.0;53.72776828;86.85135227999999
0.3496895182920287;1.3438348725273566;0.0122361578464362;0.028702384534992617;30.0;53.728008120000005;86.85112876000001
1.9173091868624743;1.1519955227267278;-0.0591414295911083;0.03316312777819896;30.0;53.728259359999996;86.85089359999999
4.421427142600185;1.1456881450245116;-0.0142755174875089;0.036961820966250405;30.0;53.72851684;86.850657
3.1683371326001337;1.0948736804274988;-0.0591414295911083;0.05111587606503087;30.0;53.72877727;86.85041823
1.834272906238059;1.1408144191126255;-0.035178953808504;0.05874542347010318;30.0;53.729037240000004;86.85018923999999
1.6433268985480949;1.1370460606888404;-0.0999286224125624;0.06111740406810854;30.0;53.72930209;86.84997537000001
2.265590868476645;1.3284268762957245;0.0020393596410727;0.05452824640328843;30.0;53.7295576;86.84979824000001
2.3327231105149493;1.4056207860835181;-0.1600897318242072;0.05523082672084563;30.0;53.729813039999996;86.84965176
0.8191816171582986;1.6602458153604596;-0.147853573977771;0.052167361744265346;30.0;53.73006932;86.8495394
1.9795425429313132;1.936729758990011;-0.1157336596308759;0.055318191528944086;30.0;53.730316949999995;86.84944911
5.160399937119916;2.2650076353614326;-0.0601611094116447;0.05770845791155018;30.0;53.73055416999999;86.84937657
4.240933913937311;2.175644292460484;-0.0438462322830631;0.06200758702007065;30.0;53.73078812;86.84932635999999
5.937512335786887;2.080156461506992;-0.0479249515652085;0.06246460244183858;30.0;53.73103183999999;86.84928592
6.076539912715296;1.9643022000860537;-0.0173345569491179;0.05299654461463069;30.0;53.731271959999994;86.84926492
7.40826640473904;1.402312679178535;-0.0101967982053635;0.04182013466623989;30.0;53.731501849999994;86.84925673
5.329040714492002;0.8515424238361873;0.0122361578464361;0.03254506935869224;30.0;53.731717890000006;86.84924493
4.950861740338896;0.9004402006113255;0.0061180789232181;0.02747049524752223;30.0;53.73191802;86.84921721999999
5.499046223853268;0.960294542851821;-0.0045885591924135;0.025661435681679886;30.0;53.7321008;86.84917216
4.930750033010138;1.1605934179482762;0.023452635872336;0.02237630000213565;30.0;53.73226742000001;86.84910325999999
5.425204824877269;1.1915621420804816;0.0397675130009177;0.02263042240184826;30.0;53.732427140000006;86.84901978
6.530929589268541;1.1299944944354965;-0.0101967982053635;0.022577268377476423;30.0;53.73257923999999;86.84892099999999
7.659956250649603;1.0892977469675762;-0.0305903946160905;0.02440524829490542;30.0;53.732710739999995;86.84880162
8.040467198909347;0.9912923720491769;-0.0275313551544814;0.024868077136653642;30.0;53.73280999999999;86.8486628
7.059134414396956;0.9321266433748477;-0.020393596410727;0.025161516440379034;30.0;53.73289368;86.84850584
6.522926186972188;0.7340509468997221;0.0061180789232181;0.023568357423904684;30.0;53.732960850000005;86.84833237000001
6.141883113794451;0.5869838654622477;0.0305903946160905;0.01787754612659132;30.0;53.733013330000006;86.84814164999999
6.782782484825092;0.5691471988817668;-0.0152951973080452;0.01788271510168985;30.0;53.733055969999995;86.84794364999999
6.585842358756624;0.626064032682372;-0.0132558376669725;0.016715009858113927;30.0;53.733093350000004;86.84772759
6.844899869362807;0.7042048293527807;-0.0071377587437544;0.015519766563676847;30.0;53.733124839999995;86.84747492
7.412450706654367;0.9225920072289144;-0.0193739165901906;0.01595146328167942;30.0;53.733151369999995;86.84721217
6.867424523553031;1.1282790689295334;-0.0122361578464362;0.016774344293585996;30.0;53.73317464;86.84692312000001
5.8078199875940175;1.189859540289404;-0.0173345569491179;0.008301332206124652;30.0;53.733193310000004;86.84661923
4.960914640884934;1.152361768993292;-0.0040787192821454;0.00870883244982755;30.0;53.73320949;86.84631541
4.451231468033645;1.1113261304139348;-0.0244723156928724;0.00877425120846328;30.0;53.73322298000001;86.8460089
4.127983192464217;1.0441203466257463;-0.0316100744366268;0.01008801861551456;30.0;53.73323669;86.84569748999999
4.77698239325968;0.8141178805774663;-0.023452635872336;0.010378717773018761;30.0;53.73325071000001;86.84538639000002
5.348634337199035;0.6396156386948239;-0.0254919955134087;0.010106325117795313;30.0;53.7332639;86.84506678
5.622533566447389;0.6554987642293038;-0.0244723156928724;0.010601728341445859;30.0;53.73327313;86.84475345
6.116638216206609;0.7025141190983268;-0.040787192821454;0.008706178935917765;30.0;53.73328094;86.84446942000001
5.450764690781661;0.6451900221606746;-0.0142755174875089;0.008787407987795787;30.0;53.733287510000004;86.84417902999999
5.727341305350232;0.5824113949770188;-0.0152951973080452;0.009709888858520652;30.0;53.73329046;86.84390549999999
5.953733559763162;0.546738609276838;-0.0112164780258998;0.011395805910837935;30.0;53.733291529999995;86.84363777
6.148926156910171;0.5942567429044442;-0.0265116753339451;0.0120315737632925;30.0;53.733290690000004;86.84336301
4.950232819064626;0.6371147606152772;-0.0275313551544814;0.012341917443571087;30.0;53.733289590000005;86.84303423
4.426991762802488;0.6954097063468819;-0.0387478331803813;0.011702402499863361;30.0;53.73329199;86.84269359
5.127069128502895;0.6855914325679425;-0.0438462322830631;0.010734387082716797;30.0;53.73329629;86.84234205
4.750420085443665;0.6764277445927543;-0.0392576730906495;0.016533371034603648;30.0;53.73331712;86.84195328000001
4.647688742109505;0.7543478769482737;-0.0382379932701131;0.019437987862256773;30.0;53.73334834;86.84155442
4.00129175533798;0.5849949193335505;-0.0295707147955541;0.022496018039281748;30.0;53.73338736000001;86.84116592
5.108906227954625;0.5982728615038342;-0.0244723156928724;0.023472639173920874;30.0;53.73344082;86.84078418
4.391720125422364;0.6833345023669583;0.011726317936168;0.023191894670128416;30.0;53.73350861;86.84040397
3.304017853010309;0.658283576980425;0.0081574385642908;0.022378106957286214;30.0;53.73358837000001;86.84002805
3.9108288473101305;0.6696904791589647;0.0112164780258998;0.02092097629780345;30.0;53.73367882;86.8396577
5.079596543386044;0.6867615764976359;0.0020393596410727;0.018640365040587567;30.0;53.733774030000006;86.83932795
5.525629923015294;0.7245447428694741;0.0040787192821454;0.016882896128533914;30.0;53.733865449999996;86.83899697000001
4.359970429436251;0.7319972435043034;-0.037728153359845;0.015325474491088294;30.0;53.73395569;86.83865713
4.954389233560614;0.8280613504933437;0.0040787192821454;0.02587746583462868;30.0;53.734027160000004;86.83833691999999
4.016023125142057;1.0635673741090965;-0.0183542367696543;0.02549901900684662;30.0;53.73409438;86.83800734
3.622934875711653;1.1122576793757317;-0.0010196798205363;0.031200832538128075;30.0;53.73416462;86.83765006
3.525881269912768;1.3003895655673463;0.0020393596410727;0.030043373903353304;30.0;53.734243070000005;86.83728051
3.0237201654312584;1.1244054425539147;-0.0703579076170082;0.0309450379817022;30.0;53.73433686;86.83688534000001
1.9217504284614564;1.2893148256906786;-0.0254919955134087;0.032206389797083165;30.0;53.73444233;86.83647625
2.9698950488614213;1.1337885656815299;-0.078515346181299;0.03025794752594953;30.0;53.734563460000004;86.83604954
1.2675395411487966;1.1132663957690854;-0.0244723156928724;0.040207521034052014;30.0;53.73470555;86.83562331
2.4561854117027284;0.9888292632348439;-0.0672988681553992;0.04061063265998885;30.0;53.734879920000004;86.835214
0.7161583914707874;0.8367515209907402;-0.0020393596410727;0.03591387022607591;30.0;53.73508362;86.83483658
1.3049339023496684;0.7506947463842358;-0.0397675130009177;0.03699937731859316;30.0;53.73536266;86.83447306000001
0.7493659575995496;0.8199730086160907;-0.1193025390027531;0.03710429784403982;30.0;53.73567445;86.83414741
2.1964644452593616;0.6996410236739175;-0.0968695829509534;0.03694000378103976;30.0;53.73601718;86.83386294
2.065751030964564;0.7177530336833591;-0.0520036708473539;0.03577059805807624;30.0;53.73637763000001;86.83361667
1.204588406943916;0.6135034226611984;-0.0876924645661262;0.03569300167313288;30.0;53.73675109999999;86.8334167
0.5832657524936032;1.0637740218340046;-0.0244723156928724;0.0309463446128159;30.0;53.73716571;86.83326299000001
0.5841915383928645;1.1908976367039334;-0.0387478331803813;0.03883572560370087;30.0;53.73759596;86.83317611999999
1.827046799850848;1.231281985176393;-0.040787192821454;0.035362991768744766;30.0;53.73803934;86.8331587
0.9797482294380544;1.3088230946343737;-0.0469052717446721;0.03644033971994694;30.0;53.738482950000005;86.83320295000001
-1.527577643238323;1.290172693665163;-0.0774956663607627;0.03661902455458017;30.0;53.73892671;86.83330366999999
2.689806318631807;1.2967190056601492;-0.1432650147853574;0.038924866466163686;30.0;53.73933521;86.83350225
2.256118185682872;1.2995600871585185;-0.0774956663607627;0.03677780294654006;30.0;53.73972641;86.83376801
2.9148430293292438;1.29434940248158;-0.023452635872336;0.04339320395053868;30.0;53.74009644;86.83410219999999
0.9129535162100848;1.3152550098322056;-0.0469052717446721;0.042755547623898285;30.0;53.74050337999999;86.83451938
1.6603775117268147;1.346123600151952;-0.1091057407973896;0.04480020278504994;30.0;53.740957879999996;86.83496364
0.5375076093390169;1.2398509630210202;-0.0810645457326399;0.04819241356821939;30.0;53.74138558;86.83540925999999
0.6766693657627154;1.1706216983824427;0.0081574385642908;0.03859457813086701;30.0;53.74183000000001;86.835846
0.285759309120342;1.4278106375210566;-0.0560823901294993;0.040910218592748016;30.0;53.74227475;86.83626515
0.2328602965057012;1.1457387249838993;-0.020393596410727;0.041182667436470866;30.0;53.74272552;86.83665704
-1.002496786938306;1.1045519064867257;-0.0025491995513409;0.040836589057106513;30.0;53.74318151999999;86.83701576000001
-0.2362573620893949;1.2249020740385996;-0.0101967982053635;0.029683601738068048;30.0;53.74363459;86.83730755
-2.371017093386389;1.2824712211330827;0.020393596410727;0.020976193319731877;30.0;53.74411404999999;86.83753613
-0.812557775610065;1.2697259453355103;-0.0152951973080452;0.023359410960325993;30.0;53.744610699999996;86.83769998
-0.472862082430255;1.3074317591745481;-0.0254919955134087;0.035621763703942703;30.0;53.74507426;86.83778722
-2.968753462680821;1.2716124911069935;-0.0152951973080452;0.03778632671682056;30.0;53.745485880000004;86.83786092
1.013449074183303;1.3225001236674343;0.0020393596410727;0.03774992627463917;30.0;53.74589688;86.83794424
-1.9604022173716948;1.3227137769259405;0.0254919955134087;0.03947685153923448;30.0;53.746288359999994;86.83804388
0.6300930266987926;1.473221719687842;-0.1040073416947078;0.04048587617572455;30.0;53.74667401000001;86.83816841000001
-1.5254201860847545;1.4728643468114968;0.0265116753339451;0.04213994694034629;30.0;53.74705081;86.83832761000001
-2.116575038916082;1.5042598948305272;-0.0168247170388498;0.04205102793265648;30.0;53.747420940000005;86.83851597999998
-2.118754979975096;1.369141613780301;-0.0479249515652085;0.04205652220455908;30.0;53.74781442999999;86.83877635
1.2403151883115693;1.1881404288686037;0.0295707147955541;0.04167155990497464;30.0;53.74818921;86.83906921
-0.888425426835478;1.2617060941373497;-0.0509839910268175;0.03910401576988609;30.0;53.74855403;86.83938795
-2.051373555253375;1.1875800881833785;-0.0173345569491179;0.02808395811083048;30.0;53.7489147;86.83973326
-1.6037056977769166;1.2075125729847436;-0.0142755174875089;0.02401057904744351;30.0;53.74927033;86.84009656999999
-0.8845489207894551;1.182933200186093;-0.0081574385642908;0.028768908810125806;30.0;53.74962074;86.8404777
0.5949346494692919;1.1554144747247828;-0.0071377587437544;0.02627553079424543;30.0;53.749967979999994;86.84086334
-2.0248094623846846;0.8125206015174702;-0.0448659121035994;0.022277923399169147;30.0;53.75032821;86.84124405
-1.908933492288773;0.8326708356055038;-0.0152951973080452;0.01870216215863824;30.0;53.75070203;86.84161531
-1.7817754484680417;0.8942595226353588;0.0305903946160905;0.02233030258192293;30.0;53.75108249;86.84197529000001
-1.7640868905633171;0.9781981254785074;-0.0112164780258998;0.029508188417959817;30.0;53.75144914;86.84230354
-1.1318621112385288;0.9409914711759031;-0.0244723156928724;0.03335464150824606;30.0;53.751825350000004;86.84264647
-2.162109062857904;0.9684972401240962;-0.0081574385642908;0.042131173168284554;30.0;53.75220992;86.84301312
-2.6232673228817625;1.4721528912098218;-0.0504741511165493;0.043686038304113536;30.0;53.75258805000001;86.84340404999999
-2.7771417819114386;1.8582392972386965;-0.0764759865402263;0.04329235048215105;30.0;53.752962520000004;86.84380668
-1.6817840211956128;1.9640007444972944;-0.0744366268991536;0.03547291552883183;30.0;53.75333442;86.84420418
0.6948297060507708;1.9222453157350177;-0.1152238197206077;0.03241702583629196;30.0;53.75370155;86.84460715
1.841009613154469;1.9598205525729329;-0.07545630671969;0.042460309289314754;30.0;53.75406494;86.84502941999999
2.378035923169846;1.8440399764279725;-0.0683185479759355;0.045604286217046076;30.0;53.754450770000005;86.84550228999998
1.4332700241600007;1.8407290834974697;-0.0193739165901906;0.047115264580489986;30.0;53.7548395;86.84600366
-0.115647799264873;1.608995238722037;-0.0530233506678902;0.05428086000524014;30.0;53.755210780000006;86.84650805999999
1.112335302211645;1.3504814031976404;0.0336494340776996;0.0542961817995219;30.0;53.75556879999999;86.84700688000001
-0.6011183801526946;1.483333065260948;0.0152951973080452;0.05071818136207153;30.0;53.755922299999995;86.84750629999999
3.109494924649198;1.5107138290478268;-0.0856531049250535;0.050261268889402584;30.0;53.756268469999995;86.84800095
3.2710435195767094;1.5057927365025994;-0.1386764555929438;0.050219418073612125;30.0;53.756610939999995;86.84848934
2.9442284607858333;1.5545232478109934;-0.037728153359845;0.049953009054688;30.0;53.7569484;86.84899064
3.897006014718943;1.3259439612516324;-0.0193739165901906;0.05791289172729037;30.0;53.75727615000001;86.84950783000001
2.84696384015392;1.281756470573121;-0.0678087080656673;0.05006712718371973;30.0;53.757571389999995;86.85003091000002
2.045188403281937;0.5462603709753285;-0.0152951973080452;0.04317434017287269;30.0;53.75779502;86.8505387
3.427690687576834;0.7281407823287922;-0.0550627103089629;0.04459083677983893;30.0;53.757966859999996;86.85102798
2.4467903830279263;0.9403602464096379;-0.1345977363107984;0.03715361541309442;30.0;53.75809752;86.85150424000001
3.6265312765583206;1.1593954338759758;-0.0764759865402263;0.03681626287105076;30.0;53.75819224000001;86.85196760000001
3.209153773347372;1.316694931958121;-0.0994187825022942;0.03349095903026469;30.0;53.758246220000004;86.85240046
4.602157550200218;1.4743876780076786;-0.0336494340776996;0.033600001662780904;30.0;53.75826442;86.85281033999999
5.109533163453165;1.308792492039237;-0.0489446313857448;0.027995375035237528;30.0;53.75825057000001;86.85320865
5.6754742654473205;1.294483668451195;-0.078515346181299;0.029776328838410304;30.0;53.75820635;86.85358683
5.652574798303123;1.062424169085234;-0.0693382277964718;0.02450068270081657;30.0;53.758132950000004;86.85394351
6.360264908896561;1.055203539051058;-0.0764759865402263;0.033260992596811666;30.0;53.7580402;86.85426804
5.555096574388578;0.970611656884087;-0.0836137452839808;0.036963139550320115;30.0;53.75794355000001;86.85455539
3.584609467479227;1.1663430798725387;-0.1172631793616804;0.0350207199805615;30.0;53.75784099;86.85482915
4.41915425270625;1.2383183347931188;-0.0520036708473539;0.03447010502880789;30.0;53.757734000000006;86.85508568
3.6876713824135057;1.499956777348355;-0.0020393596410727;0.03625946012209094;30.0;53.757619399999996;86.8553218
6.124483531779449;1.518325608676898;-0.1254206179259712;0.036243685335730594;30.0;53.75749598;86.85553118
3.017723945382408;1.4573558443874832;-0.0836137452839808;0.03660608739461839;30.0;53.75736075;86.85571339
6.230019409061115;1.4654786999873246;-0.095849903130417;0.036693088571088536;30.0;53.75721183;86.85588191000001
2.188214533438516;1.5849255824971302;-0.0428265524625267;0.03342729816352982;30.0;53.75704879999999;86.8560312
5.8846527547574095;1.7038719111430687;-0.0805547058223717;0.03422005404649086;30.0;53.75687338;86.85615018
3.2692708869350198;1.7878388166012213;-0.0596512695013765;0.025774187835922484;30.0;53.75668766;86.85624606
2.890427335403769;1.5938424358446304;-0.0601611094116447;0.023595118328041738;30.0;53.756487660000005;86.85630974
2.1875993898302357;1.790374861736148;-0.0825940654634444;0.041869312490881196;30.0;53.75628494;86.85635534000001
1.907687193738537;2.005095311058149;-0.040787192821454;0.0391772154475722;30.0;53.75608227;86.85640611
2.031238223977387;2.0644767584573045;-0.0887121443866625;0.03914712569912334;30.0;53.755885920000004;86.85646575999999
2.0747604543394464;1.6057357499307874;-0.0265116753339451;0.0781076110681422;30.0;53.75569915999999;86.85654523999999
0.6004937557246949;1.4921812948973137;0.0469052717446721;0.07765865863341226;30.0;53.755528690000006;86.85663845
-2.0907150346902394;1.3651271362788775;-0.0571020699500356;0.0836499374664026;60.0;53.7553764;86.85676264
0.5259089945385179;1.7157433656765755;-0.0550627103089629;0.08249287473675997;60.0;53.75524375;86.85690646999998
-0.0892077977807936;1.6057204149191355;0.1692668502090343;0.08617834592035555;60.0;53.75512308;86.85706228000001
0.0563306355275813;1.4399566602939957;-0.0489446313857448;0.08974342682119063;60.0;53.755010979999994;86.85721129999999
-0.0584132333083266;1.2323160703536742;-0.1264402977465075;0.09324394456861454;60.0;53.75491633;86.85734705
-3.120725894118129;1.1828299689581279;-0.0622004690527174;0.09059711988189129;60.0;53.75484375;86.85746902999999
0.113734000986331;1.351176444444737;-0.1075762210665851;0.09175450631914059;60.0;53.754795720000004;86.85757716
-0.3737260764348266;1.5943381887643833;-0.1284796573875803;0.09827839662021493;60.0;53.75476376;86.85767832
0.5289772630786792;1.6315453738431887;0.0402773529111858;0.06982139732600859;60.0;53.754739269999995;86.85777415
-0.6344456886599323;1.8961965003524242;-0.0966146629958192;0.0718334952629024;60.0;53.75471718;86.85785958
2.369108809014369;2.920450831435027;0.0010196798205363;0.06814441081789373;30.0;53.75469571;86.85790979
2.622218700711143;2.920450831435027;0.0723972672580809;0.06814441081789373;30.0;53.75469571;86.85790979
1.2921314882166448;2.920450831435027;-0.0270215152442133;0.06814441081789373;30.0;53.75469571;86.85790979
3.3698855504492493;2.920450831435027;0.0050983991026817;0.06814441081789373;30.0;53.75469571;86.85790979
7.74836507579975;2.920450831435027;0.0249821556031406;0.06814441081789373;30.0;53.75469571;86.85790979
2.970435780621235;2.4026567446989384;-0.0285510349750178;0.04733482155347227;60.0;53.727869;86.85347540000001
1.5400476188366083;2.4026567446989384;-0.023452635872336;0.04733482155347227;60.0;53.727869;86.85347540000001
-0.0576374098541153;2.4026567446989384;-0.0122361578464362;0.04733482155347227;60.0;53.727869;86.85347540000001
3.30381992120831;2.4026567446989384;0.0469052717446721;0.04733482155347227;60.0;53.727869;86.85347540000001
0.3651052186937271;2.4026567446989384;0.0112164780258998;0.04733482155347227;60.0;53.727869;86.85347540000001
-1.2595274792112294;2.4026567446989384;0.0163148771285816;0.04733482155347227;60.0;53.727869;86.85347540000001
-2.628797183047586;2.136247772030667;-0.0254919955134087;0.05252522421940692;60.0;53.727814249999994;86.85360496999999
-2.5033233779963093;2.0565388841031784;0.0856531049250535;0.05208291889505395;60.0;53.72775838;86.85374621999999
-3.5225180671708665;2.1740655380181195;0.0305903946160905;0.05243863135287948;60.0;53.72770493;86.85388989
-1.992032382465136;2.004698725219889;-0.0846334251045171;0.05034807865885906;60.0;53.72765004;86.85401420000001
0.5737007407572291;2.0347891299495364;-0.0744366268991536;0.05009388646309995;60.0;53.7275947;86.85411246
-2.4097459115416817;2.0615315117736297;-0.0081574385642908;0.04968749672158978;60.0;53.72753721;86.85418041
1.3503831042387409;2.0626516939461617;-0.0229427959620679;0.05036000903482245;60.0;53.72747488;86.85421792
2.4654474069031664;2.0252574435371318;0.0214132762312633;0.037587071180009035;60.0;53.727398599999994;86.85422356000001
0.732995412518304;1.8363913136556527;-0.0152951973080452;0.03422511769529632;60.0;53.72730455;86.85418839
0.2312574735845202;1.952338039923603;0.0071377587437544;0.031622909197869115;60.0;53.72720718000001;86.85409358
1.5124338687240255;1.941908855133963;-0.0387478331803813;0.02969785262646164;60.0;53.72710532999999;86.85395589000001
-2.1579572585738727;1.8164118562051095;-0.0275313551544814;0.03972714834599835;60.0;53.727011690000005;86.85375985
-2.280218527763718;1.748622569344732;-0.0571020699500356;0.03943655556380284;60.0;53.72694299;86.85354011
-2.890924749472741;1.680120907921872;-0.0683185479759355;0.03554266415159746;60.0;53.72690078000001;86.85331357999999
-1.0963646644759166;1.7050430989119836;-0.061180789232181;0.0345925533766036;60.0;53.72688448;86.8530848
-0.1716472004382596;1.7107722156128236;-0.1152238197206077;0.029744060170842836;60.0;53.726896839999995;86.8528514
0.411541611699934;1.8250586975387826;-0.0458855919241358;0.0294366021147068;60.0;53.726938340000004;86.85261385999999
2.060083847318982;1.7179770005240393;-0.0050983991026817;0.02814780130467441;60.0;53.72701508;86.8523706
1.0401306587063368;1.5079599772176882;-0.0295707147955541;0.029906938541587207;60.0;53.72713269999999;86.8521247
0.3713787572794349;1.2005347056939015;-0.061180789232181;0.029403420385524178;60.0;53.72728185;86.85187961
2.337539881562972;0.9801968639177859;-0.0540430304884266;0.030329452144488532;60.0;53.727462700000004;86.85164574
0.8467322521098988;0.9535143196967223;-0.0499643112062812;0.018304128527253265;60.0;53.727666510000006;86.85143227
0.3739622787633253;0.9994987611508841;-0.0224329560517997;0.018997875331601008;60.0;53.72787971;86.85121539000001
2.7995233527783334;0.9914931247644919;-0.0571020699500356;0.017052008888651722;60.0;53.7281028;86.85099816
1.4381794114675788;0.9891514829351616;-0.0224329560517997;0.017895631007531495;30.0;53.728337620000005;86.8507773
2.5794482188497625;0.879870675505714;-0.0428265524625267;0.02631068143392344;30.0;53.72857546;86.85057481999999
3.011046729823337;0.8801450647476262;-0.0560823901294993;0.026512546840834917;30.0;53.72881526;86.85037686000001
1.760640478402279;0.829080878377892;-0.0723972672580809;0.036765864345210855;30.0;53.72905415;86.85018567
1.0749109307787934;0.9168365497452621;-0.0744366268991536;0.035580835709292324;30.0;53.72929395999999;86.8500082
1.728542283777934;0.9884211926091343;-0.1121647802589986;0.03576882169224098;30.0;53.72953700000001;86.84985188
2.341532617172412;0.9531743265148941;-0.0672988681553992;0.03820497159818984;30.0;53.72978422;86.84972022000001
1.4126092342372922;1.0977227374391032;0.0224329560517997;0.0391661188562157;30.0;53.73002962;86.84961234
4.072800789746803;1.271224621336845;-0.0642398286937901;0.04018064689156648;30.0;53.73027010999999;86.84952770999999
3.4903185547132347;1.9044792397382795;-0.0662791883348628;0.039791073407859055;30.0;53.730496540000004;86.84945974
2.847886044301714;1.969846984130887;-0.003059039461609;0.04007459170940946;30.0;53.730707540000004;86.84941218
4.145150886382783;2.010984331997339;-0.0846334251045171;0.03892516326100822;30.0;53.73090829;86.84937228999999
4.622596299504297;1.8810675528868543;-0.0295707147955541;0.04796233127436835;30.0;53.731100930000004;86.84934733
7.476735138586021;1.5059783111672902;-0.0606709493219129;0.05244281707179004;30.0;53.73128750000001;86.84933166
6.53107030107924;1.4716306975706095;-0.0244723156928724;0.05098628525479474;30.0;53.731466160000004;86.84932599999999
6.803205038515831;1.3595708412844267;0.0214132762312633;0.0479974855845982;30.0;53.731653470000005;86.84930850999999
4.813423494445041;1.062325620231761;0.0632201488732537;0.048150564046185056;30.0;53.73182613;86.84927637
5.070364121154663;1.0239242087670033;0.0560823901294993;0.03844495689989942;30.0;53.73199027999999;86.8492306
5.188303553455834;1.0840454176807097;0.0173345569491179;0.03833873333792058;30.0;53.73214505;86.84917033
5.129760249854866;1.0577074765756924;0.023452635872336;0.03528756840286966;30.0;53.73229345;86.84909857
5.498187086465072;1.0472873413109705;0.0101967982053635;0.03550559039673908;30.0;53.73243436;86.84900908
6.930223001428315;1.0177898902890576;-0.0081574385642908;0.03521284471102459;30.0;53.732568089999994;86.84889705
7.669222351887177;0.9289284975352342;-0.0285510349750178;0.031064274201745488;30.0;53.73269154999999;86.84875939
7.277826892876518;0.8561161666226226;-0.0438462322830631;0.02514865713969917;30.0;53.73280161;86.84860065000001
6.182183457736115;0.7711466761115595;-0.0265116753339451;0.025835466363115088;30.0;53.732898060000004;86.84841294
6.255474195175409;0.6836404509875635;0.0071377587437544;0.024401638571907025;30.0;53.73296323000001;86.84820675
6.020659597979377;0.5709348120221259;0.0346691138982359;0.024913040853612567;30.0;53.73301731;86.84798947
6.49637812920682;0.6271278323189916;-0.0010196798205363;0.024926948653977713;30.0;53.733060609999995;86.84776653
6.16522395432126;0.518134885897186;0.0244723156928724;0.023837401300215996;30.0;53.73309831;86.84753799
7.276095012386727;0.6537811886147259;-0.0061180789232181;0.02015426678953605;30.0;53.733132639999994;86.84729583999999
6.849516877003299;0.8218000255094411;-0.0275313551544814;0.022019470973095822;30.0;53.73316221;86.84703357
5.832571465321397;1.0206404787079204;-0.0101967982053634;0.02305293397132206;30.0;53.73318681999999;86.84676121999999
6.088372422095516;1.1275985225758745;-0.0071377587437544;0.018610514696310462;30.0;53.733208590000004;86.84647835
4.787500033828549;1.1106275840573818;0.0122361578464362;0.020423315417828034;30.0;53.733226079999994;86.84619119999999
4.622232464170115;1.084414463230824;-0.037728153359845;0.01633787452711262;30.0;53.733240290000005;86.84590333
4.086364803337974;0.8655522634998383;-0.0254919955134087;0.017589271653493176;30.0;53.73325329000001;86.84561681
4.268742845240408;0.6871351364676093;-0.003059039461609;0.017546198103028376;30.0;53.7332681;86.8453321
4.838679101013897;0.6689552788587406;-0.0367084735393086;0.01718697485405177;30.0;53.733280019999995;86.84503938
5.446726822066662;0.6369742990188683;-0.0265116753339451;0.01667348869637968;30.0;53.73328583;86.84474311
5.020965346869967;0.6360609741648404;-0.0418068726419904;0.01184517085974408;30.0;53.73328859000001;86.84444379
5.807631543815167;0.656901011882766;-0.0265116753339451;0.011420110509837742;30.0;53.733289449999994;86.84415793000001
5.669201141659594;0.6007044353102389;-0.020393596410727;0.014554418888356027;30.0;53.73328941;86.84387373
5.887192689860029;0.4973477559937478;-0.0142755174875089;0.012369500315876084;30.0;53.73328929;86.84359457000001
5.33521330314519;0.6656632586602143;-0.0173345569491179;0.012323182074221279;30.0;53.73329006;86.84331118
5.892305365142152;0.9474849262394028;-0.0336494340776996;0.013720915128097809;30.0;53.73329195;86.84302378999999
4.405952460996279;0.9867588581847434;-0.0530233506678902;0.016131149988515055;30.0;53.73329238;86.84272726
5.099757137270257;0.9457346457802054;-0.0418068726419904;0.016865352162652877;30.0;53.73329255;86.84241767
3.890033521845171;0.8926707136369247;-0.0254919955134087;0.017151649091015467;30.0;53.733297519999994;86.84209752
3.079265907988323;0.7846522923599709;-0.0499643112062812;0.018802274094449654;30.0;53.733313120000005;86.84177007999999
4.13570806009318;0.7350785285045797;-0.0601611094116447;0.01941888535287451;30.0;53.73334941;86.84141213000001
4.398048292038663;0.539895288657111;-0.0173345569491179;0.019879834268149155;30.0;53.733397849999996;86.84104841
4.63322053051446;0.5619503890649029;-0.0173345569491179;0.019395967289111093;30.0;53.733461250000005;86.84068685
4.524747055129372;0.5006413621345934;-0.003059039461609;0.022811878242025293;30.0;53.73353937;86.84033233
4.619639561864855;0.533712998585564;-0.0112164780258998;0.024880791249359515;30.0;53.733633659999995;86.83996069999999
4.181414532010436;0.5270205926642776;-0.0173345569491179;0.021670428703673843;30.0;53.73372816;86.83958928000001
4.792317347059904;0.8217250023949658;-0.0050983991026817;0.012761170625343463;30.0;53.73382623;86.83920607
4.5146717229155975;0.8727530906945676;0.0193739165901906;0.01402281181369924;30.0;53.733923960000006;86.83879692000001
3.594043602933773;0.8750491831234716;0.0142755174875089;0.014698566618621643;30.0;53.734021129999995;86.83837185
3.106909390612435;0.963562918434121;-0.0050983991026817;0.02115654752979211;30.0;53.73411955;86.83793267000001
2.2650404439896783;0.8856212796163336;-0.0061180789232181;0.021985867068109042;30.0;53.73421428;86.83752308
3.0241571734527035;0.9796145228351077;-0.0265116753339451;0.0230749735890438;30.0;53.73434109;86.83707133
3.035646264184729;1.0109016595819098;-0.023452635872336;0.022982667304721826;30.0;53.734479269999994;86.83660791
2.15234645103003;0.8025164474809393;-0.0550627103089629;0.02388364031720196;30.0;53.73462598;86.83612742
3.2393031054612345;0.8962090206897428;-0.0305903946160905;0.02729662543462462;30.0;53.73478276000001;86.83566723999999
1.7135931617335345;0.9665110958731757;-0.0356887937187723;0.03703682735414459;30.0;53.73496987;86.83522715
0.9661829768736347;0.9631840771149731;-0.0071377587437544;0.04659402489553594;30.0;53.73518233;86.83482520999999
2.4358553916787966;0.8959320793917719;0.0244723156928724;0.04686091686785377;30.0;53.73542367;86.83447007
0.7263030800938404;0.7934048896235717;-0.0713775874375446;0.04876124112396023;30.0;53.73569509;86.83415781
0.6961951311347068;0.839527694615318;0.0560823901294993;0.04880990487211851;30.0;53.73599617;86.83388545
1.91723363534714;0.6997200831944226;-0.1091057407973896;0.04970408921433507;30.0;53.73631743999999;86.83364352000001
1.6144810498085262;0.6839749183642997;-0.0438462322830631;0.04971559319023188;30.0;53.736633989999994;86.83347111
1.6522922141047516;0.788552534752982;-0.0734169470786173;0.049829327660723566;30.0;53.73696417;86.83333793
0.6657783185488979;1.590563102981965;-0.0560823901294993;0.048779599334438595;30.0;53.73731074;86.83324418
0.2282659995662963;1.5983175824418057;-0.0050983991026817;0.048164807757164856;30.0;53.737667720000005;86.833189
1.3966937459821482;1.6056824594077581;-0.0265116753339451;0.033935581721353456;30.0;53.7380271;86.83316694
2.534306712768337;1.5952759515911186;-0.0050983991026817;0.030337069356388642;30.0;53.73838979;86.83318147
-3.2508427345024398;1.6464849423502572;-0.0897318242071989;0.03025642025311673;30.0;53.73875095999999;86.83324311999999
0.3206474160514598;1.6815732565090347;-0.0601611094116447;0.029950943198879563;30.0;53.73910803;86.83335699
0.2924416462263022;1.6926144076981111;-0.0571020699500356;0.030327976088437736;30.0;53.73945269000001;86.83352501
1.7833800340413848;1.6877865888242474;-0.0866727847455898;0.029181376611102632;30.0;53.73978423;86.83374902999999
2.249456340494872;1.6880236363275476;-0.0530233506678902;0.035799330633655535;30.0;53.74009701999999;86.83403109999999
-0.7551117037818136;1.6989669246993644;-0.0693382277964719;0.036056573101147495;30.0;53.74038797000001;86.83436301
1.1578391009867854;1.1970109293310012;-0.0341592739879677;0.03679162175038574;30.0;53.740659040000004;86.83473136
0.5775130153852294;1.200933073929518;-0.0127459977567043;0.038638704953741256;30.0;53.74092863;86.83511870999999
1.4013815352018633;1.3542918048192982;0.0183542367696543;0.03865245623406298;30.0;53.741196120000005;86.83550396
-1.780931863776536;1.2640283550358893;-0.003059039461609;0.03382732201184573;30.0;53.74146595;86.83587363
0.1811014737882628;1.0549411860305848;0.0152951973080452;0.03496922035034059;30.0;53.74173982;86.83622174
0.1737982405313967;1.0494108892957552;-0.078515346181299;0.031395772591950054;30.0;53.74201938;86.83653713999999
-1.4425314442644857;0.9974649988152923;-0.0101967982053635;0.030686358358898113;30.0;53.742307419999996;86.83680726
0.5919577250697459;1.2178850219428432;-0.0418068726419904;0.032430921634797376;30.0;53.7426107;86.83702861999998
0.4104501790517757;1.2473767588082896;0.0163148771285816;0.03180613850087714;30.0;53.742930720000004;86.83720783999999
0.9700019281117446;1.1834550685418832;0.0107066381156316;0.03268639822716649;30.0;53.74326752;86.83734752000001
0.2352396202372743;1.2643668410191709;-0.0224329560517997;0.03344457410234588;30.0;53.743621080000004;86.83745788
-2.1823089319257734;1.2434054131348828;-0.0438462322830631;0.024472846770349697;30.0;53.74397804;86.83754604
-2.233242899450784;1.2662639711218968;0.0122361578464362;0.024366400931671677;30.0;53.744339950000004;86.83761867000001
-1.0352900630614448;1.273184388260219;0.0112164780258998;0.020331826396433016;30.0;53.74470536;86.83768712
-2.0653845604344423;1.1975675223962576;0.0224329560517997;0.027251355216653367;30.0;53.74507614;86.83774814
-1.3228062172142958;0.9875049544538456;0.0091771183848271;0.029774340353227353;30.0;53.745451749999994;86.83781143
0.2984102296863888;0.9443780844100644;-0.0040787192821454;0.029960006299368264;30.0;53.74583158;86.83788918
-2.1939139574567497;1.027681282663259;-0.0061180789232181;0.030214198817230562;30.0;53.74620952;86.83798808
-0.5199024767085789;0.9705068887651214;-0.061180789232181;0.031118338324996605;30.0;53.74658314;86.83810314
-0.7498188071004893;0.9905600599711462;-0.0520036708473539;0.03440216969150635;30.0;53.74695342;86.83824813999999
-0.0575835622878502;0.981293136537613;0.0020393596410727;0.031918313027551944;30.0;53.74731481;86.83842777
-2.7767460825887813;1.0905977816095076;-0.0458855919241358;0.030545041893424316;30.0;53.74769758;86.83867998
-1.2740801596358455;1.0197572464985027;-0.0489446313857448;0.040239114693617;30.0;53.74807487;86.83896510999999
-1.8292895869870605;0.9646522504438718;0.0356887937187723;0.040027249625023034;30.0;53.748445159999996;86.83928164
-1.9583298465964665;0.9470709725576272;-0.0275313551544814;0.03735672941466825;30.0;53.74880700999999;86.83962557
0.2787738993577635;0.9934636703336612;-0.0367084735393086;0.03500818217835385;30.0;53.74916279;86.83999159
-0.3121064524595174;0.8915369277552257;0.0591414295911083;0.03480650676241834;30.0;53.7495147;86.84037165999999
-1.5508844696174982;0.9353237042423723;-0.0224329560517997;0.032651034904231394;30.0;53.749864349999996;86.84075715
-1.3471533774770128;0.965814809073232;-0.0081574385642908;0.029228894737947726;30.0;53.75021594;86.84114201999999
-2.25455751117804;1.0451031213901858;-0.0040787192821454;0.026258212809518875;30.0;53.750570870000004;86.84151231000001
-1.545042667038194;1.053617616612785;-0.0056082390129499;0.028057618430159595;30.0;53.75093346999999;86.84186979
-3.027968719389335;0.9274672458843772;-0.0163148771285816;0.028178413108092232;30.0;53.751272760000006;86.84217836
-0.7095086104975677;0.8805183145183135;-0.0010196798205363;0.02030567192167763;30.0;53.75162489;86.84249465
-2.7207560255775878;1.145031778811017;0.0061180789232181;0.023361883653737706;30.0;53.75197866999999;86.84281770999999
-2.114781480815161;1.1423937799416963;-0.0428265524625267;0.022935178570462567;30.0;53.75233079000001;86.84315191
-2.973079641833174;1.1892521280039194;-0.037728153359845;0.025551351085625756;30.0;53.75267713000001;86.84350081
-3.473563028981268;1.2426952869747971;-0.0550627103089629;0.025811531892154307;30.0;53.753017019999994;86.84385862
0.1745961729103449;1.8073292608636387;-0.0550627103089629;0.031548980799395686;30.0;53.75334958999999;86.84421678999999
-2.7531881150840127;2.1360363711629162;-0.0173345569491179;0.030781647623313174;30.0;53.7536743;86.84458246
-1.0740208741104451;2.0730688070777976;0.0163148771285816;0.029522621810409825;60.0;53.754002060000005;86.84497165999998
-0.8176195687431878;2.10988418860387;-0.0020393596410727;0.031062786573830246;60.0;53.75432732;86.84537116
2.490475795238409;2.112350709355413;-0.078515346181299;0.035047306713706636;60.0;53.75464954;86.84577786
2.206924295345875;1.7347120711773938;-0.0112164780258998;0.03522879414585806;60.0;53.75495711;86.84618782999999
-0.1705975494109922;1.8013841739814973;-0.0571020699500356;0.03410338261471453;60.0;53.75526089;86.84659913
1.1643874390087916;1.4708682071330543;-0.0010196798205363;0.03658083098214655;60.0;53.755562469999994;86.84701335
2.491558150173092;1.2747225431725555;-0.0810645457326399;0.032470082871848424;60.0;53.75588323000001;86.84745699
-0.3447986982586515;1.0610633956159539;-0.0061180789232181;0.030947511201121134;60.0;53.75619712;86.84789631999999
1.900773088658204;1.0357763522413315;-0.0326297542571632;0.027908994544432485;60.0;53.756504819999996;86.84834226000001
2.3969989264208227;1.0300275843722002;-0.0713775874375446;0.0290667876316673;60.0;53.75681789;86.84880125
1.4832751533761004;0.886689157842641;-0.0479249515652085;0.03354804291057879;60.0;53.75712111;86.84926831
0.8482396130485655;0.8768270986656808;-0.0163148771285816;0.043889981596341957;60.0;53.757403520000004;86.84976832
2.2333764722299008;1.0158899204439669;-0.0326297542571632;0.04757340338072638;60.0;53.75764602;86.8503001
2.136048910180212;1.0844292642746745;-0.0010196798205363;0.04444944456613468;60.0;53.75784458;86.85083146
2.183496738608221;1.327769641215205;-0.0907515040277353;0.043412002650718845;60.0;53.75799102;86.85137982
2.044422629717977;1.5274139629139447;-0.1407158152340165;0.043519912707416786;60.0;53.75810256;86.85191119999999
3.479555922886325;1.5137348414697536;-0.1152238197206077;0.04328808060505563;60.0;53.758158460000004;86.85239206000001
4.782490653765131;1.3434558564750516;-0.049454471296013;0.03970649601884037;60.0;53.75818489000001;86.85286137
4.872062957260974;1.2512651065850804;-0.0632201488732537;0.03813206420484961;60.0;53.7581726;86.85334572000001
5.077151333844025;1.208386283852489;-0.07545630671969;0.03395196103837643;60.0;53.75811825000001;86.85380849
4.525968685964169;1.0753273945746709;-0.0744366268991536;0.033713275168779984;60.0;53.75802573;86.85424077
4.920192830545124;0.8568923167965892;-0.0795350260018354;0.026006222564778702;60.0;53.7579056;86.85462752000001
3.759427488767554;1.2532903204934753;-0.0499643112062812;0.026886019859119693;60.0;53.75777129000001;86.85495913
2.4525307844133684;1.362519606783563;-0.0224329560517997;0.026662888790490762;60.0;53.757634640000006;86.85525256000001
3.5147157781170724;1.3036490802173422;-0.0846334251045171;0.027374388939549625;60.0;53.757485499999994;86.85549254
3.6754803127629305;1.2536841472976645;-0.0428265524625267;0.02712424989198854;60.0;53.75732433;86.85571025
1.200807365962543;1.2712460604963247;-0.1193025390027531;0.02712424989198854;60.0;53.75715167999999;86.85590880000001
1.811111509162381;1.2002819366373825;-0.0530233506678902;0.028251858560212853;60.0;53.75696626;86.85608945999999
4.136357608096461;1.4904153050834452;-0.0469052717446721;0.02816482906068621;60.0;53.756773450000004;86.85621920999999
2.0046279245804453;1.6248622662279066;-0.0652595085143265;0.026042623947325604;60.0;53.756569379999995;86.85631977999999
4.669479830515669;1.7030563290072207;-0.0744366268991536;0.026646472905732455;60.0;53.7563534;86.85639564
1.6692009702138548;1.5921458835564215;-0.0316100744366268;0.026218585890111775;60.0;53.75611841999999;86.85647553999999
-0.1638456269919972;2.458365364255239;-0.0672988681553992;0.021840688567967077;60.0;53.75589959;86.85655623
0.4548381143186611;2.512152013601729;-0.0392576730906495;0.03436457991990954;60.0;53.75569141;86.85664756999999
0.0567612591078202;2.260126098751541;-0.0295707147955541;0.049200798774471116;60.0;53.75551528999999;86.85675817
1.880851169477976;2.326061561577613;-0.0540430304884266;0.05825479689422734;60.0;53.755351770000004;86.85688649
-4.121788889193938;1.949960809471088;-0.0010196798205363;0.06501530653210265;60.0;53.755193320000004;86.8570122
-0.5777170863480422;1.9330235684300896;0.0387478331803813;0.06437925393381493;60.0;53.755042949999996;86.85712039
0.9840885134026994;1.9469317171530256;-0.147853573977771;0.06438894340955063;60.0;53.75491099;86.85720859
-1.7350421546032258;1.9484730069415057;-0.1458142143366982;0.06468553886271419;60.0;53.75480001;86.85728705
2.5409275552758768;1.9689200425480693;-0.1468338941572346;0.06562143391486264;60.0;53.75471245999999;86.85735822
1.4692894524579907;2.294323298617621;-0.0846334251045171;0.07576349916909816;60.0;53.754663789999995;86.85740426999999
-0.6767201667786575;2.1946054227941683;-0.0642398286937901;0.07464268329664214;60.0;53.754621869999994;86.85744939
0.5143400604266594;2.1946054227941683;-0.0336494340776996;0.07464268329664214;60.0;53.754621869999994;86.85744939
-0.8644397457876275;2.1946054227941683;-0.0168247170388498;0.07464268329664214;60.0;53.754621869999994;86.85744939
4.028976763956261;2.1946054227941683;0.0535331905781584;0.07464268329664214;60.0;53.754621869999994;86.85744939
4.888012389560548;2.1946054227941683;-0.0173345569491179;0.07464268329664214;60.0;53.754621869999994;86.85744939
-1.845806328283779;3.0553729549740622;0.0010196798205363;0.03524678496822761;90.0;53.72783962;86.85351514
-1.4561119419850712;3.0553729549740622;0.0;0.03524678496822761;90.0;53.72783962;86.85351514
3.041354217161022;3.0553729549740622;0.0214132762312633;0.03524678496822761;90.0;53.72783962;86.85351514
1.628198443767004;3.0553729549740622;0.0509839910268175;0.03524678496822761;90.0;53.72783962;86.85351514
0.5079631407148307;3.0553729549740622;-0.0382379932701132;0.03524678496822761;90.0;53.72783962;86.85351514
-1.765747251735632;3.0553729549740622;-0.0489446313857448;0.03524678496822761;90.0;53.72783962;86.85351514
-6.6577268391191335;3.115208606292665;-0.0591414295911083;0.03550851867944219;90.0;53.72779309;86.85364525
-3.53814373605397;3.2997821511854433;-0.0132558376669725;0.03667053065262747;90.0;53.727731670000004;86.85378606999998
-0.7391302416575778;3.1252684352474693;0.029060874885286;0.03570724030063365;90.0;53.72766925;86.85391308999999
3.37299283528268;3.0731363667334164;-0.0173345569491179;0.02960761121884818;90.0;53.72760502;86.85401526000001
-2.900566892866701;3.044725728323463;0.0081574385642908;0.028116848012694158;90.0;53.72754001;86.85409105
2.722698344957892;3.089526654125826;0.0224329560517997;0.025917224284125257;90.0;53.72747041;86.85413409
1.1016970884968542;2.3548218691872114;0.0040787192821454;0.0282811322730672;90.0;53.727392959999996;86.85414112
0.8680396041675663;2.204083073899575;-0.0050983991026817;0.03010814637805342;90.0;53.727307239999995;86.85410916
-1.1050242981893867;2.5673656106769176;-0.0081574385642908;0.027900455655812798;90.0;53.727214460000006;86.85404198
-2.7008855709313853;2.193624231627499;-0.0326297542571632;0.028093366498105784;30.0;53.72711907;86.85393891
-0.6603194100895405;2.1494063086508937;-0.0693382277964719;0.030640205076254645;30.0;53.72702607;86.85378959
-2.3740147269676357;1.7230646155007938;-0.040787192821454;0.03299311634201662;30.0;53.72695605;86.85359668999999
-4.386108777859156;1.8096997827123762;-0.0418068726419904;0.030149893669318566;30.0;53.72690669;86.85339117
-2.372598406759006;1.7897962490724573;-0.0285510349750178;0.026650753929387393;30.0;53.72688405;86.85318421
-2.305419594263997;1.8376293705468838;-0.0713775874375446;0.02230901611967227;30.0;53.726889269999994;86.85297439
-0.2324635830541188;1.9008880469957725;-0.0999286224125624;0.023944751386622543;30.0;53.726920989999996;86.85275779
1.6035743044880677;2.2677575568415396;-0.0672988681553992;0.02374003054986777;30.0;53.726987050000005;86.85252689000001
0.7193095907516586;2.2407157238181745;-0.0397675130009177;0.02336355257384912;30.0;53.72708076;86.85229548
-0.059546744653583;1.8144340645684804;-0.0489446313857448;0.024054264016342232;30.0;53.727205360000006;86.8520668
1.0878465841978908;1.6566505544054329;-0.092790863668808;0.038120360321867636;30.0;53.72735989;86.85183477
2.9952139316646287;1.1990922949703497;-0.0560823901294993;0.03895138357429448;30.0;53.72754271;86.85161055
1.3949382303352895;1.0212533969284308;-0.0458855919241358;0.03620525535712491;30.0;53.72774637;86.85139949
2.507649759488958;1.0398643628906477;-0.0876924645661262;0.03638858717043928;30.0;53.727960519999996;86.85118612
3.082130695812086;1.0227153963358813;0.0336494340776996;0.039924946712268684;30.0;53.728184999999996;86.85097796
2.493250189777836;0.8189892037994976;-0.0856531049250535;0.04281522118769882;30.0;53.72841263;86.85077294999999
1.8780703554274856;0.7618077104417603;-0.0540430304884266;0.04135259517951373;30.0;53.72864742;86.85055974000001
2.43520554438102;0.763509271338856;-0.0346691138982359;0.04148940069087044;30.0;53.72888127;86.85035583
0.8684895704899649;0.7437037979960616;0.0010196798205363;0.04869390801225422;30.0;53.72915472999999;86.85014545
1.1679454484113854;0.8390140972199486;0.0020393596410727;0.046924479170947095;30.0;53.72943289999999;86.84996026
1.7700890797759132;1.187605649062422;-0.0805547058223717;0.04372671151131543;30.0;53.729713790000005;86.84980595
3.00761904499208;1.6018484763773138;-0.0591414295911083;0.04596030761438193;30.0;53.72999169999999;86.8496717
2.6329246055308944;1.931967433103803;-0.1213418986438258;0.046053343625825714;30.0;53.73026377;86.84955977
3.428079265982852;2.0871611798248746;-0.058121749770572;0.047362270837028986;30.0;53.730530380000005;86.84947054
4.991517993069885;2.0234627904881024;0.0152951973080452;0.04900230844740134;30.0;53.7307814;86.84939643999999
5.863841324153986;1.792726489198888;0.0183542367696543;0.05121019801994623;30.0;53.73102258;86.8493381
6.474528897288524;1.4780192665773038;-0.0142755174875089;0.05566617587322361;30.0;53.731255250000004;86.84930709
6.0179772594469645;1.3018263901335567;0.0020393596410727;0.05504434881452088;30.0;53.73148139;86.84929259
6.525185828214419;0.9362372169821036;0.0193739165901906;0.034599732904950276;30.0;53.73166922;86.84929353999999
6.090248340437546;0.5979347239386146;0.0265116753339451;0.02400257855865182;30.0;53.73184959;86.84927679
5.406010213993102;0.57061742076484;0.0734169470786173;0.024095532558771365;30.0;53.7320162;86.84924115999999
4.80031654865898;0.6208820507645119;0.043846232283063;0.027633135003086468;30.0;53.73217221;86.84918981
5.194040870024869;0.8302173213505686;0.0122361578464362;0.028436699011603433;30.0;53.73231822;86.8491259
5.767701856735701;0.8396304290923251;0.0081574385642908;0.031976894713149795;30.0;53.73245336;86.849046
6.362231886886872;0.8291248942408502;0.0122361578464362;0.03233741103084459;30.0;53.732581589999995;86.84894639000001
6.622729863100435;0.8352283341530791;-0.0224329560517997;0.03329844039871243;30.0;53.73270144000001;86.8488256
7.711506116881829;0.8106131040034544;-0.020393596410727;0.026085563175078832;30.0;53.73280957000001;86.84865981
6.451368353682335;0.7118707408360946;-0.0316100744366268;0.022892764510323106;30.0;53.7329012;86.84847751999999
6.279955031265987;0.7303977643255126;0.0285510349750178;0.023209758459611877;30.0;53.73297273000001;86.84828025
5.746580721706321;0.7022974064841823;0.040787192821454;0.02315768477875775;30.0;53.7330256;86.84807456
6.390629451700697;0.6918269261058081;0.0101967982053635;0.022881912047387563;30.0;53.73306775;86.84786070999999
7.110414796472017;0.8245377385257956;0.0071377587437544;0.021497006820924345;30.0;53.733102880000004;86.8476296
7.892347273041305;0.9057508804637718;-0.0112164780258998;0.020257468013381463;30.0;53.73313283;86.84738051000001
7.45290227567638;1.1735741982253516;-0.003059039461609;0.018141833323796507;30.0;53.73315924999999;86.84712021
6.546205628116117;1.2379188512293133;0.0050983991026817;0.01794977632467008;30.0;53.73318256;86.84685168
5.406937992445693;1.3217162244909775;-0.0020393596410727;0.012967719068847675;30.0;53.733204130000004;86.84654301
4.95200591365032;1.3260647379770458;-0.0061180789232181;0.011494223653051801;30.0;53.73322318;86.84625486
4.059708606402816;1.2555690277181875;-0.0193739165901906;0.01028759862080081;30.0;53.73324045;86.84593421
4.9228459061472645;1.0232759509553881;-0.0224329560517997;0.010343036643691865;30.0;53.73325817;86.84561145
4.579185542126023;0.7769540074917745;-0.0275313551544814;0.010117749861571948;30.0;53.733274789999996;86.84527479
5.26742830086623;0.6675447847446413;-0.0101967982053635;0.008322875191441849;30.0;53.73328898999999;86.84492803
6.164402072473413;0.7568772078947047;-0.0183542367696543;0.008177948000481376;30.0;53.73329949;86.84458269
6.1968722824560505;0.8349720014605556;-0.0081574385642908;0.007500020617286954;30.0;53.73330678999999;86.84423670999999
5.459273740043843;0.9315572511982934;-0.0061180789232181;0.00761618843699963;30.0;53.73331204;86.84385796
4.810910247156529;1.0328807581164239;-0.0101967982053635;0.0074900015748420885;30.0;53.733316460000005;86.8434707
6.312363908583425;1.0633429437883257;-0.0254919955134087;0.0074900015748420885;30.0;53.73331955;86.84311283000001
4.137656513299828;1.1710167801462485;-0.0163148771285816;0.007277209444178042;30.0;53.733323039999995;86.84274256
3.5039244505379736;1.0958371439911434;-0.0214132762312633;0.00732231409374749;30.0;53.733330679999995;86.84238924
3.728637692056106;0.9414627033294863;-0.0112164780258998;0.006853929108485704;30.0;53.73334602;86.84203338
4.129626290146698;0.8724665635712824;-0.0275313551544814;0.005804368090118657;30.0;53.73336742;86.84168102
3.352555456511608;0.876203903033767;-0.0142755174875089;0.007107143153753029;30.0;53.733397579999995;86.84132206
3.811378609593526;0.5082444932308392;-0.0193739165901906;0.009965453996518985;30.0;53.733438920000005;86.84095892
4.836567915459336;0.5131836625118614;-0.0137656775772407;0.01318428877361425;30.0;53.73350849;86.84057537
3.95666585517046;0.4741840773060189;-0.0163148771285816;0.01339897480677393;30.0;53.73358862;86.84022798000001
4.861980016721856;0.4756595868017472;-0.003059039461609;0.014524224614541616;30.0;53.733675590000004;86.83988743
4.33570643192594;0.5049725020726427;0.0081574385642908;0.013842150955637109;30.0;53.73376466;86.83954642
4.295951350771836;0.4406965103311686;0.0142755174875089;0.018288421805646538;30.0;53.733855590000005;86.83913559
4.308205073645058;0.42822084243059527;0.0050983991026817;0.03211069634148889;30.0;53.733943409999995;86.83871653000001
3.7142893475808263;0.40532296352578673;0.0107066381156316;0.03453874296539427;30.0;53.73402933;86.83828532999999
3.6264729859562936;0.7245856995579881;0.0168247170388498;0.03513516735202381;30.0;53.734123239999995;86.83784419999999
3.877246544352807;0.7068949052919027;0.040787192821454;0.03603509950225636;30.0;53.73422801;86.83741137000001
3.99227573222882;1.498157453601199;-0.0805547058223717;0.03841606039212663;30.0;53.734344369999995;86.83697989
4.691138909352297;1.7427156954012657;-0.0428265524625267;0.037634489893183576;30.0;53.73449257;86.83649065
2.2757540962544827;2.085656394824896;-0.0275313551544814;0.046406449044519946;30.0;53.734664050000006;86.83598885
3.0842589625006984;2.0329814569876716;0.0193739165901906;0.0461342049570083;30.0;53.73489298;86.83548306
-0.4533068562083703;2.0642547604600927;-0.0489446313857448;0.0441522539750047;30.0;53.735151810000005;86.83499693
0.2266394636841469;1.9456628473512252;-0.0214132762312633;0.03511872307588836;30.0;53.73544366;86.83461294
-1.1502089041102144;1.761978926982672;-0.1029876618741715;0.03444915162569042;30.0;53.73581325;86.83426828999998
2.215150973115945;1.3344318776385897;-0.0622004690527174;0.03491632131130881;30.0;53.736216479999996;86.83396496
0.1713317538123708;1.2677403071733344;-0.0683185479759355;0.035433934895469206;30.0;53.73664235;86.83370475000001
1.3482020922786662;1.0122652059335004;-0.0764759865402263;0.02789527929970467;30.0;53.737090890000005;86.83347488999999
1.5203810844572878;0.9528178251123264;-0.023452635872336;0.029029552045450747;30.0;53.73755555;86.83328675
1.4637396977129795;0.9562807501548909;-0.0275313551544814;0.02844157373504919;30.0;53.737999779999996;86.83322921999999
0.6936321280529076;0.8791689456194184;-0.0193739165901906;0.024533844001444174;30.0;53.738443530000005;86.83324545
0.6420415970059671;0.7268967042318658;-0.0571020699500356;0.02896500997735821;30.0;53.738854939999996;86.83333941999999
0.1731269506635376;0.8645976065733753;-0.0764759865402263;0.029415990650785245;30.0;53.73926037;86.83349396999999
0.1704088940337685;0.8162112485117813;-0.0876924645661262;0.02959029124695686;30.0;53.73965492999999;86.83370421
-0.7771155293966796;0.7780135027941626;-0.0693382277964719;0.030082042902268825;30.0;53.739992660000006;86.83397026
1.0019585443615249;1.0040787126056734;-0.0071377587437544;0.03327314713980045;30.0;53.74030519;86.83428791
-0.8766449379264653;1.186293137612048;-0.0244723156928724;0.03744572740833989;30.0;53.740597230000006;86.83464139
0.4113448130116615;1.3284619277706171;-0.0780055062710309;0.03812115584519499;30.0;53.74087889;86.83502545
-0.5863260820106544;1.3177662079753265;-0.0183542367696543;0.0355747066564933;30.0;53.74117201;86.83542353
2.5243069609332123;1.3646973506686895;0.0010196798205363;0.03150248689797608;30.0;53.74146352;86.83580975999999
2.334688449845129;1.441577036752158;0.0142755174875089;0.02828889264196748;30.0;53.74175462000001;86.83616742
2.3834251730322507;1.6853533798291007;-0.0091771183848271;0.04177373373056863;30.0;53.7420515;86.83648989999999
0.9022626738861268;1.8467417714605843;-0.0448659121035994;0.042268601907903325;30.0;53.742369700000005;86.83677482
-0.4799439468913714;1.897883851487551;0.0061180789232181;0.032940726397276285;30.0;53.74269647;86.83701711
-1.3430235708698084;2.0376337605226404;0.0091771183848271;0.03155708158862349;30.0;53.74303717;86.83721957
-2.2065841671845097;1.8024409912636343;0.0815743856429081;0.031503220339071734;30.0;53.743394020000004;86.83738186
-2.287667415542411;1.5057412952731726;0.0244723156928724;0.03187942525841838;30.0;53.743772279999995;86.83750667999999
-1.272715911388507;1.0639895185257517;0.0224329560517997;0.03125174945160929;30.0;53.74415576;86.83760088
-2.371413018123292;0.8778603971773384;0.0086672784745589;0.02712046959404815;30.0;53.74456778;86.83767498
-0.573373163507332;0.8793109733612577;0.0224329560517997;0.03269624893666399;30.0;53.74498022;86.83774694
-0.5931015547775645;0.8811979298049635;-0.0020393596410727;0.035631451357162926;30.0;53.745394420000004;86.83782322
-0.1184591495902256;0.9536827860498664;0.0265116753339451;0.02515095392559736;30.0;53.74581764;86.83791364
-2.257608854473199;0.9313504418387335;-0.023452635872336;0.024874754307470437;30.0;53.746227239999996;86.83802628
-0.4668552324353682;0.9327502008970825;-0.0402773529111858;0.0234156618057167;30.0;53.746632739999995;86.8381681
-1.1673653245905515;0.8447172678467993;-0.0316100744366268;0.02294978159364054;30.0;53.74702835000001;86.83833843
-2.7427198442037986;0.87640693034099;0.0132558376669725;0.02137716584305424;30.0;53.74741871;86.83853423000001
-0.5202026535881135;1.0782583287000365;-0.0224329560517997;0.02278812671554116;30.0;53.74779979;86.83876427
-1.377876047352529;1.051569552481028;0.003059039461609;0.021944118862879298;30.0;53.748173910000006;86.83902574999999
-0.8167781864049278;1.15549595301084;-0.0050983991026817;0.025129643180631;30.0;53.748500910000004;86.83931946999999
-0.2003276794781607;1.1369113430043867;0.0081574385642908;0.0233504452517056;30.0;53.748821799999995;86.83963523999999
0.9695314922312864;1.1989388817309596;-0.0336494340776996;0.022511098403194155;30.0;53.74913914;86.8399705
-1.3120024985286272;1.1376788987972988;-0.0509839910268175;0.021959315190120048;30.0;53.74944337000001;86.84031313
-2.917082235898183;1.1297861856426459;0.0214132762312633;0.027459716513969605;30.0;53.74974640000001;86.84065712
-1.156080811163402;1.1316787092700777;-0.0122361578464362;0.027588992753815933;30.0;53.750062750000005;86.84100419
-2.3239323759184147;1.1810986288245704;0.003059039461609;0.027834748176282585;30.0;53.750390370000005;86.84134461
-2.2378197469297705;1.2873826892525193;0.0071377587437544;0.02770932878225537;30.0;53.750726459999996;86.84167557999999
-0.6523110643536038;1.0334499558343018;0.0479249515652085;0.02606983623568891;30.0;53.751076929999996;86.84200301000001
-1.4672033125384818;1.0183227588054924;-0.0112164780258998;0.02554411584888578;30.0;53.75144265;86.84233289
-2.410768290993837;1.013640183848336;-0.0142755174875089;0.03329154414296555;30.0;53.75181943;86.84267383
-3.578101700352996;1.0630281991810653;0.0050983991026817;0.041497648966586885;30.0;53.75220158;86.84303806
-0.2853033494238635;1.1498973390946976;-0.0152951973080452;0.04081016455401696;30.0;53.75257933;86.84341581
-2.053619177985507;1.2651218292414694;-0.0484347914754767;0.03995101690866261;30.0;53.75295748;86.84381188
-0.7184470837082336;1.654911198835087;-0.0764759865402263;0.031229931476471337;30.0;53.75333267;86.84421778999999
-0.5747250139094309;1.9532565592446836;-0.0897318242071989;0.03262484136734056;30.0;53.753698580000005;86.8446221
-3.139480849188753;2.2545755527517555;-0.0285510349750178;0.03413724146021749;90.0;53.75406507;86.84504747000001
0.1142466170348353;1.944231608240898;-0.0061180789232181;0.04186765691478575;90.0;53.754459669999996;86.84552655
1.9276631218261893;2.0359211863433666;-0.020393596410727;0.04142938601189392;90.0;53.754838480000004;86.84601288
2.1016368727368557;1.9232497817275214;0.0040787192821454;0.041327444080270996;90.0;53.75519956999999;86.84650453
3.265366183447758;1.9250595693513664;0.0050983991026817;0.03990830495583142;90.0;53.7555431;86.8469863
0.6035921362893233;1.8385142892674418;-0.1152238197206077;0.03558034867086662;90.0;53.7558718;86.84744812
2.133329232960693;1.1533543705234102;-0.023452635872336;0.035577588660516274;90.0;53.7561937;86.84790826
2.298147820478237;0.9140835672305714;-0.0367084735393086;0.03977898637513843;90.0;53.756502069999996;86.84835231
2.678897527776833;0.9906307309027182;-0.0591414295911083;0.04161215498394846;90.0;53.75680371;86.84878962999998
1.9450483054612404;0.9826827897850128;-0.0183542367696543;0.0407418485130259;90.0;53.75709648000001;86.84922576
4.101289686075968;0.9743646817234579;-0.0295707147955541;0.0405850217589166;90.0;53.757374819999995;86.84965514000001
2.408111537029682;0.9129129344685389;0.0295707147955541;0.03536997408298599;90.0;53.757600769999996;86.85006797
3.686802633818999;0.9105792805640532;-0.0662791883348628;0.03464511312422867;90.0;53.75779901;86.85049661
2.3208664043618064;0.9560583166303345;-0.0632201488732537;0.03616694425822468;90.0;53.757961079999994;86.8509326
1.7716343977428433;1.0558773210076857;-0.0887121443866625;0.03604167114092758;90.0;53.758084280000006;86.85137067999999
0.9201342109472944;1.1403643522294469;-0.0815743856429081;0.03601986792705411;90.0;53.75816318;86.85183101999999
2.206995344038922;1.420342514382077;-0.0469052717446721;0.03519840608882461;90.0;53.75821433;86.85227384999999
3.3824833700136288;1.4171049114494878;-0.0815743856429081;0.019253986439300833;90.0;53.75823709;86.85271645
3.95229664269268;1.4730466719391042;-0.0499643112062812;0.020124437494624923;90.0;53.75822796999999;86.85315021
4.332343980373518;1.4987991356589028;-0.0876924645661262;0.03084781919269657;90.0;53.75817409;86.85359809
5.763465747276865;1.395739284488912;-0.0418068726419904;0.02995349849945813;90.0;53.75808799;86.85403167
3.824128805736799;1.0940105207650155;-0.0948302233098807;0.03782330301196449;90.0;53.757976;86.85443167999999
4.538704222346977;0.9825995474866295;-0.0897318242071989;0.03770062267731269;90.0;53.75784795;86.85479259
4.807406099449201;0.9655995000697907;0.0010196798205363;0.03745714089698123;90.0;53.7577096;86.85510991999999
2.787790977446943;1.7412000183141412;-0.0545528703986947;0.0400757448168562;90.0;53.757568330000005;86.85539105
2.651790199976385;1.7589006145143495;-0.1366370959518711;0.04040732805643396;90.0;53.75743067;86.85561435
3.046671876122777;1.553501974966034;-0.0489446313857448;0.04018255166710152;90.0;53.75728259;86.85581699000001
4.070485895268126;1.8373943057071345;-0.0723972672580809;0.03868054147434962;30.0;53.75712294;86.85599526
-0.6016915345870061;1.7473788118020828;-0.020393596410727;0.03734899724723347;30.0;53.75695032;86.85615032000001
2.23625439657065;1.6134655655199313;-0.0316100744366268;0.03190455606963873;30.0;53.75677531;86.85625435
3.82292484989212;1.6010644466643214;-0.0744366268991536;0.03798027878761417;30.0;53.75658279;86.85632807
-0.1601646995733957;1.735656359690848;-0.06984806770674;0.025714504248908542;30.0;53.75638322;86.85637426
1.5923960854932524;1.8487076148269999;-0.0662791883348628;0.031472034019056745;30.0;53.75617888000001;86.8564208
0.5782055030232996;1.669010373722073;-0.0428265524625267;0.029919538590345417;30.0;53.755981840000004;86.85646951999999
2.517506373484927;2.011821307278906;0.003059039461609;0.03417275714217607;60.0;53.75579134000001;86.8565299
-0.3482035147114145;2.0417477816009915;-0.0326297542571632;0.0342399667451039;60.0;53.75561543;86.85660231
-1.0015004888643306;1.6677242242137265;0.0122361578464362;0.04042905116013021;60.0;53.75545178;86.85668442
-0.8726413002637188;1.7120434122354893;-0.0163148771285816;0.03920267780019887;60.0;53.75530404;86.85677988
-2.93873168151088;1.6229628137316277;-0.0897318242071989;0.059962895867328815;60.0;53.75517850999999;86.85691290999999
-1.826034302197008;1.765749248928908;-0.0295707147955541;0.06756305437652607;60.0;53.755070120000006;86.85706308
1.4309523561636106;1.477054045780524;0.040787192821454;0.07006685696593495;60.0;53.754978949999995;86.85721255
1.1290885994368376;1.5467855295689728;0.0081574385642908;0.07246188596118386;60.0;53.75490055;86.85734919000001
-0.3885257099449534;1.5698930641461442;-0.168247170388498;0.07392504843388253;60.0;53.754840130000005;86.85745005
-2.6076665639303247;1.6256198236773782;-0.1294993372081166;0.07561554023098777;60.0;53.7547923;86.85753278
0.5202732772565472;1.3754492723392613;-0.1208320587335576;0.0748048070749941;60.0;53.75475576;86.85759864
0.7727063843754609;1.293291860782042;-0.1172631793616804;0.08397635810549059;60.0;53.754725840000006;86.85765832
-1.5014296505745333;1.6851825056912366;0.0244723156928724;0.08518991123885322;60.0;53.754703830000004;86.85771566999999
0.7607677700738082;2.022123123468115;0.0050983991026817;0.08606692343771741;60.0;53.75468264999999;86.85776105
0.0286821974516738;2.0045465731370946;-0.061180789232181;0.07485488630695412;60.0;53.754657249999994;86.85777149
-1.0797474514926484;2.0045465731370946;0.0662791883348628;0.07485488630695412;60.0;53.754657249999994;86.85777149
3.550447009781767;2.0045465731370946;0.0509839910268175;0.07485488630695412;60.0;53.754657249999994;86.85777149
3.7145863206236274;2.0045465731370946;0.0198837565004588;0.07485488630695412;60.0;53.754657249999994;86.85777149
0.587613273223334;2.0045465731370946;0.0071377587437544;0.07485488630695412;60.0;53.754657249999994;86.85777149
-5.5860016136644335;2.841155623556481;0.0020393596410727;0.056844139649656095;60.0;53.727814790000004;86.85362087
1.147518110462949;2.841155623556481;-0.0040787192821454;0.056844139649656095;60.0;53.727814790000004;86.85362087
-1.37996087096454;2.841155623556481;0.0091771183848271;0.056844139649656095;60.0;53.727814790000004;86.85362087
-1.3597701302573872;2.841155623556481;-0.0438462322830631;0.056844139649656095;60.0;53.727814790000004;86.85362087
-0.4991478498550664;2.841155623556481;-0.0581217497705719;0.056844139649656095;60.0;53.727814790000004;86.85362087
-1.2742516703402151;2.841155623556481;-0.0101967982053635;0.056844139649656095;60.0;53.727814790000004;86.85362087
-5.323938261162477;2.48276615609613;0.0101967982053635;0.05919649011173037;60.0;53.727783339999995;86.85374558000001
-4.810872820599709;2.398000335763905;0.1213418986438258;0.06194306628831904;60.0;53.72774515;86.85387635000001
1.0668774822455884;2.5819863423474154;-0.0336494340776996;0.061767969585300155;60.0;53.72769991;86.85400007000001
2.4642872946797696;2.7432901635447635;-0.092790863668808;0.061459715629674214;60.0;53.72765263;86.85410127
-0.1203497216258068;2.7449607905610307;-0.0652595085143265;0.06036680605847368;60.0;53.72759754;86.85417162
-2.515066611945385;2.742889179115655;-0.0774956663607627;0.06036680605847368;60.0;53.727528559999996;86.85421016000001
1.6522707497690374;2.301071510678222;0.0061180789232181;0.0602485156264044;60.0;53.72744473;86.85421849000001
1.9082178387453508;2.076170487454022;-0.0316100744366268;0.03097395762521098;60.0;53.72734708;86.85418484
-0.364578609630433;2.301719242133903;-0.0326297542571632;0.0365136192545993;60.0;53.72724093000001;86.85411196999999
-0.1717923421656193;2.0946210580947118;-0.0101967982053635;0.038162613728253574;60.0;53.727133120000005;86.85399648
-2.3383896142416543;2.0594791852920364;-0.0560823901294993;0.04070269847303367;60.0;53.7270343;86.85382598000001
-3.700056701934084;2.3182493035172604;-0.020393596410727;0.039814837494792144;60.0;53.72696293;86.85361893
-3.80256227784214;2.2869346967858415;-0.1040073416947078;0.03479899641294473;30.0;53.72692120000001;86.85339544000001
-2.8522764028394043;2.188778009002786;-0.1040073416947078;0.035961286601261855;30.0;53.726927599999996;86.85314072
-1.10565003732872;2.325787760558616;-0.095849903130417;0.034548274515851476;30.0;53.726968510000006;86.85287186999999
2.417354816806307;2.383146772044013;-0.0428265524625267;0.030400266055435207;30.0;53.727046359999996;86.85259644
1.3778199198520846;2.3129519185650955;-0.0499643112062812;0.030216158355926975;30.0;53.7271646;86.85230508
1.084787701186372;2.0487655152576374;-0.095849903130417;0.033121766763487374;30.0;53.72732463999999;86.85201199999999
1.559365110626696;1.7296837563296037;-0.061180789232181;0.03127946219721251;30.0;53.72752391;86.85171719
0.9481194919331364;1.2857167109078815;-0.0402773529111858;0.029408576808322064;30.0;53.72775318;86.85142934000001
0.0572464924181205;0.9523839487517132;-0.0622004690527174;0.027121747500191064;30.0;53.72800694;86.85114805999999
1.346551462095054;0.9386413954987463;-0.0050983991026817;0.02896461112290277;30.0;53.728269239999996;86.85088044
3.1400654689266583;0.9419821201227542;-0.037728153359845;0.03240521863524739;30.0;53.728549169999994;86.85060741
2.9511861311890573;0.9210232072024984;-0.0183542367696543;0.03253739208042692;30.0;53.72882007;86.85036375
2.0450149340753567;1.023108184678398;-0.0805547058223717;0.03328108860318151;30.0;53.72909849;86.85014553
2.235405175705959;1.3294249644541063;-0.0831039053737126;0.032548618932864856;30.0;53.729382099999995;86.84995042
1.2933612953150784;1.102191822672729;-0.0999286224125624;0.03754647780477244;30.0;53.729668939999996;86.84978926
1.567180271049187;1.1032175100387962;-0.0968695829509534;0.03496116668038205;30.0;53.729952819999994;86.84965586000001
3.150837724222872;1.7789271490874097;-0.0805547058223717;0.034647488942041185;30.0;53.73022971;86.84955131
4.8509283464223;2.016202086598038;-0.0672988681553992;0.03181594402966584;30.0;53.730497619999994;86.84946593999999
3.205654701223635;2.11985777405582;-0.0040787192821454;0.03508091315241318;30.0;53.730748600000005;86.84940972000001
4.092715490895226;2.08556084862913;-0.0244723156928724;0.0393520969497674;30.0;53.730987490000004;86.84936701000001
7.245898694468355;1.782984741728181;-0.0428265524625267;0.04036810400167633;30.0;53.73122522999999;86.84934107000001
6.319408666765845;1.4086443193971694;-0.0489446313857448;0.03678329968348882;30.0;53.73145615;86.84932623
6.470686326951496;1.234314198589053;-0.0101967982053635;0.032393273390748004;30.0;53.73167066;86.84931034
5.8541751128661605;1.3078925826115928;0.0112164780258998;0.026010164807054724;30.0;53.73187261;86.84928189
4.252026145496276;1.0975606520831311;0.0254919955134087;0.028712432727565764;30.0;53.73205401;86.84923033
5.469315672674772;1.086036913903067;0.0193739165901906;0.02883208678543343;30.0;53.73221936;86.84916528
5.5080357462866045;1.1632706010739033;0.0183542367696543;0.02812378081393208;30.0;53.73237461;86.84907732999999
6.8461199591345325;1.215847667552952;-0.0050983991026817;0.02490283686348409;30.0;53.732526889999995;86.84895825
7.045134592552834;1.2151310959676052;-0.0448659121035994;0.025504455221808452;30.0;53.73267277;86.84881485
8.068617634424653;1.2087198798734988;-0.0265116753339451;0.026533944242417264;30.0;53.732807720000004;86.84865027999999
7.884007241114212;0.9782102117920592;-0.0367084735393086;0.024204661299452514;30.0;53.732908880000004;86.84846472
5.257634258995008;1.001939301182132;0.0081574385642908;0.022274357920102933;30.0;53.73298734;86.8482667
6.0569916028961;0.9080362480259986;0.0152951973080452;0.019816754358973378;30.0;53.733050989999995;86.84804875
6.382119525428135;0.9188072299042055;-0.0300805547058223;0.020324438326249212;30.0;53.733097550000004;86.84782651
6.356102988662611;1.1910004629939424;-0.0050983991026817;0.018170864157064558;30.0;53.733135749999995;86.84759847000001
7.923221870692299;1.1960717727625656;-0.003059039461609;0.01910256139606822;30.0;53.73316807;86.84735431
6.627262310195207;1.0778822498540208;-0.0193739165901906;0.01754200018207896;30.0;53.73319328;86.84710304000001
7.288154999786926;1.165209604581998;-0.0336494340776996;0.0201801165741465;30.0;53.733208090000005;86.84685673
4.468886396896019;1.3093876521764114;-0.0050983991026817;0.017934081349443715;30.0;53.733219829999996;86.84659455
4.837117006371468;1.3981239012250002;-0.0356887937187723;0.017799506854617436;30.0;53.73323141000001;86.84632709000002
5.518026167880733;1.4215255777087292;-0.0061180789232181;0.01772536089041171;30.0;53.733242489999995;86.84605913
4.495647693923508;1.1154427950472707;-0.0520036708473539;0.01587850998473896;30.0;53.733252900000004;86.84578282000001
4.098394142314805;1.0683067165084574;-0.0428265524625267;0.015592546038529036;30.0;53.733263050000005;86.84549856999999
4.054988523058213;0.9612132340141681;-0.0254919955134087;0.015606987184252595;30.0;53.733273589999996;86.84520703000001
4.283662001183644;0.9696030699504085;-0.0438462322830631;0.012384434822149576;30.0;53.7332837;86.84491249999999
5.665406454707425;0.9616965345241091;-0.037728153359845;0.013269339369727559;30.0;53.73329228;86.84461644
6.280992620157761;0.9612997573084854;-0.0387478331803813;0.010399290078186952;30.0;53.73329622;86.84425686
6.790422801000015;0.9366913820229605;-0.0346691138982359;0.008761074671206848;30.0;53.733297400000005;86.84389708
5.874095147014225;0.9370860559103144;-0.037728153359845;0.008242674682556694;30.0;53.73329774;86.8435467
5.198595293742788;0.8718176037989309;-0.020393596410727;0.008230752655675971;30.0;53.73329802000001;86.84318601999999
4.881110043900386;0.8905226099365161;-0.020393596410727;0.009132951866044186;30.0;53.73330162;86.84281586
4.95064490617684;0.9386600970399498;-0.0387478331803813;0.011304198268106871;30.0;53.73330931;86.84243699
4.095398162993471;0.9555891705843645;-0.0356887937187723;0.011808050820201095;30.0;53.73332345;86.84205176999998
4.657873939130326;0.718414942858478;-0.0428265524625267;0.015977153239302575;30.0;53.73335538;86.84163058
4.142097008680481;0.569964651808927;-0.0499643112062812;0.016029941185288908;30.0;53.73339838;86.84120766
4.163969256763245;0.7287868953987713;-0.0142755174875089;0.016515543219562563;30.0;53.733454630000004;86.84079031
3.547089534293426;0.70889331844924;-0.020393596410727;0.021851265109197722;30.0;53.73352946999999;86.84044275
3.7326438998226736;0.6795335027266379;0.003059039461609;0.020902814555759926;30.0;53.73362323;86.84006546999998
3.794258186348766;0.6819155521559346;-0.014785357397777;0.02006529360490373;30.0;53.733717490000004;86.83968101
5.957193355186744;1.2398777706678017;-0.0122361578464362;0.01804966098280242;30.0;53.73381198;86.83929422
4.433106814402693;1.245462494245973;0.020393596410727;0.013328085980347995;30.0;53.73390486000001;86.83889814
4.076481340385215;1.2586824543892354;-0.020393596410727;0.015716251121109324;30.0;53.73399364000001;86.83850052
4.021622667925757;1.2836351971235165;-0.0132558376669725;0.01670403409189434;30.0;53.73407698;86.83811538
0.9022141705392271;1.310374330272293;-0.0040787192821454;0.016088122037808603;30.0;53.73415334;86.83773606
4.322505313913035;1.3134493494522035;0.0071377587437544;0.01653511782499779;30.0;53.73423044;86.83736004
3.216937953281726;1.091122545775573;-0.0336494340776996;0.019537877233028828;30.0;53.7343079;86.83697925999999
2.983803729391142;1.1365304543020356;-0.0295707147955541;0.023267240054267484;30.0;53.73438579;86.83659123
4.5782798484528655;1.117978505021059;-0.0107066381156316;0.023982595767222663;30.0;53.734465490000005;86.83622293
3.545855440926647;1.255060147366459;-0.023452635872336;0.023730782672440727;30.0;53.73458015;86.83585375
2.949058494336727;1.2258927656950942;-0.0448659121035994;0.02542483477053962;30.0;53.73472005;86.83548164999999
1.9575634189455136;1.4433028562545982;-0.07545630671969;0.02960175771426977;30.0;53.73489148;86.83513084
2.520781241995364;1.4377397258654783;-0.0443560721933312;0.03151124123659108;30.0;53.73509731;86.83480675000001
0.9233321864100046;1.6372837814357217;-0.0397675130009177;0.03104195229737797;30.0;53.73533217000001;86.83449633000001
1.0824492215771653;1.3349109830917354;-0.0734169470786173;0.029066787631667326;30.0;53.73559135000001;86.83422559
-0.2986928086185367;1.1169576711923428;-0.1101254206179259;0.0297305114582814;30.0;53.73587458000001;86.83397122
1.368068743499812;0.9202140247136821;-0.0122361578464362;0.029698630635064463;30.0;53.73618207;86.83374110999999
-0.5707714569768202;0.9882811174937295;-0.040787192821454;0.028674636274906906;30.0;53.73651276;86.83353932
0.7875885374426765;0.8488514144862939;-0.0295707147955541;0.0288601715294973;30.0;53.73687462;86.83337637999999
0.7424690754406433;1.152786283754994;-0.0173345569491179;0.02878923113646486;30.0;53.737241389999994;86.83325675
0.8767503047006758;1.2388304625161826;-0.0489446313857448;0.02748852045708656;30.0;53.737622550000005;86.83318735
2.432013521889684;1.2184386362617212;-0.0622004690527174;0.01712131185408766;30.0;53.738007489999994;86.83316525000001
1.403339328811573;1.2899405878628312;-0.0372183134495768;0.013904086223468778;30.0;53.73838796;86.8331822
-1.5978575598186693;1.4036730650956166;-0.0428265524625267;0.013933551539899782;30.0;53.738766899999995;86.83324882000001
-0.9513866667068366;1.4061717779291578;-0.0545528703986948;0.01325638235654056;30.0;53.73913689;86.83337049000001
0.8664618531927358;1.4076984077748842;-0.061180789232181;0.013610168738599058;30.0;53.73949601;86.83354529
2.0707417490679663;1.4468252918283129;-0.0448659121035994;0.014345751180979064;30.0;53.73983919;86.83377071
2.921386607008338;1.36157185833718;-0.0397675130009177;0.013420835578206699;30.0;53.740160919999994;86.83404636
0.649927675315597;1.358916240356243;-0.0372183134495768;0.015877509543066735;30.0;53.740450120000006;86.83437907999999
1.2664813640507115;1.1396701572238208;-0.0158050372183134;0.016124434439907773;30.0;53.74072026;86.83475161999999
-0.0580090150463797;0.9823873483844971;-0.0591414295911083;0.01753170690909046;30.0;53.74098237;86.83514173
1.438770397254406;0.9804546556685647;-0.0530233506678902;0.0191230371614657;30.0;53.74124236;86.8355246
1.346995024531004;0.9337751091874559;-0.0173345569491179;0.019832415720224383;30.0;53.741501670000005;86.83589399
-0.200826520858593;0.6018589324220479;-0.0336494340776996;0.023915785366962445;30.0;53.74176327;86.83623494999999
0.1171497085821034;0.6070120105149471;-0.0662791883348628;0.026733475668131133;30.0;53.742030299999996;86.83654294
1.0532832276368056;0.6876286947356239;-0.0091771183848271;0.027917634275350385;30.0;53.74230353;86.83681361000001
0.3432002544795108;1.0877681304272302;-0.0183542367696543;0.025103597713425886;30.0;53.742586519999996;86.8370454
0.5706381109210609;1.1785748643637521;0.0081574385642908;0.024443974842955962;30.0;53.74288229;86.83723620999999
0.4034681976178949;1.1168836378472329;0.0091771183848271;0.025263240643256454;30.0;53.74319169;86.83737665000001
-0.6865174716787253;1.1191164126487554;0.0010196798205363;0.024318170144939987;30.0;53.7435144;86.83748176
-2.233215016716953;1.376192794683293;-0.0132558376669725;0.015577720700222243;30.0;53.743847069999994;86.83756611
-1.8970095210204665;1.3248306873531177;0.0173345569491179;0.018183813640757905;30.0;53.744180310000004;86.83763823000001
-1.392204722840663;1.2282926758572212;-0.0326297542571632;0.01883542427041406;30.0;53.74451699;86.83769843
-0.7219168488142745;1.0418256696476043;-0.0071377587437544;0.019470871539358794;30.0;53.7448569;86.8377593
-3.115151698540846;0.9156894044364094;-0.0214132762312633;0.019401029450104215;30.0;53.74519442;86.83781266
-2.6147856638963134;0.8823479048172999;0.023452635872336;0.023558858266925435;30.0;53.74553354;86.83786506000001
-1.7786426601380771;0.8550139076002506;-0.0244723156928724;0.025839099331930942;30.0;53.745881370000006;86.83792617
-1.007563965919886;0.8791220355087256;0.0152951973080452;0.025510173322433858;30.0;53.746239790000004;86.83800555
-0.2935110332430481;0.8773513224340135;0.0081574385642908;0.03510626140936666;30.0;53.74660289;86.83811009
-1.0619312685407816;0.854727173865692;-0.0463954318344039;0.03526058946269039;30.0;53.74695563;86.83824011
-1.5890369352582958;0.878826412812726;0.0265116753339451;0.03604507670175219;30.0;53.747290039999996;86.83840044
-2.2627312054374897;1.1858936348316176;-0.0265116753339451;0.034307381424424854;30.0;53.74761400999999;86.83859641000001
-1.7241626554855964;1.1592549282116493;-0.0866727847455898;0.03654449430878284;30.0;53.74793105;86.83882129
-0.9436615966762834;1.158586516228604;-0.0275313551544814;0.03348634499123299;30.0;53.74824198;86.83907078
0.2876951584808457;1.1579076121614733;-0.0397675130009177;0.03202405267603381;30.0;53.74855278;86.83934830000001
1.7590873703953709;1.1682056772770104;-0.0520036708473539;0.03172207733651989;30.0;53.74885941;86.83964725
-1.402856912370399;1.488445803149878;-0.0652595085143265;0.024637925378632755;30.0;53.74915357;86.83995933
-0.6416940795290554;1.5559337799382251;-0.0163148771285816;0.02764337596137559;30.0;53.74943659;86.84027307
-0.3080360082506111;1.5416749154334792;-0.0040787192821454;0.02433888608974084;30.0;53.74971276;86.84058764
-1.3343024196863151;1.6244355701068287;-0.0305903946160905;0.025757149494408958;30.0;53.749996550000006;86.84089958999999
-3.770712024953112;1.5439778396132853;-0.0224329560517997;0.026314907330909555;30.0;53.750319579999996;86.84123286
-2.8770460311885664;1.0953367199439934;0.003059039461609;0.024083603141761212;30.0;53.75065116999999;86.84155677
-0.8109436727171725;1.4452033048257038;0.0127459977567043;0.019245959521670696;30.0;53.75098899999999;86.84187412
-2.6311100149998343;1.4007221872792437;0.003059039461609;0.020455885861333033;30.0;53.751330470000006;86.84218743
-1.6265783728928953;1.2455438012466422;-0.0458855919241358;0.02153868300811759;30.0;53.75167324;86.84250204
-2.162869205829689;1.1959887694650482;-0.020393596410727;0.025299169882663446;30.0;53.75204482;86.84286338
-4.803079482288007;1.2205715697960038;-0.037728153359845;0.02594346877761859;30.0;53.752416440000005;86.84323756
-1.0974757528795316;1.6623482656404738;-0.037728153359845;0.024146316344521853;30.0;53.75279169;86.84363585000001
-2.1294088480484743;2.094263319044915;-0.0458855919241358;0.02066905011676841;30.0;53.75316884;86.84403603999999
-2.41951288550954;2.396259876888296;-0.0642398286937901;0.01795494461289082;30.0;53.75354583000001;86.84444887000001
-0.6097990106642172;2.4826382908793305;-0.0073926786988885;0.022388510244624973;30.0;53.75392681999999;86.84488874
1.6350677748861102;2.534742091974771;-0.0295707147955541;0.022927448424008103;30.0;53.754312389999996;86.84534855
2.377958625418667;1.9374079653801641;-0.0112164780258998;0.0228464321174159;30.0;53.75469296;86.84582384000001
2.7454594958790617;2.1247387564158884;-0.0499643112062812;0.02275015204070731;30.0;53.755066920000004;86.846313
1.526697486747021;1.884975780400434;0.0101967982053635;0.022340469570678943;30.0;53.755434;86.84681320000001
2.1522396321321664;1.4096388315793686;-0.0489446313857448;0.019638232860321344;30.0;53.75576706;86.84727426
1.4817166866657607;1.0109430540903348;-0.0316100744366268;0.021303473543035405;30.0;53.75611103999999;86.84775904
4.071864979577771;0.9632590868151517;-0.0295707147955541;0.021711971541620127;30.0;53.756442019999994;86.84822314
3.208863121607098;0.976458023910834;-0.0193739165901906;0.02613180303006752;30.0;53.75676529;86.84869233
4.176341944788616;1.0423333123256104;-0.0458855919241358;0.03930156982231198;30.0;53.757085589999996;86.84917134999999
1.800431554329389;0.9670867384830164;0.0050983991026817;0.03966206438233133;30.0;53.75736446;86.84967037999999
2.4731777153145584;0.9271007597191397;-0.0387478331803813;0.041620066660220605;30.0;53.75760190999999;86.85018686999999
3.1899596418578837;0.8009209291585747;-0.0764759865402263;0.04265711363142365;30.0;53.75780213;86.85070453
3.8310134884941;0.7959312001327774;-0.1254206179259712;0.04112150275827935;30.0;53.75796613999999;86.85120902
3.611520100280339;0.967453029212708;-0.1040073416947078;0.03839835101246387;30.0;53.758093900000006;86.85169518000001
2.7343341868369637;1.168522573399955;-0.0917711838482716;0.03779244099684252;30.0;53.75818757;86.85217285
2.2913686617084834;1.160462316982934;-0.0983991026817579;0.026125889338111673;30.0;53.75823472;86.852604
4.032693786489574;1.1647594080178922;-0.0591414295911083;0.02123455853733064;30.0;53.75825385;86.85302505
4.867831567928009;1.183549607672462;-0.0917711838482716;0.020946982965347284;30.0;53.758239579999994;86.8534383
5.492923704691812;1.1720536581495118;-0.0550627103089629;0.01664991407587814;30.0;53.7581886;86.85382508000001
5.374787705562576;1.3171397225540054;-0.095849903130417;0.03312939580000496;30.0;53.75809795;86.85414659
5.433119290469215;1.254234073782075;-0.07545630671969;0.036226189602140274;30.0;53.7580017;86.85442922
5.382328149286248;1.4002857331633807;-0.0836137452839808;0.03583239297457055;30.0;53.757905230000006;86.85469883
4.275490136302479;1.4521846645441492;-0.0943203833996125;0.03663538667042762;30.0;53.75780691;86.85496147
2.3618485087207373;1.5594406735923285;0.0101967982053635;0.03554835187493334;30.0;53.75770595;86.85520867
5.450723117727984;1.487421829195696;-0.0209034363209952;0.03717739512198264;30.0;53.75760229;86.85543269
1.5981921895289726;1.5991095713161738;-0.0316100744366268;0.037798668902583654;30.0;53.75749321000001;86.85564617
3.1776139045170853;1.455102124246887;-0.0356887937187723;0.03918646634866485;30.0;53.75737812;86.8558434
2.392983486799184;1.2613747411049399;-0.0795350260018354;0.03856837734395199;30.0;53.757258060000005;86.85601006
3.467698619905843;1.2499338007135365;-0.0907515040277353;0.03282571090803428;30.0;53.75712972;86.85615820000001
1.2440103123551092;1.671990091300479;-0.0101967982053635;0.03032149963860236;30.0;53.75697280000001;86.85627264
3.825920755717238;1.320684985227237;-0.0061180789232181;0.03042495740222439;30.0;53.756805699999994;86.85636154
3.077448296801386;1.402943904438766;-0.0020393596410727;0.030889221315813405;30.0;53.756623579999996;86.85641749999999
1.74853047557951;1.3513317005323375;-0.020393596410727;0.031139167869317474;30.0;53.75643219;86.85645395
-0.6637557250824201;1.5900892555439736;-0.0499643112062812;0.02717281446521892;30.0;53.75623784;86.85648744
2.142415194532341;1.6088818986631759;-0.0535331905781584;0.017071391323429105;30.0;53.75604373;86.85653141
0.6282184074682816;1.609177450645011;-0.020393596410727;0.020374397565949658;30.0;53.755852260000005;86.85657802
2.019342994276264;1.842802763220424;-0.0244723156928724;0.018984264058234758;30.0;53.75566815;86.85663199000001
-0.7446341173872582;1.6350541049241343;-0.023452635872336;0.03697599083985278;90.0;53.75549391;86.85669838999999
-0.6626920935371788;1.7074440387516379;-0.0316100744366268;0.037976932688444674;90.0;53.75533584;86.85677328
1.1639839811873949;1.666775251307484;-0.0642398286937901;0.051934785728530504;90.0;53.755218920000004;86.85686628
-3.0615434590486585;1.7030222673176785;-0.0438462322830631;0.059182924988282114;90.0;53.75511725;86.85697965
1.040224301710599;1.7095890188661926;0.0693382277964719;0.06641491951222685;90.0;53.75503232999999;86.85711232999999
2.396917999194038;1.5774452251768452;-0.0550627103089629;0.06887692096243907;90.0;53.754956119999996;86.8572486
0.241187714157173;1.5651711490383862;-0.1417354950545528;0.07415915103157074;90.0;53.75488579;86.85737283
-1.782300824416841;1.5562937741594154;-0.1284796573875803;0.07201760190854754;90.0;53.75482139;86.85746458999999
0.8014058356004702;1.5302447535462558;-0.1488732537983073;0.07140388385878695;90.0;53.754767349999995;86.85753343000002
-0.1736974038376717;1.1700090292201726;-0.1325583766697257;0.06937728785970589;90.0;53.754720539999994;86.85759157999999
-0.4074516816449559;1.263384758588359;-0.1764046089527888;0.0469343260840473;90.0;53.75468198;86.85764006
0.4657302090766699;1.4797488908792327;-0.1121647802589986;0.052834001416368646;90.0;53.75464545999999;86.85768034
-0.8765186390990082;1.4797488908792327;-0.0836137452839808;0.052834001416368646;90.0;53.75464545999999;86.85768034
1.1071069385443146;1.4797488908792327;-0.0805547058223717;0.052834001416368646;90.0;53.75464545999999;86.85768034
1.924166657313788;1.4797488908792327;-0.023452635872336;0.052834001416368646;90.0;53.75464545999999;86.85768034
3.4623815363044783;1.4797488908792327;-0.0173345569491179;0.052834001416368646;90.0;53.75464545999999;86.85768034
-1.991059300487404;2.056833237229675;0.0040787192821454;0.04237993461477947;60.0;53.72779190999999;86.85371831
1.6955132893683005;2.056833237229675;-0.037728153359845;0.04237993461477947;60.0;53.72779190999999;86.85371831
1.159422312815655;2.056833237229675;0.0499643112062812;0.04237993461477947;60.0;53.72779190999999;86.85371831
1.6527016138192372;2.056833237229675;-0.0295707147955541;0.04237993461477947;60.0;53.72779190999999;86.85371831
-1.6096374483004676;2.056833237229675;-0.0540430304884266;0.04237993461477947;60.0;53.72779190999999;86.85371831
-4.305639120062445;2.056833237229675;-0.0025491995513408;0.04237993461477947;60.0;53.72779190999999;86.85371831
-0.6246184161020834;2.1506410074161906;0.0453757520138676;0.042152967141000905;60.0;53.727715;86.85383852
0.7493177981217863;2.074556726267934;-0.0448659121035994;0.04312189538973915;60.0;53.72762277;86.85391268999999
-2.2877930208829804;2.0740864701696604;-0.0805547058223717;0.041412232949247625;60.0;53.727523500000004;86.85395934
1.2917285857060978;2.1431626949198077;-0.0367084735393086;0.05144655509630928;60.0;53.72742061;86.85396908999999
2.386287428305426;2.241808709218275;-0.0423167125522585;0.05153136817069213;60.0;53.72731523;86.85393027
-0.714624490536518;2.1489575510401537;0.0112164780258998;0.05030696029571422;30.0;53.727207009999994;86.85385020999999
-1.9224869700390024;2.224449691730088;-0.0917711838482716;0.04170453761790808;30.0;53.727106000000006;86.85370567999999
-3.755255168937924;2.2583773225066124;-0.1294993372081166;0.04132468351384076;30.0;53.72702482000001;86.85351954
-3.182024335965714;2.4371348472994976;-0.0254919955134087;0.041923083122747944;30.0;53.72697975;86.85327991
-3.643622288666379;2.3615337508320486;-0.0652595085143265;0.041327479022967996;30.0;53.726968049999996;86.85302245
0.6845758537325144;2.2154135248083207;-0.1050270215152442;0.04142307646310655;30.0;53.7269903;86.85275286
1.100857447359655;2.6009755865570874;-0.0601611094116447;0.03259149383252449;30.0;53.72705895;86.85250151
2.367554419568813;2.5441956907316214;-0.0305903946160905;0.03268299617152572;30.0;53.727166999999994;86.85225116
-0.0289624774988457;2.2254639162408023;-0.0662791883348628;0.025074818547504756;30.0;53.727312000000005;86.85199936000001
1.191813153760854;1.8717968140490906;-0.0846334251045171;0.025661379406786824;30.0;53.72749211;86.85175451
3.5115136678945107;1.328324928874609;-0.0489446313857448;0.027718291245021905;30.0;53.72771986;86.85149329999999
0.0568456762398186;1.3559939766014246;-0.0438462322830631;0.026355211334690386;30.0;53.72796390999999;86.85124839
1.0470801521737003;1.3923517817696447;-0.0346691138982359;0.025485196741314668;30.0;53.728220209999996;86.85101061
-0.0555614741526042;1.3999083387356506;-0.0214132762312633;0.025427106609809517;30.0;53.72848272;86.85077136
3.35220747229249;1.2799953843992309;-0.020393596410727;0.03026844544056894;30.0;53.72875438;86.85052590000001
2.5097654182754763;1.284098269031674;0.0071377587437544;0.03569769457551374;30.0;53.72902965000001;86.85028917000001
2.646239929695457;1.3245496316735481;-0.0438462322830631;0.03592351930476318;30.0;53.72931006;86.85007038
2.491889798994986;1.2041457078752655;-0.0469052717446721;0.04076580226059646;30.0;53.72959436;86.84987852
1.2616606025330714;1.419452616551706;-0.0968695829509534;0.04265369429000034;30.0;53.72987865;86.84971737
2.619990907132806;1.3958186465920026;-0.1142041399000713;0.04315654219751373;30.0;53.73015625000001;86.84958025
3.791907727986076;1.7632643789069835;-0.0591414295911083;0.04409203180795702;30.0;53.73040725;86.84949077
3.4034115382214174;2.0360679648905573;0.0132558376669725;0.043768963633948735;30.0;53.73064818;86.8494245
5.205113310357006;2.2019579455167513;-0.0020393596410727;0.04424935275990556;30.0;53.73087141;86.84937381
6.008548607453438;2.1413500447862974;-0.0122361578464362;0.04653733503411656;30.0;53.73108104000001;86.84934536
6.733639203480521;1.6869557108519055;-0.0050983991026817;0.04265301716017423;30.0;53.73127399;86.84933606999999
7.26261594228996;1.3547730566507223;0.0040787192821454;0.02436728990166919;30.0;53.73146035;86.84933555
7.438355331053441;1.2615262268378835;-0.0132558376669725;0.013768404845690838;30.0;53.731635360000006;86.84933392
6.581089316561144;0.9239133680111555;0.0163148771285816;0.013426429655193188;30.0;53.731819640000005;86.84930828
5.8257372555443006;0.8712085238086312;0.0316100744366268;0.014630816406446522;30.0;53.73199178;86.84926794
5.595785805313902;0.9623647552492346;0.0081574385642908;0.016693224125415674;30.0;53.7321535;86.84921206
4.436722807249897;0.958093934933822;0.0010196798205363;0.017773525952059752;30.0;53.73231052;86.84912076
6.042607938298575;0.9957500136117994;0.0061180789232181;0.018089220923844736;30.0;53.73246121000001;86.84900777
5.946440185276589;0.9352323354022483;0.023452635872336;0.0169909244382358;30.0;53.732604630000004;86.84887470999999
7.514974455628287;0.9261385001988028;-0.0244723156928724;0.018135464192395378;30.0;53.73273812;86.84871636
6.6276205280537805;0.9225142706923626;-0.0163148771285816;0.020204646810119326;30.0;53.732858750000005;86.84853747
7.570850944047216;0.9137852071892781;0.0142755174875089;0.020093701522992374;30.0;53.73295942000001;86.84834118
5.716145048687562;0.6939197289646131;0.0101967982053635;0.021758745164231954;30.0;53.73304361;86.84813097
5.98812876079067;0.6879901291149513;0.0285510349750178;0.02215024771427964;30.0;53.73309239;86.84791607
5.948546890897463;0.6657019627988385;-0.0326297542571632;0.019912060794502934;30.0;53.73313024;86.84769279999999
6.650462947123738;0.6673263961877848;-0.0010196798205363;0.01917311413775251;30.0;53.73316076;86.84745964
7.151298998280547;0.929695095801818;-0.0254919955134087;0.01897444876267126;30.0;53.733180360000006;86.84723347999999
7.009163641653757;0.8464070483546832;-0.0183542367696543;0.018062377561043313;30.0;53.73319583999999;86.84699552
6.190612489126979;0.9579588680874154;-0.0061180789232181;0.01809632454891962;30.0;53.73320829000001;86.84675197
5.552398726329524;1.0420633702324709;-0.0142755174875089;0.012966048552259019;30.0;53.73322053;86.84649541
4.362235495067015;1.0558391756822;-0.0122361578464362;0.011582458653937689;30.0;53.733237259999996;86.84622542
5.172342152605951;0.9962064468390155;-0.020393596410727;0.011150493993226464;30.0;53.73325446;86.84595078
4.555396590890056;0.8452126991428425;-0.0331395941674314;0.01134462222490892;30.0;53.73327128;86.84567064000001
4.538617759373502;0.5933931309253992;0.0061180789232181;0.01134462222490892;30.0;53.73328645;86.84538629
5.089087176685655;0.5969392748473004;-0.0173345569491179;0.011761977140816567;30.0;53.733299290000005;86.84509705
5.250627645358045;0.6323470695402472;-0.0265116753339451;0.01165392875310709;30.0;53.73331039999999;86.84480352
4.503239307606252;0.584826544203614;-0.0275313551544814;0.011425673032168552;30.0;53.733319110000004;86.84450503000001
5.58848131207427;0.5849086885151628;-0.0152951973080452;0.01223190844264544;30.0;53.733325089999994;86.84420893000001
6.207603257211359;0.5557738252580148;-0.0331395941674314;0.01126837195086403;30.0;53.73332892;86.84388252
5.871424769840708;0.6146424000868734;-0.0173345569491179;0.009290347058408963;30.0;53.73332858;86.84355450000001
5.542581333720791;0.7715686982069171;-0.0244723156928724;0.009680098370261032;30.0;53.73332361;86.84322185
5.311678173561832;0.8591163026999978;-0.0071377587437544;0.00964901869536797;30.0;53.733318280000006;86.84288115999999
4.816377377755577;0.8505645555739764;-0.0188640766799225;0.010123457398473996;30.0;53.73331525;86.84253509
4.190284047081764;0.8358621269757864;-0.0387478331803813;0.012478759266964826;30.0;53.733318940000004;86.84218294
3.769543273703942;0.6943745074511444;-0.0336494340776996;0.013924116977209246;30.0;53.73332978999999;86.84182259
3.88331161735668;0.5783237586918131;-0.0244723156928724;0.014734383207591083;30.0;53.733348920000005;86.84146028
4.672318655681326;0.47869213744231676;-0.0132558376669725;0.017268535246165125;30.0;53.73338202;86.8410889
4.469866855314689;0.38843975826997035;0.0010196798205363;0.021502716062472133;30.0;53.73343271;86.84071463000001
4.904794947419478;0.360767970736798;0.0040787192821454;0.022644137829954745;30.0;53.73350289;86.84036753000001
4.310544010493225;0.3761453253712049;-0.0020393596410727;0.0209747475379834;30.0;53.73358456;86.84003960000001
4.209124783750065;0.35720432952213266;0.0152951973080452;0.01966217222090063;30.0;53.733672520000006;86.83973076
4.71344495864438;0.3872035709843846;0.0285510349750178;0.018196277743360693;30.0;53.73376331000001;86.83942219000001
4.460918985008475;0.7590251307321016;0.0183542367696543;0.017654911901051454;30.0;53.7338528;86.83910976000001
3.992107303232374;0.7596149295129255;-0.0275313551544814;0.017654911901051454;30.0;53.73393869;86.83874253
4.912587431545225;0.8250109768842496;-0.0244723156928724;0.017678453319875456;30.0;53.734021170000005;86.83836165
3.7263470770590192;0.878761253382183;-0.0066279188334862;0.017648367045115836;30.0;53.73410497;86.83797185
2.3301757347464216;0.9945213607350146;0.0020393596410727;0.01903713369294794;30.0;53.73419163;86.83758491
4.484603631219729;1.346655598484583;0.0010196798205363;0.02919369622395713;30.0;53.73430361;86.83716185
2.845326279957851;1.7055235290631534;0.0050983991026817;0.027510418580136843;30.0;53.73442145;86.83673185
2.9460173955791027;1.7340126673070506;0.0020393596410727;0.028433905824739064;30.0;53.7345475;86.8362947
2.3012620981199503;1.5598830018249445;-0.0275313551544814;0.03598252331865327;30.0;53.73469551000001;86.83584111
0.459523933287799;1.4501442105190214;-0.0846334251045171;0.03969103610479363;30.0;53.734866800000006;86.83539032
-0.4634539989832364;1.447481999054779;0.0010196798205363;0.0379775030671011;30.0;53.73507585;86.83496192999999
0.9205163628401376;1.1064261126246115;-0.040787192821454;0.035905988221635994;30.0;53.73531193;86.83461177000001
0.8404325466753907;1.0744917918988548;-0.0866727847455898;0.03226373229739212;30.0;53.735575749999995;86.83429702999999
2.311499847466141;0.8844547267007558;-0.0815743856429081;0.028605406590541237;30.0;53.73586529000001;86.83401057
1.4572450093527798;0.8055970716280184;-0.0387478331803813;0.02715511149019705;30.0;53.73617113;86.83375065
1.167797455912423;0.799182011082863;-0.0479249515652085;0.026313151196397114;30.0;53.73646960999999;86.83355761
0.0580670405059306;0.6750534283076071;-0.0499643112062812;0.020402162754514255;30.0;53.736778470000004;86.83340311
0.8023541012731261;0.6761172992194737;-0.0744366268991536;0.022144314143452623;30.0;53.73710518;86.83327926000001
-0.0576113554544345;0.6755952269639717;-0.0560823901294993;0.0187084155520636;30.0;53.737439640000005;86.83320155999999
0.7508774485955075;0.47469963896008655;-0.029060874885286;0.017774257183971257;30.0;53.737784669999996;86.83316259
1.1909270216728507;0.42643843973258533;-0.0336494340776996;0.019362658081150945;30.0;53.73812527;86.83314735
0.8240922003154885;0.39970090385982376;-0.0244723156928724;0.02079753864600561;30.0;53.73846894999999;86.83317103
0.8827121718977317;0.3573043724425879;-0.0560823901294993;0.02271500669176776;30.0;53.73881332;86.83323892000001
0.910466505883564;0.3570321017962218;-0.0764759865402263;0.02255979992438962;30.0;53.73914655;86.83335455
0.4084697798915203;0.2539861292769305;-0.0764759865402263;0.022533155289034656;30.0;53.739470819999994;86.8335201
0.4035212879748759;0.25323537222209247;-0.0774956663607627;0.021221497227479163;30.0;53.73978167;86.83372855
0.9350292409869936;0.5786590245263642;-0.0265116753339451;0.02182004956711544;30.0;53.74007807;86.83397887
0.7929469015279121;0.6972553449195245;-0.0729071071683491;0.031872176660177616;30.0;53.740355019999996;86.83427118
1.0833209439527565;0.7535675091965067;-0.0520036708473539;0.03270229924640355;30.0;53.740609600000006;86.83460256000001
0.8680704895010447;0.8051075606326878;-0.0448659121035994;0.030859660723778486;30.0;53.74084944;86.83496272
2.483378276998337;0.7723151872370183;-0.0285510349750178;0.02843146791013924;30.0;53.74108087;86.83533751
2.2134560412772517;0.8006226730854691;0.023452635872336;0.024957576395903895;30.0;53.74130666999999;86.83569387
2.0571045497859344;0.8410036241013611;-0.023452635872336;0.02489871929734456;30.0;53.741530319999995;86.8360276
0.2912132435406425;0.9233284304736956;-0.0387478331803813;0.021003094221736563;30.0;53.741763070000005;86.83633459
1.6466626329927152;0.9216202544210748;-0.0448659121035994;0.019514728913705648;30.0;53.742004859999994;86.83660454
2.5527973772609345;1.1618917466328709;-0.0305903946160905;0.025107048996518687;30.0;53.74226814;86.83683966
0.5313737477141867;1.4970958322969483;-0.0285510349750178;0.03124135083428544;30.0;53.7425529;86.83703994
0.1150260469902255;1.5559087719988556;-0.0214132762312633;0.028575302752433553;30.0;53.742855840000004;86.8372072
1.1343417207222557;1.6368814353508194;-0.0336494340776996;0.028761679633685755;30.0;53.743177089999996;86.83733901
-0.8639173224083524;1.753742812239728;0.0285510349750178;0.027902111886950052;30.0;53.74353910999999;86.83744759
-2.2255097155385206;1.6492788214159773;0.040787192821454;0.02597015940300202;30.0;53.74390741999999;86.83753429999999
-1.52899553993973;1.2193723903186322;-0.0112164780258998;0.025791606860120827;30.0;53.744281779999994;86.83761426
-2.2851517355204227;1.1040894472686964;-0.0285510349750178;0.024893788921004557;30.0;53.74466056999999;86.83768585
-2.131738832028005;1.0224127467602686;-0.0040787192821454;0.02520922212756567;30.0;53.74507351;86.83775319
-1.5947926599264797;0.607060677451204;-0.023452635872336;0.023997764949875943;30.0;53.74548601;86.83783289
-0.569493660539569;0.7280259407757842;0.0101967982053635;0.021918241161095257;30.0;53.745889649999995;86.83792165
-1.0729218361587047;0.792872801078782;-0.0152951973080452;0.012571457128518381;30.0;53.74628079;86.83802351
-0.9331512310200312;0.8053383594906404;-0.0254919955134087;0.01867248794374138;30.0;53.74666776;86.83814423999999
-1.4890265802292284;0.7667684166362561;-0.0214132762312633;0.019311203169629584;30.0;53.747070570000005;86.83832433
-2.974703325855056;0.9065908950557473;-0.0295707147955541;0.01842334418662542;30.0;53.74743328000001;86.83852320000001
-0.4568547957110069;0.924399358495584;-0.0244723156928724;0.018814558747744504;30.0;53.74778844;86.8387478
-1.948103077367037;0.9993740592076946;-0.0622004690527174;0.013941426062138168;30.0;53.74813415999999;86.83900136
-1.200968262147044;1.0513664889372563;-0.0387478331803813;0.016968812124685647;30.0;53.74847082;86.83927914
0.3532731151450157;1.0500483523371005;-0.0142755174875089;0.017700902884175067;30.0;53.748764630000004;86.83957551
-0.4157510863472581;1.055223039328647;-0.0367084735393086;0.0180828332613257;30.0;53.749052199999994;86.83987843999999
-2.450311540842073;1.2014299046847683;-0.0316100744366268;0.018285184071207366;30.0;53.749339989999996;86.84019695
-0.2264633572933634;1.208861788935015;0.003059039461609;0.020160284656777445;30.0;53.74964955;86.84054234999999
-1.4108422632379078;1.2142178376269828;-0.0122361578464362;0.017614212608699244;30.0;53.74996258;86.8408861
-0.7484714059103704;1.3135011301978914;-0.0142755174875089;0.01620831245377978;30.0;53.750254440000006;86.84119076
-3.668783925409892;1.1577111734147607;-0.0163148771285816;0.01642954221624956;30.0;53.75055077;86.84148709000002
-2.246866514092648;1.2308950267351282;0.0020393596410727;0.014922824407307828;30.0;53.75085134;86.84177742
-0.623928836765351;1.2145973495897573;0.0142755174875089;0.01616691913525144;30.0;53.75115611;86.84206171000001
-2.8566206319037564;1.1651220408146;0.0040787192821454;0.01599883090280137;30.0;53.751466359999995;86.84234380000001
-1.8992197704779603;1.1558280465689135;-0.0193739165901906;0.017751412287318684;30.0;53.75178091;86.84262251
0.1163291946179113;1.0864437128728757;0.0112164780258998;0.026754588428883355;30.0;53.75209837;86.84290669
-2.207840627378535;0.9368854105996777;-0.037728153359845;0.02823692904360189;30.0;53.75240916;86.84319444
-2.7643363313611817;1.1925416905814055;-0.0152951973080452;0.033201849458551945;30.0;53.75269485;86.84346733
-1.9256310129247367;1.1840235001051502;-0.0326297542571632;0.04081111995456844;30.0;53.75297181999999;86.84374942
-2.187424987487228;1.3607073702282788;-0.0734169470786173;0.03991698847698697;30.0;53.7532447;86.84404278
-1.2926173382922452;1.6522632614831856;-0.0448659121035994;0.04192153301287754;30.0;53.753513;86.84434436
0.6501825957785;1.9239671242700314;-0.0815743856429081;0.03928098784876421;30.0;53.75377102;86.8446459
-2.4584256082626976;1.8845154004120857;0.0560823901294993;0.03930788926511818;30.0;53.75401755;86.84494619
0.937444604687659;1.7688821730549251;-0.040787192821454;0.043750615380933354;30.0;53.75426031999999;86.84525552
1.8000360228183123;1.6739646518833275;-0.0703579076170082;0.04458552525464937;30.0;53.754505540000004;86.84557754
2.2783248666792013;1.4834565942890328;-0.0540430304884266;0.042449934843698564;30.0;53.754753619999995;86.84589986
0.5627712741067805;1.382728136166222;-0.0346691138982359;0.04297735064905674;30.0;53.754996240000004;86.84620648
1.3820878452352534;1.379025395729416;0.0244723156928724;0.04570218656512443;30.0;53.755260129999996;86.84653949
1.2768562048280934;0.7050063311207047;-0.0081574385642908;0.05082296722603436;30.0;53.75552292;86.84685859999999
1.8326166301647484;0.6917356198521137;-0.0418068726419904;0.051354825520115846;30.0;53.75578158;86.84718126
2.332100526624591;0.7794146637034866;-0.0550627103089629;0.055589438373906695;30.0;53.7560297;86.84751130000001
1.4280990558171058;0.899887394517435;-0.0999286224125624;0.05653161900622986;30.0;53.75627307;86.84784939
2.9202829343689025;0.9541259389622733;-0.1631487712858162;0.05750337264369159;30.0;53.756516090000005;86.84819225
2.45440416470649;0.8852848152862455;-0.0836137452839808;0.05310053306097984;30.0;53.75674788;86.84853156
2.965848554480317;0.8631784435591889;0.0112164780258998;0.05146897795603898;30.0;53.75696811;86.84886699
3.376369769680822;0.8128400735132941;-0.0173345569491179;0.051351563507191715;30.0;53.75717894;86.84920582
4.154670475383452;0.8187174462171137;-0.0122361578464362;0.05138754666871405;30.0;53.7573884;86.84955864
2.73682245278808;0.8741393099853977;-0.020393596410727;0.05108687488073961;30.0;53.75757192;86.84989832
3.956973225703769;0.9113711021544096;-0.0346691138982359;0.03518576743409168;30.0;53.757742719999996;86.85026368
3.5164682961081635;0.8902577901517928;-0.0530233506678902;0.03261983919692952;30.0;53.75789727;86.85063327
2.2687011420268623;0.9241350871885662;-0.0591414295911083;0.029566612350783627;30.0;53.75803306;86.85100714000001
1.1743671591815097;1.0016481460448685;-0.0968695829509534;0.027838898342280458;30.0;53.7581457;86.85138858
3.772193360007405;1.0722234185510964;-0.0764759865402263;0.02431626980538642;30.0;53.75823207999999;86.8517668
3.3015692699963983;1.2082460563933937;-0.0530233506678902;0.02092732573357682;30.0;53.758293679999994;86.85213816000001
3.942864312603089;1.4079050870272898;-0.0856531049250535;0.019091294146451165;30.0;53.758326999999994;86.85250427999999
4.43678766777136;1.472065226948902;-0.0346691138982359;0.018825301243357375;30.0;53.75833031;86.85286343
4.754320413304048;1.3932425216651037;-0.0438462322830631;0.019253986439300683;30.0;53.758306759999996;86.85321108000001
5.361512839218081;0.92395059555967;-0.0632201488732537;0.015738563418681083;30.0;53.75825612999999;86.85353421
5.925326589285805;0.8487551428008602;-0.0550627103089629;0.018099436494854605;30.0;53.758187469999996;86.85383419000001
5.289574383865171;0.6520504989884144;-0.0622004690527174;0.020028050712010637;30.0;53.75810634;86.85411402
5.458477068206579;0.9966320222004323;-0.0499643112062812;0.022054857114468595;30.0;53.75802116999999;86.85438213
5.922761482628156;1.7034463801511022;-0.0744366268991536;0.021526007492857532;30.0;53.757935339999996;86.85463933999999
4.81640331879546;1.8745097238089872;-0.0917711838482716;0.023631994943990067;30.0;53.75784843;86.85489547
4.5666561756824695;1.8532435000779932;-0.0336494340776996;0.02649184080679118;30.0;53.75773788;86.85514588000001
2.489266992006116;1.7346915256027817;-0.0152951973080452;0.026484644396121623;30.0;53.75762098;86.8553797
0.5547366970429279;1.6790642727447456;-0.0418068726419904;0.02814123363478966;60.0;53.75749208999999;86.85559641
1.9988317847658192;1.5351249994135987;-0.0866727847455898;0.02810981075524916;60.0;53.757350599999995;86.8557954
3.239125013364226;1.4356378447150628;-0.0183542367696543;0.029485814941048624;30.0;53.757194479999995;86.85597464
3.3684160408299366;1.2339669586324273;-0.0540430304884266;0.02688832936164237;30.0;53.757022600000006;86.85612788
2.626860813463864;1.0031426442678082;-0.0836137452839808;0.026663971991673814;30.0;53.75684025;86.85625017
2.989006757863078;1.0261356263741008;-0.0591414295911083;0.02276549223770387;30.0;53.75664263;86.85634439
0.5493322920547983;0.9814521434626234;-0.0887121443866625;0.02589442500899476;30.0;53.756435669999995;86.85640879
2.6935579609404123;1.1595631974597802;-0.0520036708473539;0.02435021600731425;30.0;53.75622117;86.85644773
2.0132247215309174;1.600065931613636;-0.0744366268991536;0.021147877051058257;30.0;53.75602309;86.85646981
1.4938101737304503;1.591858778945474;-0.0458855919241358;0.022471611356745032;30.0;53.75582694;86.85648614
0.8284570000790358;1.5469604578828715;-0.0183542367696543;0.022184448864453393;30.0;53.75564016;86.85649648
0.2370551352093054;1.4541149254800347;-0.0397675130009177;0.02228991218863651;60.0;53.75545894;86.85650469999999
-1.8803589812517485;1.5252841534033437;-0.049454471296013;0.027346573749306696;60.0;53.755286209999994;86.85650605
3.30461766588246;1.6180269435563146;-0.0326297542571632;0.027153409695563627;60.0;53.755126010000005;86.85650713
0.9128285908221074;1.6529337950187937;-0.0815743856429081;0.035901161650566775;60.0;53.754977399999994;86.8565198
0.3054011238829295;1.8362380306241903;-0.0448659121035994;0.03769813282075596;60.0;53.75484933;86.85654020999999
2.6581005227540024;2.1307364302314076;0.0152951973080452;0.03747683640849121;60.0;53.754740289999994;86.85657197
3.434565854528376;2.15106456005481;-0.0382379932701131;0.03758937630564168;60.0;53.75465181;86.85660381
-0.055318475055937;2.4739578437783427;-0.1203222188232894;0.037592756900889424;60.0;53.75458253000001;86.85662669
-1.4793535930116426;2.4168874572605725;-0.0091771183848271;0.03814190935002772;60.0;53.754527949999996;86.85663867
-2.591600551614;2.3745129330312302;-0.0672988681553992;0.03653358625931417;60.0;53.75448268;86.85664204
-0.4605574463057871;2.4456880933772527;-0.0596512695013765;0.039056273671513625;60.0;53.754449199999996;86.85663672000001
-3.9602079897812;2.4456880933772527;-0.0504741511165494;0.039056273671513625;60.0;53.754449199999996;86.85663672000001
-3.146653170975223;2.4456880933772527;-0.023452635872336;0.039056273671513625;60.0;53.754449199999996;86.85663672000001
-0.1157906625612803;2.4456880933772527;-0.058121749770572;0.039056273671513625;60.0;53.754449199999996;86.85663672000001
-2.712584578537164;2.4456880933772527;-0.0020393596410727;0.039056273671513625;60.0;53.754449199999996;86.85663672000001
-1.3519059018524284;2.7584769640531404;0.0346691138982359;0.05673268276363124;60.0;53.72783525;86.85349797
-4.124514175474365;2.7584769640531404;-0.0550627103089629;0.05673268276363124;60.0;53.72783525;86.85349797
1.7383623188095356;2.7584769640531404;-0.0326297542571632;0.05673268276363124;60.0;53.72783525;86.85349797
-1.8353171665979224;2.7584769640531404;0.0367084735393086;0.05673268276363124;60.0;53.72783525;86.85349797
-3.751445544832812;2.7584769640531404;-0.1294993372081166;0.05673268276363124;60.0;53.72783525;86.85349797
-0.5497141099307269;2.7584769640531404;0.0071377587437544;0.05673268276363124;60.0;53.72783525;86.85349797
-6.067493495922963;2.810300719468274;0.0214132762312633;0.05585763595930458;60.0;53.72779402;86.85361034
3.2801877439063865;2.67048688605524;0.0397675130009177;0.061251582975968104;60.0;53.727758890000004;86.85372625
-0.8985543398758808;2.5410094301790185;0.0525135107576221;0.06761452474580854;60.0;53.72772414;86.85384766
-0.4914118752016402;2.649513062619574;0.0265116753339451;0.06714301055242627;60.0;53.72767314;86.8539477
0.288739237214257;2.475336840123746;0.0183542367696543;0.05662179711358527;60.0;53.72761653;86.85401909
0.6921094600650907;2.6402314586209865;-0.0948302233098807;0.05622540070661078;60.0;53.7275428;86.85405288000001
-0.0598187301326999;2.4106106466676676;-0.0978892627714897;0.057212251934694806;60.0;53.727452740000004;86.85405498
1.7338342163753175;2.4320435527072393;-0.0652595085143265;0.0526154622719758;60.0;53.72735288;86.85401912
1.633268550593677;2.533662841895347;-0.0448659121035994;0.04274068378966657;60.0;53.72724779;86.85394219
-2.945920932088361;2.6479295327627472;-0.0254919955134087;0.036208446118956565;60.0;53.727144069999994;86.85382055
-5.090985783077667;2.6567785539080715;-0.07545630671969;0.025051079669053972;60.0;53.72705172999999;86.85365653
-4.554605932781461;2.697260655612933;-0.0540430304884266;0.02380126765385832;60.0;53.72698116;86.85345284
-3.224931397737404;2.7377676284133052;-0.0622004690527174;0.025198221139150507;60.0;53.72693334;86.85322326000001
-3.839079594977894;2.5966058309873077;-0.095849903130417;0.025128206496633988;60.0;53.72693239;86.85298166999999
0.4013300673686195;2.559184328874742;-0.0948302233098807;0.024629718247114678;60.0;53.726962040000004;86.8527374
1.0984287991041763;2.54554148910896;-0.0591414295911083;0.022333859129730255;60.0;53.72702907;86.85249467
0.5267492301923797;2.249198370678861;-0.0214132762312633;0.027466447146057914;60.0;53.72715773;86.85222909000001
0.4131291407829557;1.887917536531372;-0.0601611094116447;0.02821569713210371;60.0;53.72731916;86.85196812000001
1.349909190820935;1.7994490901356985;-0.0642398286937901;0.029224941962770066;60.0;53.727513120000005;86.8517064
-0.1766912369022482;1.3767386272941031;-0.0876924645661262;0.02593504837266911;60.0;53.72773114;86.85145082
0.96609932776673;1.4634694351796933;-0.0152951973080452;0.02208528308170755;60.0;53.72796376;86.85120472000001
1.5566011920393457;1.4501398689115568;-0.0402773529111859;0.029301924898972924;60.0;53.728205460000005;86.85096002
3.2298754442410083;1.4058644446107864;-0.0356887937187723;0.028652065513668747;60.0;53.72845837;86.85071117
4.263215590512431;1.3282125217715475;-0.0509839910268175;0.03335394877924745;60.0;53.728722770000005;86.85046613
3.368320738288836;1.3012049941331219;-0.0305903946160905;0.041475649919482736;60.0;53.729006090000006;86.85022465
1.7408832152877458;1.0157909017473126;0.0173345569491179;0.040655306354327;60.0;53.72930035;86.85000179
2.5671461702607643;0.9313484063470131;-0.0418068726419903;0.040560854440238686;60.0;53.72958535;86.84982855
2.9384689905171304;0.8122598765056568;-0.0968695829509534;0.043035911342525275;60.0;53.72987052;86.8496862
2.648588793357035;1.2675234999333902;-0.1233812582848985;0.04428654142779564;60.0;53.73015237;86.84957637
3.5978257145420454;1.703443022022536;-0.078515346181299;0.044597442916123164;60.0;53.73042597999999;86.84948646
4.298479147516851;1.878854931351613;-0.0163148771285816;0.04502989418039361;60.0;53.730690010000004;86.84941257
3.939180207533404;1.7551118789517877;-0.0040787192821454;0.0444681214933822;60.0;53.730939490000004;86.84935997
6.339721313285438;1.6290787896978842;-0.0122361578464362;0.04745876601725428;60.0;53.73117659;86.84932570999999
7.173393877247191;1.5031893458372947;-0.0244723156928724;0.0441632421992238;60.0;53.73139354999999;86.84930971
6.48183583779374;1.296043825959064;-0.0193739165901906;0.029895347603030184;60.0;53.73158873;86.84930521
6.117024692617368;1.1989824642739937;0.0132558376669725;0.017360862057441397;60.0;53.731770510000004;86.84929754999999
3.8949360745030415;1.1605501588635887;0.0122361578464362;0.017240665405716577;60.0;53.73193106;86.84927634
4.666449629169578;1.0567567511931781;0.0132558376669725;0.022953242154915798;60.0;53.73208234;86.84923818
4.427932574040563;1.240405637035949;0.0275313551544814;0.02240951176491432;60.0;53.73222317;86.84918445
4.676162646590308;1.2395463911733904;-0.0091771183848271;0.021513123131780384;60.0;53.732359110000004;86.84911815000001
5.617961418055896;1.2870642242406973;0.0142755174875089;0.024057145514228256;60.0;53.73248901999999;86.84903813999999
5.802387634680054;1.2911872865832166;0.0499643112062812;0.02409193637163159;60.0;53.73261262;86.84894414
7.675610981045156;1.123710828548338;-0.0050983991026817;0.02568500401307233;60.0;53.73272777;86.84883145
7.167073600832308;1.031282643221321;-0.0183542367696543;0.025652599011665216;60.0;53.7328317;86.8486973
6.992131303993227;0.8570708320535296;-0.0346691138982359;0.024762338876439565;60.0;53.732919249999995;86.84854421
6.221005591185322;0.6958834022511243;0.0142755174875089;0.02436563046477209;60.0;53.732988590000005;86.84837035000001
6.12009866495347;0.7150366502292376;0.0346691138982359;0.02661192860120587;60.0;53.733041889999996;86.84818300999999
6.06598290354776;0.7014283063848208;0.0112164780258998;0.021140159383412547;60.0;53.73308154;86.8479897
6.0027423656117405;0.603519235081657;0.0061180789232181;0.021139339642592243;60.0;53.733111269999995;86.84778903
5.704798580371282;0.6169273041044138;-0.0020393596410727;0.020648341522902035;60.0;53.73313473;86.84757952999999
7.370018766925152;0.5998102449791647;-0.0285510349750178;0.019657765012541305;60.0;53.733154209999995;86.84736093000001
7.246210284424591;0.9109940575894098;-0.0142755174875089;0.019626886844219982;60.0;53.733169780000004;86.8471333
6.477196167523495;1.0599138061988602;-0.0020393596410727;0.014108232414441825;60.0;53.733181259999995;86.84689646000001
5.657873573547064;1.08631020772471;-0.0101967982053635;0.011950644596572524;60.0;53.73319347;86.84658611
5.822860653646767;1.0857787099639047;-0.0285510349750178;0.009553510544044803;60.0;53.73320607000001;86.84626591000001
4.105279402930193;1.1465125361227644;-0.0214132762312633;0.00827711656022525;60.0;53.7332196;86.8459364
4.335704210518581;0.9675961915640532;-0.0214132762312633;0.008483895430338513;60.0;53.73323321;86.84559673
5.077210334412094;0.7516258382400458;-0.0209034363209951;0.009450163875813797;60.0;53.73324735;86.84524991
5.532274406022707;0.7550229122533944;-0.0173345569491179;0.010264692449137804;60.0;53.73326065;86.84490224999999
4.571280602460646;0.7923366919492197;-0.0122361578464362;0.01048517036559666;60.0;53.73327124;86.84454676
5.410017934915271;0.8160124644505227;-0.003059039461609;0.008973600840183856;60.0;53.73327955;86.84419155
5.844096736496531;0.7267090762196611;-0.0020393596410727;0.008236540500401745;60.0;53.733285980000005;86.84383702
6.496350520549963;0.7286570622027632;0.003059039461609;0.008742759333056113;60.0;53.733290690000004;86.84348333
6.109203383882557;0.8883993086511858;-0.0061180789232181;0.00855086633722188;60.0;53.73329029;86.84319621
4.450995181625423;0.8817259236209773;-0.0091771183848271;0.013340107366070164;60.0;53.733290690000004;86.84289709
5.024976648242452;0.8900161431551035;-0.0122361578464362;0.01598727314012059;60.0;53.73329168;86.842596
4.322352617149041;0.8971344034688503;-0.0244723156928724;0.01716511509692986;60.0;53.73329592;86.84229304
3.683308151276127;0.8663749073289209;-0.0193739165901906;0.016877335382136857;60.0;53.73330558;86.84198269999999
4.841537962110014;0.6335214676179507;-0.0428265524625267;0.015636568308566235;60.0;53.73332230000001;86.8416615
4.452718376664897;0.43279054890394175;-0.040787192821454;0.016104270991623048;60.0;53.73334879;86.84133727
4.50026792205254;0.43778961572171676;0.0071377587437544;0.021074479359144187;60.0;53.733386470000006;86.84101143000001
4.247050748623481;0.39379847237515786;-0.0061180789232181;0.023076788414490717;60.0;53.733437179999996;86.84068582
4.705266786599171;0.4529031712983628;-0.0152951973080452;0.022844330331908913;60.0;53.73351581000001;86.84033693
3.730151109219356;0.3866672140593379;-0.0010196798205363;0.02244846475891362;60.0;53.73360243;86.83999603
4.607161368481478;0.37368834062468675;0.0265116753339451;0.018228628680589;60.0;53.73369185;86.83967329
4.028923663663118;0.5008378846777111;0.0168247170388497;0.012306882569908667;60.0;53.73378159;86.83934831
5.018223535537014;0.5695018563643308;0.0040787192821454;0.015079256958977041;60.0;53.73386877;86.83901820999999
4.672697557034955;0.5746927818286881;-0.003059039461609;0.015793246198509317;60.0;53.7339507;86.83867518000001
4.190618446049819;0.5469949119160504;-0.0040787192821454;0.019552063279161334;60.0;53.73402807;86.83831735
