acc_X;acc_X_std;acc_Z;acc_Z_std;class;lat;lon
2.760639069648984;2.6425379421289343;0.1325583766697257;0.0811256251291446;30.0;53.72396152;86.84227704
10.992533835252653;2.6425379421289343;0.0642398286937901;0.0811256251291446;30.0;53.72396152;86.84227704
8.663997778459;2.6425379421289343;0.1029876618741715;0.0811256251291446;30.0;53.72396152;86.84227704
6.366752423894921;2.6425379421289343;0.0428265524625267;0.0811256251291446;30.0;53.72396152;86.84227704
9.12008579517914;2.6425379421289343;0.0897318242071989;0.0811256251291446;30.0;53.72396152;86.84227704
6.165081124702717;2.6425379421289343;-0.0601611094116447;0.0811256251291446;30.0;53.72396152;86.84227704
5.247392667926232;2.5474132242723075;0.078515346181299;0.07941939275659103;30.0;53.72404253;86.84240156999999
3.860983342077047;2.194365069643708;0.0713775874375446;0.07891938287258704;30.0;53.72412952;86.84252696
7.980797620774005;2.009476962025176;0.0428265524625267;0.07311545955740714;30.0;53.72424083;86.84267155
3.9940385127818585;2.1610318700338764;-0.1366370959518711;0.0722610221739298;30.0;53.724364630000004;86.84281327
3.4015825530525605;1.7664868735500625;-0.0520036708473539;0.06521700801583329;30.0;53.724499189999996;86.84294271
3.3863401226179;1.6363439822493626;-0.0142755174875089;0.06413669890385604;30.0;53.72464931;86.84306979
4.011831920999856;1.678184039827372;-0.0132558376669725;0.056227429705685165;30.0;53.72481749999999;86.84319702
2.48624476240336;1.7898998280420022;-0.0224329560517997;0.04485883043484664;30.0;53.724999319999995;86.84332508
2.0925511119210234;1.2801564375892398;-0.0367084735393086;0.03727623647603181;30.0;53.72519307;86.84346507
3.8525639836925256;1.3318845292326669;-0.0438462322830631;0.02538982277554537;30.0;53.72539336;86.8436116
5.68858199935553;1.3277062234805865;-0.0499643112062812;0.024580652910185862;30.0;53.725596970000005;86.84375377
2.116657993930016;1.3758261439136974;-0.0458855919241358;0.025140386973067412;30.0;53.725808529999995;86.84389109
5.661068863547425;1.3877582972628937;-0.0050983991026817;0.025140386973067412;30.0;53.726013079999994;86.84401371999999
4.850205114893717;1.7030425917734997;0.0285510349750178;0.025390732788727353;30.0;53.726224130000006;86.84413773
4.00105489691272;1.799253276829362;-0.0010196798205363;0.04222891809387127;30.0;53.726443200000006;86.84426719999999
2.6263933745005086;1.8533479931231494;-0.003059039461609;0.04312976449852474;30.0;53.72666554999999;86.84440251
3.0588733151128205;2.0659422181399796;-0.0132558376669725;0.04249019393201992;30.0;53.72688334000001;86.8445435
0.3959076980972555;1.992487173243354;-0.0071377587437544;0.04229520781473663;30.0;53.72710004;86.84468596
5.948314214903938;1.9506926254298411;-0.1244009381054349;0.04337403087095762;30.0;53.72731558;86.84482982
2.4102186390089457;1.9292192301440654;0.0091771183848271;0.04016152225336597;30.0;53.727523180000006;86.84497342
7.103671119323538;1.9871209732335775;-0.0397675130009177;0.03846895192031169;30.0;53.72773127000001;86.84511751
4.773789139221146;1.9210565178221395;-0.0428265524625267;0.036702808214243696;30.0;53.72793521999999;86.84526002
5.102010093369577;1.9825222157974958;-0.0560823901294993;0.03632074138401608;30.0;53.728137159999996;86.84540308000001
3.877376984001004;1.3434843075285818;-0.0601611094116447;0.04365955228555326;30.0;53.72833284000001;86.84554756
5.429786458384598;1.305838804283174;-0.037728153359845;0.03384439375830044;30.0;53.72854284;86.84571148
4.2154064309162536;0.9914700235948164;-0.0295707147955541;0.03540376370648796;30.0;53.72874793;86.84587049000001
6.385951045164498;0.776607372448623;-0.0183542367696543;0.03723732089099366;30.0;53.72895158;86.84602806000001
4.584446500230512;1.3231652345798603;0.040787192821454;0.036030129906532905;30.0;53.72914581;86.84618645
4.484919840239137;1.6076628998788682;0.0193739165901906;0.03492823058020084;30.0;53.72932631;86.84633367
4.889055435285371;1.5971524474433227;0.0224329560517997;0.027741621741392355;30.0;53.72950032;86.84647952
5.971049953342101;1.675616786241228;0.0244723156928724;0.022999751803306535;30.0;53.729665669999996;86.84662439000002
8.388134376876923;1.517481798584365;0.0020393596410727;0.017592227033380852;30.0;53.72982483999999;86.84676564
8.257407235224907;1.5724013809062969;0.0397675130009177;0.012727176432688702;30.0;53.72997103;86.84690927
7.72534287587905;1.4447865551646408;0.0101967982053635;0.010934319592151022;30.0;53.730103940000006;86.84705754000001
7.837256384459028;1.1813199455971477;0.0224329560517997;0.011047838593619994;30.0;53.730202039999995;86.84719404
6.929152525936848;1.345812653377307;0.0091771183848271;0.013236213914292845;30.0;53.73028734;86.84733566
7.877617591900237;1.7881798132537345;0.0305903946160905;0.013558530774957412;30.0;53.73036343;86.84748599
8.211846243514112;2.0604912479273776;0.0224329560517997;0.01622454204240923;30.0;53.73043787;86.84765771
6.225120170598463;1.9982482972904254;0.0152951973080452;0.019041627668342557;30.0;53.73051531;86.84785547
4.185481838207624;1.9158026749699817;0.0428265524625267;0.019041627668342557;30.0;53.730600270000004;86.84806587
3.3419121114909163;1.8024658073069297;0.0313551544814928;0.025415986861618063;30.0;53.73069297000001;86.84827377
3.096142002640811;1.826202572308384;0.061180789232181;0.026965891321591454;30.0;53.73078948;86.84847524
4.788633853328162;1.7914942684142714;0.061180789232181;0.02761255016993358;30.0;53.73089061;86.84866597
5.236241753172175;1.6917081428283238;0.0101967982053635;0.02771861686134323;30.0;53.730997890000005;86.84883725
6.566713730535082;1.7245043826316202;-0.0224329560517997;0.03035640134584807;30.0;53.73111274;86.84899049999999
7.204589064393539;1.6515709512144001;-0.0061180789232181;0.029586447766458596;30.0;53.73123805;86.84912349
7.6062338826982865;1.4101886426223875;0.0040787192821454;0.03103213487983882;30.0;53.731367;86.8492294
7.517676262028653;1.000122512064463;0.0142755174875089;0.029243120304631543;30.0;53.73150373;86.84929701
6.785152775513928;0.9108297758127424;-0.0178443968593861;0.02484623316648203;30.0;53.731644349999996;86.84932755
6.145944345992206;0.8892331043402882;0.0326297542571632;0.025062894300177017;30.0;53.731786680000006;86.84932396
5.609740728841811;0.9695838847229518;0.0489446313857448;0.02206696709422248;30.0;53.73192855;86.84930199
5.4203169991889375;0.9480231114571794;0.0479249515652085;0.0216472926640203;30.0;53.73207243;86.84925899000001
5.420544167394625;0.9828516798298156;0.0132558376669725;0.023935884266823887;30.0;53.732215370000006;86.84919713000001
5.4045609111790185;0.9797823343873602;0.0020393596410727;0.025575754898430576;30.0;53.732356319999994;86.84912048
5.104210248368487;1.0204913027566722;0.020393596410727;0.024507459970150865;30.0;53.73249803;86.84901131
6.995177815331908;1.0329511506777018;-0.0020393596410727;0.023455345010071686;30.0;53.73262662;86.8488839
7.808482908406304;1.0014875426102425;-0.0173345569491179;0.020716488049822377;30.0;53.732745030000004;86.84873607
7.496613602718735;0.9540708942057334;-0.0142755174875089;0.013587656077301401;30.0;53.73284725;86.84856693
7.256132069644829;0.8863934412281849;-0.0081574385642908;0.013843715753642722;30.0;53.7329334;86.84837404
6.802695665095755;0.8110447964346976;0.0081574385642908;0.015450757152952382;30.0;53.73300411;86.84817082999999
6.351723877936476;0.5973280467883889;-0.020393596410727;0.013896606215992651;30.0;53.73306021;86.84795557
5.993726821421475;0.6106662350559344;0.0050983991026817;0.013852058357602046;30.0;53.733102329999994;86.84773401
6.26774761143799;0.8274327554312109;0.0152951973080452;0.014404819689118782;30.0;53.73313528;86.84750072
7.254344224269094;0.8620948829695617;-0.023452635872336;0.015173484436745849;30.0;53.7331595;86.84725614
7.429503021342221;0.911913396886867;-0.0224329560517997;0.016244267287780938;30.0;53.733172919999994;86.84701356000001
6.55958498179949;1.098291368575346;-0.003059039461609;0.015853753270480515;30.0;53.73318594;86.84676546
4.801835741055333;1.103744732694841;0.0091771183848271;0.0155093416161472;30.0;53.73319946;86.84651018
5.286677100100278;1.2206352672469427;-0.0224329560517997;0.01646325972686923;30.0;53.73321284;86.84623939999999
4.968215300869473;1.201311140352284;-0.0244723156928724;0.013060042440437448;30.0;53.73322426;86.8459641
4.042776875590891;1.0291533099189372;-0.023452635872336;0.014893764887059053;30.0;53.7332325;86.84567538
5.23099620759516;0.7823876059503301;-0.0091771183848271;0.014949509276536392;30.0;53.73323931;86.84537243
4.095398162993471;0.9863695573661183;-0.0356887937187723;0.015703289944626383;30.0;53.733245690000004;86.84506649
5.214051400106858;0.9741210125662629;-0.0244723156928724;0.011149846427789973;30.0;53.73325009;86.84475857
5.1900239469217135;0.9899196009933731;-0.040787192821454;0.01717184413991687;30.0;53.733252500000006;86.8444333
6.149529210983359;1.019279062084303;-0.0142755174875089;0.018175870266052163;30.0;53.73325308999999;86.84411133
7.456860576229155;0.9747770116810286;-0.0438462322830631;0.018370673320725794;30.0;53.73325136;86.84378448
5.321727338900674;1.021501863364244;-0.0193739165901906;0.0180758841161532;30.0;53.73324710000001;86.84345766
5.853746045760754;1.0268071217163965;0.0152951973080452;0.026048390226633824;30.0;53.733240769999995;86.84313389000002
4.516351004578539;1.0669199288602755;-0.040787192821454;0.026090489736859852;30.0;53.733236350000006;86.84280691000001
4.405412373106128;1.1206435839599258;-0.032119914346895;0.026162745187996325;30.0;53.733236999999995;86.84247732000001
4.382062595878874;1.0861162270329034;-0.0397675130009177;0.026664310483019225;30.0;53.733244979999995;86.84213714
4.05401793513239;0.58773704775943;-0.0866727847455898;0.026475168865993944;30.0;53.73326168;86.84179032
4.341329485709828;0.5643392041638953;-0.0438462322830631;0.026350841194692647;30.0;53.733287700000005;86.84143746
4.080176149062358;0.33441481291700326;-0.0247272356480064;0.021704138414835355;30.0;53.73332928;86.84109248
4.089622263545274;0.3487865539097746;-0.0086672784745589;0.023975263566778128;30.0;53.73338579;86.84074706999999
4.776835424956656;0.3553707953315109;-0.023452635872336;0.02549098997597599;30.0;53.73345897;86.84040297
3.862960257020693;0.39086534501311015;-0.0224329560517997;0.026140878220556704;30.0;53.73354365;86.84006525
4.92229815015132;0.40447643372649633;-0.0163148771285816;0.014410457686514958;30.0;53.733638000000006;86.83973719999999
3.956104815511142;0.4630124311242786;0.0;0.018574028424627367;30.0;53.73373798;86.83937126
4.526223538766223;0.5315810924063051;-0.0020393596410727;0.020917179518923013;30.0;53.733833849999996;86.83898840999998
3.767115967637625;0.9562336460432529;-0.0020393596410727;0.023625883400188834;30.0;53.733922740000004;86.8386037
3.870913115408653;0.9031408698525641;-0.0316100744366269;0.028711627995640268;30.0;53.73401782999999;86.83816631
3.480436645397061;1.1524022924214452;0.0326297542571632;0.05080932658882629;30.0;53.73411539;86.83771859000001
3.3112429949272184;1.047177930092193;-0.0428265524625267;0.05940309597164296;30.0;53.73420049;86.83726353
1.5388379550535465;1.014139504435096;-0.0469052717446721;0.06022885788987552;30.0;53.73425772;86.83679083999999
3.2596435161181017;0.8992191214096333;0.037728153359845;0.0609311191457066;30.0;53.73427822;86.83630701999999
1.3499316559875676;0.8440259231600198;0.1254206179259712;0.06066357023768406;30.0;53.734265119999996;86.83580496
2.485318546422779;0.7651437839525402;0.1080860609768532;0.058773139531331266;30.0;53.73421988;86.8352938
3.4003579748227355;0.8392971338618216;-0.0173345569491179;0.058605328275646164;30.0;53.734141310000005;86.83481843000001
2.378347911083452;0.7768156992787378;-0.0173345569491179;0.05450006078880507;30.0;53.73399498;86.8343649
2.8006481081673016;0.7294907473125629;0.020393596410727;0.05206073272516617;30.0;53.73381283;86.83396259000001
2.2434190156938136;0.6667054363372151;-0.003059039461609;0.05510308405985866;30.0;53.73358143;86.83364415
1.082838453766359;0.5857479824937281;0.0214132762312633;0.04315761295989015;30.0;53.73329333;86.83336628999999
2.5041030142578413;0.6852562020229985;0.0224329560517997;0.02360631582734349;30.0;53.73292986;86.83311802
2.4923501176397678;0.5896248368805557;-0.0285510349750178;0.024268712955176745;30.0;53.73254412;86.83290380000001
2.113438935743126;0.5891483440228864;-0.0326297542571632;0.024792412762250568;30.0;53.73213267;86.83271763
2.645237020900936;0.609747348012571;-0.0367084735393086;0.02315992959846687;30.0;53.731695869999996;86.83255987
1.2793950503389375;0.9268987617189468;0.0122361578464362;0.023087987110387787;30.0;53.731243840000005;86.83242784
1.6307879154828675;1.4935099383671473;-0.0265116753339451;0.02124156207595302;30.0;53.73078081;86.83232577
1.8075404954583;1.6094251019851766;-0.0254919955134087;0.019489849001504078;30.0;53.730348230000004;86.83224391
1.016305444451935;2.310179633883037;-0.0244723156928724;0.019637773262620853;30.0;53.72991416;86.83215032
-0.4025850798877233;2.33829971195969;-0.0214132762312633;0.019703258628147105;90.0;53.729475920000006;86.83204488
-2.074245557929192;2.307681193887897;-0.0448659121035994;0.024962147068034735;90.0;53.729044570000006;86.83192585
-1.1525627689236235;2.283014519980501;0.0142755174875089;0.02622447867874875;90.0;53.72865318;86.83179814
-4.7563660189298025;2.1845745708325994;-0.0316100744366268;0.033341607132490306;90.0;53.728265480000005;86.83166132
2.402782269406555;2.23598291093262;-0.0336494340776996;0.03343347533688566;90.0;53.72789179;86.83151291
-2.419700398360616;2.271067932483973;-0.0713775874375446;0.033579150399625196;90.0;53.72753213;86.83135548999999
-1.7875157702388065;2.303567460482675;0.0193739165901906;0.03382595589991795;90.0;53.727175599999995;86.8311884
0.4468373900901414;2.259686193422781;0.040787192821454;0.05136787150033694;90.0;53.72681755;86.83100955
2.190303357126968;2.25284208333754;-0.0285510349750178;0.05136787150033694;90.0;53.72643519;86.83083455
1.4022679454967648;1.7271851041433879;-0.0295707147955541;0.05247097937561478;90.0;53.72604939;86.83067659000001
-1.880654980187852;1.496217044365099;-0.0050983991026817;0.052470979375614776;90.0;53.725661550000005;86.83054219
-0.9644971988466648;1.550148963923798;0.1121647802589986;0.050106424955882016;90.0;53.72527305;86.83043017
-0.5716813220854098;1.7525753344516586;-0.020393596410727;0.049678515285827916;90.0;53.724843150000005;86.83035099
-0.8167239928293675;1.7883666749828844;-0.0469052717446721;0.049265651108526945;90.0;53.724400720000006;86.83030024000001
0.4688789800769813;1.8171011702703328;-0.0336494340776996;0.04953354131344317;90.0;53.72395634000001;86.83027314
2.422805466332056;1.9776822328100543;-0.0520036708473539;0.053085437439721404;90.0;53.72351296000001;86.83027008
3.622701340130658;1.8182465483353027;-0.023452635872336;0.05687017322896446;90.0;53.72306548;86.83027059999999
1.797016332806818;1.6878949720765726;-0.0652595085143265;0.027882075241904638;90.0;53.72262907;86.83026939
2.489551589736045;1.4512415689965974;0.0010196798205363;0.027978863519888705;90.0;53.72223016;86.8302468
3.2882330709496355;1.0081280186220547;-0.0769858264504945;0.03285033760467518;90.0;53.72184656;86.83018832
3.326446845416426;0.7267475923488971;-0.0897318242071989;0.04206476226685275;90.0;53.72147684;86.83010019999999
3.5031164863232163;0.7300630071760931;-0.0305903946160905;0.041380836996147384;90.0;53.72111586;86.82999778000001
1.5698591506763555;0.6793730106098852;-0.0193739165901906;0.041632729152282104;90.0;53.72079893;86.82988309
2.1913840585146;0.5982275688277573;0.0112164780258998;0.03941183057447518;90.0;53.7204984;86.82976176
2.918877460692418;0.7237859492949695;0.0448659121035994;0.04324696148168697;90.0;53.72020150000001;86.8296415
3.135454702110464;0.7425471560748158;-0.0326297542571632;0.04130451530081069;90.0;53.719910219999996;86.82951662
3.082805533745267;0.7688116540394933;-0.0132558376669725;0.03196731925072467;90.0;53.71963213;86.82940749000001
3.03033183827182;1.403748620200057;-0.023452635872336;0.029981785095296812;30.0;53.71935441000001;86.82932177
4.244435423686439;2.543316945594905;0.0367084735393086;0.030077434054856182;30.0;53.71906917;86.82927205
3.5986377244865624;2.7362508573854636;0.0367084735393086;0.032972494451932184;30.0;53.71876881000001;86.82926096999999
2.33447798891724;2.9044257391129147;0.0387478331803813;0.032192935373794564;30.0;53.71846398;86.8292787
-0.8619226161955128;3.071969936227406;-0.0091771183848271;0.03013552110866617;30.0;53.71814764;86.82932076
-4.159528774146365;3.1626138629001157;0.0402773529111858;0.029511271396259482;90.0;53.717829370000004;86.82937625
-1.277833144038962;3.089795133925357;-0.0295707147955541;0.028142259934243;90.0;53.71750276;86.829449
-1.9500943490531304;2.533810439597872;-0.0280411950647496;0.0315022576941316;90.0;53.71717599;86.82953950999999
-2.9846082951225967;1.8640046686747793;0.0183542367696543;0.03273826885371173;90.0;53.71684380000001;86.82965019999999
-3.5023460049867747;1.0793043046073214;-0.0020393596410727;0.035610370247049376;90.0;53.71650541;86.82978029
-3.3272540064250897;1.0077621335146074;-0.0091771183848271;0.03891651818410027;90.0;53.71616331;86.82992202999999
-1.4317833997781595;1.2432327784832848;-0.0479249515652085;0.033380954557827774;90.0;53.715817900000005;86.8300707
-2.830155831527481;1.555600927046109;-0.0520036708473539;0.033380954557827774;90.0;53.71547663;86.83021839
-2.778867434939933;1.9163348137283847;-0.0815743856429081;0.033658187765833056;90.0;53.71512464;86.83037072
-1.3290792812228758;2.2885022750166715;-0.0723972672580809;0.02705110609755062;90.0;53.71478323;86.83051827
0.5312662910815121;2.3906882166474253;-0.0723972672580809;0.023321731822043192;90.0;53.714443429999996;86.83066486999999
0.9127145492809148;2.2646434436472647;-0.0295707147955541;0.01815042810595191;90.0;53.71411064;86.83080056
1.6801234780788317;2.244322605052722;-0.0560823901294993;0.020559750500072235;90.0;53.7137819;86.83092494
2.9417653719281027;1.8789856992611245;-0.0632201488732537;0.020579969343377257;90.0;53.71345758;86.83104349999999
2.9876931407300464;1.5100933615289565;-0.0254919955134087;0.02946327743493421;90.0;53.71313778;86.83115378
2.466380640103791;1.3989866271190845;-0.0520036708473539;0.02837569430965798;90.0;53.71280695;86.83126582999999
2.197507833660826;1.5055060508396525;-0.0244723156928724;0.026489006090523046;90.0;53.712462949999995;86.83137239
0.7078750957285234;1.5306048389832716;-0.0499643112062812;0.033373469568282806;90.0;53.712116349999995;86.83146611000001
-0.8739715326846199;1.5954193068178608;0.0244723156928724;0.03308961831906109;30.0;53.71172111;86.83151118999999
-0.686056746717512;1.607903672283891;-0.0163148771285816;0.03218342418952972;30.0;53.71132042000001;86.83152522
-0.5784170145778708;1.5881582918824333;-0.0560823901294993;0.03327900577973981;30.0;53.7109148;86.83151383999999
0.2842660191230106;1.60778703343565;-0.0999286224125624;0.03448937091665912;30.0;53.71049762;86.83148578000001
2.606458405311795;1.5722190062062438;-0.0326297542571632;0.03689932473598095;30.0;53.71007462;86.8314519
3.042761626636779;1.6033175915987752;-0.0469052717446721;0.03608379733666935;30.0;53.709648099999995;86.83141706
2.8203423114089885;1.4466910289876673;-0.0091771183848271;0.03241377371577699;30.0;53.70921708000001;86.83138283999999
2.6737979443533795;1.4373700863794512;-0.0010196798205363;0.034415096117125864;30.0;53.708798509999994;86.83135082999999
1.334174366260812;2.025589264980286;0.0101967982053635;0.03878970091615811;30.0;53.708395900000006;86.83133222000001
2.2807368777880552;2.0447341268409565;-0.0214132762312633;0.032318292167096786;30.0;53.70798489;86.83132569
0.5277688283759179;2.0541616531277977;-0.0081574385642908;0.032395413161319504;30.0;53.70761601;86.83134849000001
-0.6281931301993634;1.9094212436193523;-0.0683185479759355;0.03624990046498361;30.0;53.70724669;86.83138109
-3.3777561654785204;1.76321121552274;-0.0927908636688079;0.03502649245910463;30.0;53.706881339999995;86.83141766
-0.0575222397576456;1.6151605413565955;-0.0469052717446721;0.03595951965525915;30.0;53.706530240000006;86.83145311999999
-0.805038440744687;1.6818234232070055;-0.0387478331803813;0.031857447867474575;30.0;53.70618795;86.83148203
-0.230456373173848;1.5777879912269703;-0.0846334251045171;0.041890518769869045;30.0;53.70585103999999;86.83149327999999
1.4336353770973385;1.5752085088306074;-0.0438462322830631;0.04537085066637053;30.0;53.70552407;86.83147351
1.419302449023938;1.7865807767103226;0.0061180789232181;0.04778722948573869;30.0;53.70520956;86.83139195999999
2.015706789627284;1.1581180493113852;-0.0305903946160905;0.047196968510305096;30.0;53.70492392;86.831242
1.321826979846487;1.1419243269483406;-0.1345977363107984;0.05148278041558147;30.0;53.70468432;86.83103312
0.4109393878265211;1.0362350576712152;-0.1345977363107984;0.0570402284896801;30.0;53.70449604;86.83078084
3.0392355757558995;0.9577535599021227;-0.1142041399000713;0.06061203444548151;30.0;53.704345169999996;86.83048917
1.4196931852749797;0.9594549279241944;-0.0693382277964719;0.0752631662750273;30.0;53.70421947;86.83016123
0.1140210754701429;1.2775744717067024;-0.0020393596410727;0.09036893832806815;30.0;53.704101230000006;86.82981259
-0.119103395430154;1.251269288991203;0.0152951973080452;0.09193169026575257;30.0;53.70397708;86.82946316
1.978854259082542;1.282735976575828;0.0142755174875089;0.083449180694026;30.0;53.70384874;86.82913258
1.0575222794705716;1.3360174270287466;0.0912613439380034;0.07221002398076282;30.0;53.70371453;86.82883965
-1.4243661395927891;1.0076195301849613;0.1244009381054349;0.06439540225006314;30.0;53.70356777000001;86.82860585
0.0569287288074145;1.646022865318034;0.0305903946160905;0.06400617674519682;30.0;53.70339464999999;86.82843017
-0.3475359066671543;1.745304980259396;-0.0489446313857448;0.06632625555639787;30.0;53.70318954;86.82831722
-0.5618660095469058;1.7408266008978803;-0.0387478331803813;0.06910616219716141;30.0;53.702951129999995;86.82826057
-0.1196300930286709;1.7577877393042673;-0.061180789232181;0.07003979052619178;30.0;53.702680050000005;86.82825317
4.401952303612917;1.7629576114118124;-0.0662791883348628;0.060097730098222654;60.0;53.70238623;86.82829727000001
-1.338346520072705;1.6907681812713962;-0.0489446313857448;0.028334187054132424;60.0;53.70203918;86.82837518
0.057355577587035;2.1436972474749534;-0.0637299887835219;0.021853908444711117;60.0;53.701689110000004;86.82846031
-1.742318260817939;2.1752483679835537;-0.0520036708473539;0.02183063610756413;60.0;53.70133717;86.82854101000001
1.132843733209976;2.2570713014329957;-0.0489446313857448;0.02175642214644395;60.0;53.70098009000001;86.82860889
-0.0572206789717122;2.649296130346715;-0.0254919955134087;0.02598844729085923;60.0;53.70062261;86.82866356999999
-4.010297104480053;1.8457369399543073;0.0071377587437544;0.030433309935852033;60.0;53.70026607;86.82870383
-1.420135032813253;2.0486366782756162;-0.040787192821454;0.03128130884065145;60.0;53.69991589;86.82873509
-2.2607792211670565;1.9395838783100317;-0.0438462322830631;0.03148813552053629;60.0;53.69957097;86.82875369
-4.992967568457317;2.1809461706394013;0.0061180789232181;0.03219132046511414;60.0;53.69923734;86.82876566
-1.1641375522679176;2.7640126400072162;-0.0938105434893443;0.03234955546451853;60.0;53.69891399000001;86.82876743
-4.430150183505688;3.083257892604449;-0.0642398286937901;0.032622849444478005;60.0;53.69864237;86.82875949
-1.53353461697815;2.923546557035209;-0.0662791883348628;0.028623776583293865;60.0;53.698382419999994;86.82875042
1.0900356603520551;3.003316513459667;-0.0173345569491179;0.02974813814451602;60.0;53.69813106;86.82872946
4.17417943478641;2.9478773451236795;-0.0224329560517997;0.02979470391801704;60.0;53.69788877;86.82870477
2.9768611730520105;2.629149124388847;-0.0550627103089629;0.02776742906835258;60.0;53.69765712000001;86.82867536
-1.5159349588372584;2.61410999138521;-0.0305903946160905;0.02072094884454479;60.0;53.69743084;86.82865132
1.3969726449229394;2.0688103518747165;-0.0173345569491179;0.017874637921221168;60.0;53.69720725;86.82862229
-0.4265750015123308;1.8314041407627224;-0.0336494340776996;0.012808610924749242;60.0;53.696981470000004;86.82859619000001
2.853788485255337;1.8075089966098776;-0.0071377587437544;0.01592827062890196;60.0;53.69674896;86.82857872000001
1.9281683762413384;1.6520285728427742;-0.0275313551544814;0.017945592340100975;60.0;53.69650381;86.82856909
3.734530075604213;1.6113099556960178;-0.0265116753339451;0.01721618986126144;60.0;53.696254350000004;86.82857051
3.165891808089435;1.20838587163947;-0.020393596410727;0.01778530325097207;60.0;53.696001249999995;86.82857853
1.8987630774744009;1.1972318069212167;-0.058121749770572;0.019360793457893054;60.0;53.695746539999995;86.82859774
2.376825594310374;0.8670993443703693;-0.058121749770572;0.019663641070845554;60.0;53.69549488;86.82862
1.1930285738987103;1.0105133452061306;-0.0489446313857448;0.021865997629557772;60.0;53.69523915;86.82865867000001
0.9667818623690424;1.0439539568700635;-0.0474151116549403;0.021885801518705388;60.0;53.69497951000001;86.82870623
2.200453712895102;0.8255176134512;-0.0056082390129499;0.024778662568695556;60.0;53.694717000000004;86.82876884
1.6333475899935546;0.6603740947939899;-0.0224329560517997;0.025971271496328767;60.0;53.694455600000005;86.82884279999999
0.3252274801688137;0.6365050326460114;0.0061180789232181;0.02531372126268977;60.0;53.69419562;86.82892073999999
1.1148528715857964;0.5112143768234028;-0.0265116753339451;0.02970013796873599;60.0;53.69394655;86.82900959
1.1527894952075688;0.7762925102368355;-0.0683185479759355;0.029667445700868655;60.0;53.693701149999995;86.82909955
0.6791014358159763;1.4194326445247087;-0.0071377587437544;0.029881674178106922;60.0;53.693453950000006;86.82919283
1.0555498983251412;1.3154960753869729;-0.0509839910268175;0.03149661875436056;60.0;53.693209589999995;86.82928639
1.4206467471326885;1.3128141610194;-0.0866727847455898;0.031408465036727846;60.0;53.69296634;86.82938618
-0.6754386483643419;1.3145969857580262;-0.020393596410727;0.028413176883074223;60.0;53.692726549999996;86.82948175
-2.768325224047498;1.3097951406775445;-0.0509839910268175;0.02879484860619089;60.0;53.692491970000006;86.82957229
0.952616426934304;1.3160515230275256;0.0076475986540226;0.03658241001877472;60.0;53.69226287;86.82965551
1.6053188512032546;1.5796232118884213;-0.0254919955134087;0.036107201760943654;60.0;53.69203742;86.82973214
0.7849187242521772;1.6793852249543821;-0.0418068726419904;0.03546640137321683;60.0;53.69181596;86.82981276000001
1.0088447039760855;1.6724494556473688;-0.0193739165901906;0.0309232371018558;60.0;53.69157024;86.82988448
1.261489821969171;1.6437886842849252;0.0469052717446721;0.03116290305462535;60.0;53.6913232;86.82994976
3.283619782578884;0.9327482955125551;-0.020393596410727;0.028702170705442443;60.0;53.691081940000004;86.83000802000001
2.590325906974712;0.9716995502998752;-0.040787192821454;0.03149881943632796;60.0;53.69084444;86.83006748
0.6811304985327411;1.0281536902204673;0.0224329560517997;0.03198470652769113;60.0;53.69060862;86.83012094
2.461305850759953;1.1493846391952867;-0.0275313551544814;0.030791075911352123;60.0;53.69037472;86.8301712
0.6327589079286938;1.2416989349446754;0.0005098399102681;0.03316742758180346;60.0;53.69014664;86.83022215999999
2.6614267058925702;1.3076093107739417;-0.0571020699500356;0.028207097500693123;60.0;53.689924270000006;86.83027883
2.7747415771155115;1.2272493920606091;0.0050983991026817;0.028037023336985066;60.0;53.68970693999999;86.83034821999999
-0.0584043710891531;1.512728350028612;0.0061180789232181;0.027289059154349114;60.0;53.689494939999996;86.8304255
0.1219602624203643;1.55394180036216;0.0336494340776996;0.026869632806478055;60.0;53.68931519;86.83051710999999
0.3200842688029229;2.38953805300307;-0.0020393596410727;0.029761339177519983;60.0;53.689146470000004;86.83062231
0.0551916727226805;2.6923461762382206;-0.0163148771285816;0.031347715555202056;60.0;53.68898576;86.83074064
-2.1099931435479946;2.4607394594739027;-0.0346691138982359;0.028833338916107662;90.0;53.68883218;86.83086866
-0.3650187674235419;2.246419839424843;-0.0392576730906495;0.05888166608024635;90.0;53.68868560999999;86.83100625
-5.635060588820057;2.1558541228146963;-0.0550627103089629;0.06932408496118735;90.0;53.68854625;86.83115361
-4.268875665097412;2.0079649519118354;0.0183542367696543;0.06918986560794681;90.0;53.68841201;86.83130609
-2.285674440672799;1.7962263298508647;0.0183542367696543;0.0694149113010887;90.0;53.68828098;86.83146434
-4.56074619284248;1.6624665536520176;0.1549913327215254;0.07545668948141458;90.0;53.68815651999999;86.83162404000001
-2.402698987171352;1.65167678933944;0.1244009381054349;0.0754566894814146;90.0;53.688043640000004;86.8317902
-2.4580989067749943;1.4304880643700215;0.0127459977567043;0.07373618150249334;90.0;53.68793491;86.83194771000001
-1.7286681566685225;1.3304423256945959;-0.0081574385642908;0.07175953218881725;90.0;53.68782852;86.83208964
-0.8882767747577367;1.3472054443514017;-0.0795350260018354;0.07254012483723896;90.0;53.687730120000005;86.83220628000001
-2.5593287340624493;1.861972187757127;0.0672988681553992;0.07859492695384067;90.0;53.68764297;86.83230345
-2.933822186596086;2.2415435109653408;-0.0163148771285816;0.07475459770540849;90.0;53.687573910000005;86.83238543
-5.124182536672171;3.390423321544368;-0.0367084735393086;0.05633234988524633;90.0;53.68752406;86.83246102000001
-4.411904672288762;3.390423321544368;-0.0081574385642908;0.05633234988524633;90.0;53.68752406;86.83246102000001
-7.135581410922094;3.390423321544368;-0.0723972672580809;0.05633234988524633;90.0;53.68752406;86.83246102000001
0.8514250941918059;3.390423321544368;-0.1386764555929438;0.05633234988524633;90.0;53.68752406;86.83246102000001
5.129262671082313;3.390423321544368;-0.0367084735393086;0.05633234988524633;90.0;53.68752406;86.83246102000001
4.221926788546562;1.1910129751077034;-0.0183542367696543;0.08259282407436132;60.0;53.72312015;86.84177102999999
5.816839773270132;1.1910129751077034;-0.0683185479759355;0.08259282407436132;60.0;53.72312015;86.84177102999999
6.965611935089768;1.1910129751077034;-0.2110737228510247;0.08259282407436132;60.0;53.72312015;86.84177102999999
5.450574175804878;1.1910129751077034;-0.1519322932599164;0.08259282407436132;60.0;53.72312015;86.84177102999999
4.8838857514474325;1.1910129751077034;-0.130519017028653;0.08259282407436132;60.0;53.72312015;86.84177102999999
6.516033411450439;1.1910129751077034;-0.0831039053737126;0.08259282407436132;60.0;53.72312015;86.84177102999999
8.210270715560577;1.1704911997547789;0.0040787192821454;0.08786226328015322;60.0;53.72316711;86.84190758999999
5.011459703011846;1.238840211211235;-0.0163148771285816;0.08902610404886845;60.0;53.723208799999995;86.84206704
5.365241384741049;1.1670535006346028;0.0509839910268175;0.07191536468183907;30.0;53.723249769999995;86.84224369
4.866794724570632;1.17274959304272;0.0071377587437544;0.05646651873358615;30.0;53.72331027;86.84240915000001
4.37328451752476;1.5288759160121856;0.0397675130009177;0.039326731339677505;30.0;53.723377740000004;86.84255342
4.452457577305397;1.5208826455944866;-0.0071377587437544;0.030099463727251856;30.0;53.72345411;86.84267331
4.721934749002206;1.2445702902938762;0.0356887937187723;0.03471922859675823;30.0;53.72354273999999;86.84276706
5.005699882065716;1.3158682319756725;-0.0071377587437544;0.03678329968348883;30.0;53.72364909;86.84284525
8.534525533581258;1.3249702500003147;-0.0336494340776996;0.03353077721393156;30.0;53.72377203;86.84290675000001
6.368569655251074;1.3169073241542433;-0.0356887937187723;0.03545398044869019;30.0;53.72391085;86.84295341
5.851591831678107;1.3667133664806648;-0.0509839910268175;0.028363477624065957;30.0;53.72406416;86.84298896
4.066197962028427;1.5217195510393995;-0.0418068726419904;0.029014425436934818;30.0;53.72422941999999;86.84301342
4.869815586587347;1.6457573210472802;-0.0489446313857448;0.01570733571507678;30.0;53.724399319999996;86.84302716
5.1852791319946165;1.6713218461599466;-0.0601611094116447;0.015460100749767492;30.0;53.72455597;86.84305581
3.870366215559368;1.0847506051811873;-0.0336494340776996;0.015701450613440786;30.0;53.72471790000001;86.84311022
3.073261995850616;0.8574171703559246;-0.061180789232181;0.015731680283388696;30.0;53.72492218;86.8432121
3.163177062240615;0.6673792576958;-0.0428265524625267;0.01632867945445959;30.0;53.72513103;86.84333647
4.077189022363427;0.7411175900870444;-0.0081574385642908;0.02013821035182811;30.0;53.72534683;86.84347547000002
4.205742113308874;0.7102559709061681;-0.0550627103089629;0.019816389993997856;30.0;53.72556696;86.84362136
4.404907556280786;0.6334663814895288;-0.0351789538085041;0.018899716496060363;30.0;53.72579460000001;86.84377476
4.506965202962232;0.8496314204816571;-0.0270215152442132;0.019294445164590442;30.0;53.72603097;86.84393433
5.173364193622603;0.8811550231929225;-0.0040787192821454;0.0174305940106027;30.0;53.72627562;86.84410218
4.332045416697369;0.8742001495972794;-0.0418068726419904;0.01722289894918276;30.0;53.726554869999994;86.84429438999999
3.679152949862925;0.9543716146568063;-0.0520036708473539;0.02065365608741987;30.0;53.72684168999999;86.84449929
2.2669885822247884;1.0038156444208908;-0.0489446313857448;0.02058389847882768;30.0;53.727128879999995;86.84470456
2.810217137487364;1.027138414463234;-0.0356887937187723;0.02286707622871318;30.0;53.72738124;86.84489291999999
3.2462364425516363;1.023598227645206;-0.0356887937187723;0.02353892823414818;30.0;53.72763291;86.84507547
5.079705705490248;0.9430292155205886;-0.0836137452839808;0.02043462557537105;30.0;53.72789111000001;86.84526199
4.9624881907096166;0.9626165428105238;-0.0540430304884266;0.020764391371801718;30.0;53.72817101;86.84546252999999
4.801663830580192;1.0569248442523718;-0.0101967982053635;0.022451552350718162;30.0;53.72844569;86.84566297
3.6566015871607145;0.9426571605680344;-0.0183542367696543;0.028356603425476346;30.0;53.728712789999996;86.84586095
3.534725706734569;1.029785348198086;-0.0326297542571632;0.033061020533463145;30.0;53.72896737999999;86.84605154
4.6040716155361245;1.2112167560975389;-0.0295707147955541;0.03277675447414995;30.0;53.729178790000006;86.84622199
5.280044632307802;1.4637572577466014;-0.0086672784745589;0.02408744038269019;30.0;53.72937585;86.84638321
5.455463336510222;1.5607201747610406;0.0224329560517997;0.020897839767909158;30.0;53.729570839999994;86.8465526
6.662755395877867;1.705033135573825;0.0265116753339451;0.021375544508129292;30.0;53.72975106;86.84671234
7.496498228391717;1.5907924044775157;-0.0152951973080452;0.021640353701928353;30.0;53.72991967;86.84687583
7.761993687042261;1.310442239783971;-0.0122361578464362;0.021808928168857347;30.0;53.73006386000001;86.84703793999999
7.259510456376462;1.0674682530745103;0.0163148771285816;0.020412352726627305;30.0;53.73017221;86.84718725
8.113056735765522;1.3370494846489094;0.0091771183848271;0.022270208280414573;30.0;53.73026893;86.84734029
7.947780772044228;1.935103874324443;0.0163148771285816;0.021793560717275715;30.0;53.730354750000004;86.84751059
8.174882215506488;2.1533454601946955;-0.0336494340776996;0.022723651165561826;30.0;53.73043713;86.84770304999999
6.358256603155431;2.1182947894000033;-0.0183542367696543;0.021727197306673364;30.0;53.730522410000006;86.84790353
4.030007211210576;2.0401472810293613;0.0311002345263587;0.024874115699090506;30.0;53.73061216;86.84810848000001
2.373585219296594;2.0521769381812307;0.0163148771285816;0.032592601535990334;30.0;53.73069451;86.84829579
3.6253359079244167;2.12379780112482;0.0336494340776996;0.036771716315052265;30.0;53.73078213;86.84847300999999
5.704386409443861;2.241372026125066;0.0122361578464362;0.03622571124020895;30.0;53.730874130000004;86.84863925
5.8169749490804445;2.2340093046142586;-0.0346691138982359;0.03597289006673155;30.0;53.7309713;86.84879018
7.418792939066987;2.3177072022338456;-0.0642398286937901;0.03595586501416616;30.0;53.73107539;86.84892755
8.671925502101763;2.180510611810006;-0.0601611094116447;0.03290282758263844;30.0;53.73118792;86.84904776
8.920847073429302;1.69413875003786;-0.0346691138982359;0.03314072712564327;30.0;53.7313088;86.84913792
8.101929950835991;1.4133885622525675;-0.0285510349750178;0.02947582217355663;30.0;53.73143398;86.84919142
8.046222615427698;1.4922334402252326;-0.0163148771285816;0.027277361683968767;30.0;53.73156239;86.84922255000001
6.689301365488407;1.5710779053851782;0.0020393596410727;0.027530306081180816;30.0;53.73169401;86.84922873
5.401366985169001;1.613276552105174;0.0183542367696543;0.023398140374703082;30.0;53.73183167;86.84922559
5.189025773158132;1.4552401080630581;0.0071377587437544;0.016597444816287367;30.0;53.73196991;86.84921279
5.0537490872775015;1.1703852915560027;-0.0183542367696543;0.013823672962286168;30.0;53.73211105;86.84918497
5.067976216660711;1.0888537595770764;-0.0040787192821454;0.019412935210145938;30.0;53.73225148;86.84914364
5.476540918822677;0.9178294103991659;0.003059039461609;0.023712032493626398;30.0;53.73238676;86.84908436
6.06627894761569;0.957539887098459;-0.0050983991026817;0.023586732021228855;30.0;53.732515539999994;86.84900834
6.7195515859005575;0.9512470819385126;-0.0122361578464362;0.02073321108132335;30.0;53.732637950000004;86.84890802999999
7.614778636109412;0.8869749183144717;-0.0530233506678902;0.02163628269834174;30.0;53.73275023;86.84878735
6.963671359173951;0.8343989072850762;-0.0509839910268175;0.021819189185077942;30.0;53.732849169999994;86.84864565000001
7.086461187817645;0.736039595660886;-0.0254919955134087;0.02194984338997598;30.0;53.73293473;86.84846753000001
6.787069025405723;0.7489870166566576;-0.023452635872336;0.021152451683535047;30.0;53.733003069999995;86.84827219
6.020802832774742;0.7071953413492873;0.0132558376669725;0.020256042224345846;30.0;53.73305845;86.84806133
5.438374359178799;0.7341669711882267;-0.0265116753339451;0.02075966166385686;30.0;53.73310199;86.84784375000001
7.098897342001275;0.7344969299097047;-0.037728153359845;0.020451296640705743;30.0;53.733138329999996;86.84761641
7.891065273827722;0.8511846410703021;-0.0040787192821454;0.019501996733531875;30.0;53.7331693;86.84738114000001
6.8703731232629535;0.9388596576369596;-0.0265116753339451;0.021155455381659867;30.0;53.73319559;86.84713350999999
6.223593124268996;1.0247743258819326;-0.0061180789232181;0.021906642254609917;30.0;53.733216160000005;86.84688272
5.800396629985805;1.122470177074505;-0.0509839910268175;0.01674159836528946;30.0;53.733234440000004;86.84662452
5.166251655145241;1.1702014486225776;-0.0438462322830631;0.01671224499003479;30.0;53.73325086999999;86.84635935
4.92131058305935;1.0828617859539695;-0.0489446313857448;0.01658534644150715;30.0;53.733264010000006;86.84611136999999
4.716262862917575;0.7348608732481591;-0.0438462322830631;0.0156728212374384;30.0;53.73327704;86.84585560000001
4.565674994016603;0.5296240455324374;-0.0244723156928724;0.017167891146750748;30.0;53.73328839;86.84559303
4.7666606639496605;0.5184152792021032;-0.0275313551544814;0.013519999985452755;30.0;53.73329847;86.84531895
5.328562529131362;0.6007630146232492;-0.0280411950647496;0.013339349580722954;30.0;53.73330544;86.84501104
5.490679557406795;0.6044278727855978;-0.0571020699500356;0.013340107366069994;30.0;53.733308650000005;86.84470449
5.578771583712157;0.6289625598323064;-0.061180789232181;0.013344869602936986;30.0;53.73330817;86.84439425000001
6.167507844936103;0.6719139885992925;-0.058121749770572;0.013535692185441036;30.0;53.73330584;86.84408472
6.327201955643533;0.7113035193067092;-0.0458855919241358;0.01190645700481475;30.0;53.73330131;86.84377811
5.577333537067958;0.8186630749203971;-0.0443560721933312;0.012770220460269575;30.0;53.73329552;86.84346256
6.11427402189226;0.878297785389614;-0.037728153359845;0.01222210557623761;30.0;53.733290239999995;86.84313984
4.429291120288787;0.935658066156465;-0.0499643112062812;0.012281510917947807;30.0;53.73328687000001;86.84280623
4.315835800972144;0.9865898927322252;-0.0509839910268175;0.013933136968080979;30.0;53.73328762999999;86.84246395
4.0137681150929065;0.8863770480325124;-0.0734169470786173;0.014609876566933657;30.0;53.73329496;86.84211031999999
4.328971235079746;0.735753135370091;-0.07545630671969;0.018046700493844426;30.0;53.73331045;86.84178277
4.146828329379484;0.6437292359872899;-0.0509839910268175;0.022366488269809772;30.0;53.73333811;86.84144435
3.923368232462379;0.2639033352401421;-0.032119914346895;0.0276093467053934;30.0;53.733377759999996;86.84111024
4.78481539980213;0.2701697668516494;-0.0356887937187723;0.028137795258872132;30.0;53.73344572;86.84074556
3.9547950887674985;0.2995477012319888;-0.0163148771285816;0.027729177780889205;30.0;53.7335277;86.84038722
4.3409949841374775;0.37224758817156767;-0.0050983991026817;0.02400336067890074;30.0;53.73361891999999;86.84004324
4.429821441842634;0.4655371541492084;0.0081574385642908;0.01800480151156342;30.0;53.73371423;86.83970847
4.505790947057111;0.5788107367500112;-0.0152951973080452;0.01591421177462772;30.0;53.7338115;86.83936286000001
4.681586400486472;0.6367495545152543;-0.0428265524625267;0.01588432948648633;30.0;53.73390723999999;86.83900036
3.571114565605449;0.5829568116342742;-0.0295707147955541;0.02115436317714269;30.0;53.73399661;86.83863149
3.37314562779348;0.6576554048369307;-0.0336494340776995;0.020849896741054124;30.0;53.734083610000006;86.83824489
3.08595481980362;1.0527201708640042;-0.0326297542571632;0.026323631386986405;30.0;53.73416883;86.83785907
3.2270206107281925;1.1390957336515786;-0.0316100744366268;0.026610843281583235;30.0;53.73425128;86.8374628
3.571591879290664;1.0684339775313467;-0.0683185479759355;0.027068823743029338;30.0;53.73429721;86.83703769
2.898403637154826;0.9164687154276017;-0.0254919955134087;0.02857045084599689;30.0;53.73430991;86.83658446999999
1.0288085865388417;0.8898929782846274;0.0265116753339451;0.028632049322107164;30.0;53.734294999999996;86.83611388
1.5637238400505304;0.8732704717280518;0.0101967982053635;0.02859066169079184;30.0;53.73425524;86.83563124
3.841027758931369;0.9453421094138803;-0.0438462322830631;0.028563980355404115;30.0;53.73418239;86.83515903
3.272357339821432;0.9659350198185416;-0.0591414295911083;0.030370562392425304;30.0;53.7340794;86.83471555999999
2.9543637439605197;0.9133625021081628;-0.0346691138982359;0.026755667917613715;30.0;53.733945330000005;86.83430501000001
2.898878403693625;0.9003698281681473;-0.0285510349750178;0.027415927128771247;30.0;53.7337672;86.83392976
1.6277073824270278;0.8185456954683993;-0.0265116753339451;0.022726891995536843;30.0;53.73354938;86.8335865
1.7614957158720104;0.838135910295484;0.0050983991026817;0.018974448762671223;30.0;53.73329306000001;86.83327642
1.860727460598196;0.8551158270598653;-0.0020393596410727;0.023123736531191385;30.0;53.73300429;86.83304909
1.983373753139192;0.8495492900168488;-0.037728153359845;0.02430082403757913;30.0;53.73270336;86.83287104000001
3.1419768142848805;0.9264834801035574;-0.0387478331803813;0.0244288462790169;30.0;53.73239247;86.83272911
3.770439541143081;0.8779347339506415;-0.0254919955134087;0.02436847514455262;30.0;53.73207267;86.83261667
1.2206546594955132;0.8915869325095597;-0.0723972672580809;0.024405189123423116;30.0;53.731751759999995;86.8325364
1.4965484738882693;0.9121704528693922;-0.0672988681553992;0.020974747537983403;30.0;53.73143099;86.83246907
0.8022485564470442;0.9221728678549449;-0.040787192821454;0.017276477858979858;30.0;53.73111279;86.83240943
1.9778338749902769;1.0198697630222813;-0.0336494340776996;0.019053739054653365;30.0;53.730804379999995;86.83235189999999
1.3840843009490431;1.1008154960485348;-0.0254919955134087;0.01908282042470817;30.0;53.73049717;86.83229045
1.3189941842991526;0.7983945068272978;-0.020393596410727;0.02340677933901068;30.0;53.73018019;86.83222179
1.4694708561144172;0.8495640635091347;-0.0336494340776996;0.02142783813449766;60.0;53.729864199999994;86.83214644
0.457853802976008;0.9477765060657951;-0.0142755174875089;0.01868640359933844;60.0;53.72954663;86.83206439
-0.522010954525721;1.225298128298051;-0.040787192821454;0.018534626723771545;60.0;53.72922258;86.83197586
-0.1830492490260033;1.0781942559416153;0.0061180789232181;0.02310374367207456;60.0;53.728860850000004;86.83185733
-0.0576559375409339;0.9851298057464722;-0.0601611094116447;0.02335737079119911;60.0;53.72848838;86.83172038000001
-0.7909457391075173;0.9800676879027628;-0.0479249515652085;0.023943545168760395;60.0;53.72811867;86.83157851000001
-1.905900416350635;0.9551409246777898;-0.037728153359845;0.02381291400962963;60.0;53.72774542;86.83142542
-0.0299636389200757;1.0705401036550761;0.0132558376669725;0.023781844386665356;60.0;53.72735288;86.83125048000001
-0.2934862345463041;1.0556542483422091;-0.0152951973080452;0.023602645101433575;60.0;53.72695562;86.83106314
-1.698400140496713;1.030735476328363;-0.0081574385642908;0.022905881550367754;60.0;53.72656868;86.83087588
-2.46315490435868;0.9579685613642921;-0.0152951973080452;0.027138088741582383;60.0;53.72619037;86.83070237000001
-2.916146366603165;1.1879312100578516;-0.0305903946160905;0.030790091001392433;60.0;53.725815110000006;86.83054215
-1.4249566447300823;1.2846635184294946;-0.0050983991026817;0.03342034207751426;60.0;53.72544034;86.8304029
-0.4511398578628292;1.3986574187251235;-0.0458855919241358;0.03195358339143954;60.0;53.72509663999999;86.83030751999999
-0.9146441342205706;1.6263465522151608;-0.0815743856429081;0.03709184140751419;60.0;53.724759070000005;86.83024643
0.9450927260897782;1.7560005870819142;-0.0764759865402263;0.03763402943200374;60.0;53.72441302;86.83020502
0.7512071292854269;1.868712593001207;-0.0713775874375446;0.03823519848995251;60.0;53.72406022;86.8301927
1.0312080304643036;1.5521048279237153;0.003059039461609;0.03824003257537418;60.0;53.72372571;86.83021403000001
1.878183395259928;1.4527131083121159;0.0265116753339451;0.040633384353787334;60.0;53.72336732;86.83024988
2.070029610604165;1.4681186723288355;-0.0010196798205363;0.040860204527427606;60.0;53.72301059;86.83028739
3.37789523196416;1.2103644490623857;-0.058121749770572;0.03850692283230299;60.0;53.72265037;86.83029837
2.5480037600752223;1.1063757216156083;-0.0387478331803813;0.03906259582898916;30.0;53.7222957;86.83027906
3.288140815448616;0.9412064063352628;-0.092790863668808;0.03594457745848952;30.0;53.721952869999996;86.83022294999999
3.882769118201515;0.7676238135534438;-0.0295707147955541;0.035564110240053105;30.0;53.72162154;86.83013994000001
3.8637113087101977;0.6303163190532658;-0.0295707147955541;0.032524074585068286;30.0;53.721301000000004;86.83003443999999
2.795259776666469;0.49596390562653847;0.0163148771285816;0.03176502224249633;30.0;53.72097849000001;86.82991928999999
3.527216969507008;0.517711905031778;-0.0285510349750178;0.03025622933859196;30.0;53.72066321999999;86.82979089999999
4.031536169072654;0.4349346998642408;-0.0020393596410727;0.03250008934157675;30.0;53.72034917;86.82966117
3.325358186138106;0.46426168522649736;0.003059039461609;0.021074753450579846;30.0;53.72006737;86.82953553
2.887280495278105;0.46698985696394574;-0.0458855919241358;0.020751938795184468;30.0;53.719789520000006;86.82941896
3.820277830319817;0.9717813368771143;-0.0275313551544814;0.019880197470315723;30.0;53.719493850000006;86.82933321
3.1731603827981925;1.5390521594298339;0.0132558376669725;0.020868519739765716;30.0;53.719192969999995;86.82927297
2.9308338293502363;1.8414850685491428;-0.0173345569491179;0.020274925791901596;120.0;53.71888319;86.82924991
3.9070954129640314;2.4553665854380533;-0.0015295197308045;0.020560101691258673;120.0;53.71856597;86.82925781
0.6391019470507983;2.6881980529505625;-0.0152951973080452;0.027935474359308963;120.0;53.71821748;86.82929844
-0.6515650128079425;2.934731456685885;0.0224329560517997;0.024416133406989844;120.0;53.717876579999995;86.82935690000001
-0.6357640844285019;2.8157894255482967;-0.0214132762312633;0.023307114006216448;120.0;53.71753954;86.82943202000001
-3.3128784485203404;2.6425047819563785;-0.023452635872336;0.02993956223163547;120.0;53.71720619;86.82952107
-2.534171132715552;2.385520217897581;0.0489446313857448;0.036141540790663666;120.0;53.716871950000005;86.82962459000001
-3.445893205244037;1.4429439929813606;-0.0091771183848271;0.038013723579876035;120.0;53.71653377;86.82974209
-2.766296457526958;1.0478646700713754;-0.014785357397777;0.038310095962369874;120.0;53.716207759999996;86.82986664
-2.926983523980189;0.8280663940751332;-0.0652595085143265;0.041380836996147474;120.0;53.71587853;86.83000333
-3.5400986882751244;0.966952295053689;-0.0734169470786173;0.04200347248573327;120.0;53.715546630000006;86.83014247000001
-2.7358401462775976;2.0795421418964852;-0.0571020699500356;0.041630509158158045;120.0;53.71520858;86.83028826
-2.2867641833440158;2.479750357293746;-0.037728153359845;0.02745787581951434;120.0;53.71489200999999;86.83043248999999
-2.83035146241858;2.6477904104917145;-0.0989089425920261;0.023636699755882312;120.0;53.714575720000006;86.83057699999999
-0.1451239154336956;2.765455684680984;-0.0642398286937901;0.01976794265809497;120.0;53.714257329999995;86.83071941
3.288946702753033;2.8866380853461306;-0.0387478331803813;0.019942497415731508;120.0;53.71392367;86.83085423
2.3817954185618704;2.6861321164887073;-0.0367084735393086;0.01893178073304077;120.0;53.71359455;86.83098078999998
2.3607247905567217;2.351744163420775;-0.0622004690527174;0.019209533771842775;120.0;53.71327884;86.83109771999999
2.537516889071746;2.135839696934743;-0.0418068726419904;0.018486257395973243;120.0;53.71298308;86.83120388
3.739098493435712;1.8571833218668237;-0.0448659121035994;0.01932465889289931;120.0;53.71268487;86.83130759
3.311499514354289;2.24589954113645;-0.0540430304884266;0.018270962838606176;120.0;53.71239546;86.83140474
1.1811305589271957;2.3100480810854043;-0.0642398286937901;0.018487897782462948;120.0;53.71211174;86.83148966
-0.8250746690192501;2.2534910789479032;-0.0479249515652085;0.020102683008417402;120.0;53.71182904;86.83155256
-1.4863825576682073;2.1900206079158586;0.0010196798205363;0.01931127794954654;120.0;53.71154284000001;86.83160172000001
-2.6241952484640767;2.075412097388489;-0.0367084735393086;0.019347736063443276;120.0;53.711256739999996;86.83163306
-1.5434828706259005;1.8307162514233746;-0.0331395941674314;0.019552654141057158;120.0;53.71098472;86.8316452
1.0822543160939784;1.6659214613028732;-0.0683185479759355;0.020740801672297225;120.0;53.71070993000001;86.83164177
0.0578037460703816;1.7668096554326485;-0.0499643112062812;0.021024603898400343;120.0;53.710425380000004;86.83161578
0.1710730019017007;1.8998914987008184;-0.0397675130009177;0.021106318644389846;120.0;53.710113220000004;86.83156218
2.1586841614723884;1.8309095955503294;-0.0346691138982359;0.01732997444879294;120.0;53.70981775;86.83149711
2.36403730303799;1.669917927032521;-0.0163148771285816;0.017396510085169143;120.0;53.70952894;86.8314259
2.171692213757453;1.2651710841217476;-0.0061180789232181;0.018631918757323476;120.0;53.709233600000005;86.83136096
2.7229565866801506;1.2336717637439043;-0.0489446313857448;0.015766065909547225;120.0;53.70895092000001;86.83131124
2.256807324805878;1.0392053309825928;-0.0356887937187723;0.015023128890586948;120.0;53.70868077;86.83126893
4.359833277558125;0.8328008366389285;-0.0418068726419904;0.015479517365452045;120.0;53.70842349000001;86.83124204999999
1.519533197696467;1.094243772431882;-0.0163148771285816;0.02078420270380073;120.0;53.708170280000004;86.83123459999999
2.0823572589815247;1.7646946482702084;-0.0142755174875089;0.021574589993440158;120.0;53.70791386;86.8312521
2.6159164274619284;1.923209554677042;-0.0438462322830631;0.018771296497344554;120.0;53.7076418;86.83129748
1.2756316278678943;1.94348303787771;-0.0448659121035994;0.02693367358855426;120.0;53.7073747;86.83136318
0.1193980875565357;1.9129407322037073;-0.0739267869888855;0.028125475238757018;120.0;53.707084959999996;86.83141904
-2.2597251394477182;1.5080508001872828;-0.0632201488732537;0.028115204431393353;120.0;53.70678069;86.83146549
-0.8446891893966495;1.4771002783783913;-0.0285510349750178;0.026461569986278875;120.0;53.706480510000006;86.83148787
-0.4943737312116654;1.3790460079096512;-0.1019679820536351;0.023871605010985675;120.0;53.7061757;86.83149282
1.6929485841110044;1.1897883786651378;-0.0193739165901906;0.024249961854225927;120.0;53.70586965;86.83148116999999
0.8066151486605612;1.2253676113410095;-0.0428265524625267;0.030992274973622197;120.0;53.70556251000001;86.83144795000001
0.6361494819327375;1.2290270526198568;-0.037728153359845;0.04498946827447521;120.0;53.70526182;86.83139302
0.172228689617945;0.9459673051318671;-0.0458855919241358;0.045383198502669204;120.0;53.70497943;86.83129495
1.286507326926223;0.8099992949399432;-0.0356887937187723;0.04529962589735844;120.0;53.70473284;86.83115332
1.602337267500682;0.648568745271267;-0.1111451004384623;0.0466657496949321;120.0;53.704529230000006;86.83097787
-0.0555266569817618;0.6203381457828941;-0.1590700520036708;0.045322062942219375;120.0;53.704371259999995;86.8307815
1.8165449876159456;0.6536683798513357;-0.0836137452839808;0.04513854335916438;120.0;53.70424819;86.83056882999999
1.4731543744457023;0.6585005441005253;-0.1121647802589986;0.04712200714523052;120.0;53.704159860000004;86.8303397
0.8930114955224808;0.7671775006541004;-0.0254919955134087;0.0491378005329559;120.0;53.70409381;86.83008421
1.383804640437723;0.7829700592839289;-0.0326297542571632;0.048538020949785134;120.0;53.70404078;86.82980334
1.7098005095947026;0.8152611304918577;-0.0458855919241358;0.048670058311189264;120.0;53.703989990000004;86.82950679
1.7078717445486666;0.7829763193446289;-0.0173345569491179;0.03459589287744901;120.0;53.70393332;86.82920436
3.001508404929483;0.7728351441997572;-0.0193739165901906;0.03410473761393744;120.0;53.70386833;86.82892945
0.9632949728403424;0.7964358011900842;-0.0469052717446721;0.02271246357332631;120.0;53.703777869999996;86.82869563
0.694437616939934;0.8080235393690284;-0.0081574385642908;0.02260539425004053;120.0;53.703664960000005;86.82851104
0.1182568081817905;1.0204719610810233;-0.003059039461609;0.02447001422394692;120.0;53.70352250999999;86.82836859
1.0415038413500717;1.6267315021754716;-0.0800448659121035;0.02930783828768651;120.0;53.70335404;86.82826668
0.6405695254121968;1.6459790135386787;-0.0418068726419904;0.03142354214517939;120.0;53.70316489;86.82820296999999
0.6906570512042045;1.3764907243997628;-0.0305903946160905;0.030177900474401415;120.0;53.70296239;86.82818223
-0.8078431383924871;1.3813447704564137;-0.0622004690527174;0.03823916399568885;120.0;53.70274314000001;86.82820362
-3.193764114524595;1.5276132566307536;-0.0866727847455898;0.035650940285669175;120.0;53.702516530000004;86.82825349
-1.2230954206678308;1.6232416604250968;-0.0856531049250535;0.029142999104755707;120.0;53.70229260999999;86.82830349
1.143706563641573;1.7090936428260444;-0.061180789232181;0.038486966509401595;120.0;53.7020712;86.82833808000001
1.024510137815621;1.9204219551794577;-0.1254206179259712;0.03729684062670971;120.0;53.70186212;86.82834916
2.1345170172261385;2.0717060928925446;-0.0989089425920261;0.03512267040432206;120.0;53.70164991;86.82833151
1.8975585871761211;1.9795606771555811;-0.1050270215152442;0.036083957418464645;120.0;53.70143023000001;86.82829615
2.121091910657781;1.2561270143271188;0.0020393596410727;0.0386469264160535;120.0;53.70121271000001;86.82824246999999
3.1990317220618643;0.9994850577905435;-0.0795350260018354;0.04022834691539942;120.0;53.700993919999995;86.82817472
3.157070259518763;0.9915285789014683;-0.0520036708473539;0.043012953233909856;120.0;53.700760700000004;86.82809766
1.3876732283801678;1.2087914417541068;-0.0469052717446721;0.03831141525908036;120.0;53.700533240000006;86.82801868
1.435915620528518;1.2107600814091275;-0.0265116753339451;0.0362039789736531;120.0;53.70030812;86.82793691999998
-0.1158289278404351;1.3053763012949526;-0.0254919955134087;0.03215900526158825;120.0;53.700091480000005;86.82787388
1.2769924867405282;1.9862069656362493;-0.1101254206179259;0.028399349182942384;120.0;53.69987227;86.82782875000001
-0.4983390886276703;1.9568449976388445;-0.0397675130009177;0.027873372680001354;120.0;53.69965984;86.82779552
0.9069401997606916;1.9957249294993755;-0.07545630671969;0.027950358230776517;120.0;53.69946082;86.82776546
-0.1821511016750048;2.217919041985108;-0.0356887937187723;0.031550125104807425;120.0;53.69928828;86.82772603999999
6.001858346582365;2.525340059688264;-0.0851432650147853;0.030150324740284666;120.0;53.6991416;86.82766896000001
0.1520810707355873;2.5381005139043205;-0.0723972672580809;0.028734604280067813;120.0;53.699020170000004;86.82761665000001
-1.2059301071931237;2.514019167490956;-0.0489446313857448;0.04080450246206197;120.0;53.698931730000005;86.82757173
-2.240883248824085;2.888908743672322;-0.0101967982053635;0.048111439632453526;120.0;53.69885932;86.82753516
-3.487620414575428;3.048931693737366;-0.0550627103089629;0.046694489175096145;120.0;53.69880161;86.82750561
0.9077303683607226;3.048931693737366;-0.0418068726419904;0.046694489175096145;120.0;53.69880161;86.82750561
0.6007858414111743;3.048931693737366;0.0571020699500356;0.046694489175096145;120.0;53.69880161;86.82750561
-4.387235719181676;3.048931693737366;0.0397675130009177;0.046694489175096145;120.0;53.69880161;86.82750561
-3.7855114162949777;3.048931693737366;-0.058121749770572;0.046694489175096145;120.0;53.69880161;86.82750561
1.825694349498196;1.440331280911501;-0.0632201488732537;0.06755339263607003;90.0;53.7246614;86.84375004
-0.2164858310139108;1.440331280911501;-0.037728153359845;0.06755339263607003;90.0;53.7246614;86.84375004
0.2420729986780756;1.440331280911501;-0.0295707147955541;0.06755339263607003;90.0;53.7246614;86.84375004
4.363190094696185;1.440331280911501;-0.0387478331803813;0.06755339263607003;90.0;53.7246614;86.84375004
3.585943949968963;1.440331280911501;-0.1733455694911797;0.06755339263607003;90.0;53.7246614;86.84375004
1.3886960528115055;1.440331280911501;-0.1631487712858162;0.06755339263607003;90.0;53.7246614;86.84375004
3.296776138144942;1.4770656315909068;-0.1315386968491893;0.06517660687234951;90.0;53.72457932;86.84361932
2.428278618036988;1.2520163762073566;-0.1718160497603752;0.05960636926036806;90.0;53.72453724;86.84350044
2.143416337097627;1.021125751269344;-0.1774242887733251;0.05106405799612118;90.0;53.72451923;86.84340307
1.4487068519425386;0.9743434382045715;-0.1942490058121749;0.051172848494732734;90.0;53.72452652;86.843331
3.140586707352748;0.9746633389072368;-0.147853573977771;0.06186571131604637;90.0;53.724561519999995;86.84328408
3.4289676110343987;0.8213327292989547;-0.0836137452839808;0.06725207364580411;90.0;53.72463235;86.84326275
3.946620696681281;0.8274604620493536;-0.0851432650147853;0.06987192232172895;90.0;53.72474649000001;86.84326681
4.040230036474823;0.8323045608612086;-0.0382379932701131;0.06707716464702239;30.0;53.724897369999994;86.84329481
3.589935453332304;0.7586571162129382;-0.0152951973080452;0.05908819964196592;30.0;53.72508653;86.84334829
3.1569158271027336;0.36356559048939924;-0.020393596410727;0.04388142609560763;30.0;53.725295499999994;86.84343182
3.447128219034282;0.37392339970001315;-0.037728153359845;0.033906164193048136;30.0;53.725533670000004;86.84356247
3.9238167868852583;0.47689461734718197;-0.0336494340776995;0.030974563715821905;30.0;53.72576273;86.84370961
3.8731898153925615;0.5784561088915404;-0.1019679820536351;0.02696341440115508;30.0;53.72600113;86.84386353
4.131144866163493;0.543007534702936;-0.0219231161415315;0.02720255925615296;30.0;53.726250230000005;86.84402559
3.0786654017582054;0.560949719355249;-0.003059039461609;0.026512165560095682;30.0;53.72650732000001;86.84419308
2.7164627314983587;0.5606197158824797;-0.0346691138982359;0.026512165560095682;30.0;53.726768560000004;86.84436472
2.442464619233032;0.5619609524884084;-0.0173345569491179;0.02670969710587136;30.0;53.72702865;86.84454288999999
3.5906716452122462;0.5396836079644702;-0.0448659121035994;0.02846233273246299;30.0;53.7272877;86.84472258000001
3.868327252281168;0.6039669308418767;-0.0305903946160905;0.013800776117617234;30.0;53.72753919;86.84490495000001
3.163245957945895;0.5544840714566901;-0.020393596410727;0.014316327275306923;30.0;53.72778789;86.84508197
3.5463668726253537;0.5499413867846541;-0.023452635872336;0.014466841588798887;30.0;53.72801611;86.84524107
3.605805520527988;0.5953344163091622;-0.0020393596410727;0.014154014595108542;30.0;53.728243369999994;86.84539409
4.354078011319788;0.45198406800334484;-0.0081574385642908;0.016457644938889487;30.0;53.72846642;86.84554802
3.3783525276506468;0.4673132243339061;-0.0326297542571632;0.016006050266420727;30.0;53.72868211;86.84569715
3.166817973489503;0.8750607940354264;-0.0020393596410727;0.016172992022792206;30.0;53.728889360000004;86.84583528
4.491168935044644;0.9108343512439596;-0.0091771183848271;0.01714659661230947;30.0;53.72908575;86.84596767000001
3.891170464114989;1.2225226876692745;-0.0458855919241358;0.02078885736374865;30.0;53.729268160000004;86.84609376
4.114889606542936;1.3517068988309056;0.003059039461609;0.02594456809984463;30.0;53.729436989999996;86.84621139
6.088524975869601;1.579521350152551;0.0010196798205363;0.03094055768468437;30.0;53.72959319;86.84632663
5.280147240083056;1.490990093847072;0.0061180789232181;0.03433443641239559;30.0;53.729739730000006;86.84644501
6.93993310778259;1.2549389517558593;0.0295707147955541;0.034128399078375865;30.0;53.72987508;86.846565
6.727333672562727;1.1973812802764432;0.0428265524625267;0.03342189760129895;30.0;53.72999787;86.84669290999999
7.538269269243586;0.9799598243800053;0.0530233506678902;0.023676683406609254;30.0;53.73010762;86.84682314
6.458803888435099;0.6265616781646061;0.0713775874375446;0.02119255684323523;30.0;53.730204119999996;86.84695804
5.981469566158324;0.6317207424176837;0.0316100744366268;0.019447123669149222;30.0;53.730287950000005;86.84710842999999
6.63178472297698;0.9271635914971589;0.0428265524625267;0.01690230161528284;30.0;53.73036165;86.84727429
6.955141662619032;1.1734943574405456;0.0509839910268175;0.027715165133691537;30.0;53.73043103;86.84746399
6.766630294173025;1.3788995195486922;0.0397675130009177;0.03147070332713537;30.0;53.73050395;86.84768283
6.027142422468574;1.2529774829041729;0.0112164780258998;0.038192874143215046;30.0;53.730584580000006;86.84790938
4.113007914158985;1.2496663327142197;0.023452635872336;0.04099358067863202;30.0;53.73067185;86.84813745
4.006867524469061;1.2689405283910042;0.1111451004384623;0.04448110951318532;30.0;53.73076443;86.84835290999999
3.666363352731798;1.3238594091372908;0.095849903130417;0.04471321527582492;30.0;53.730858590000004;86.84854947000001
5.027999703985991;1.3604892491546112;-0.0152951973080452;0.04575524023763125;30.0;53.730957110000006;86.84872991
6.4162418967607415;1.391724744833247;-0.0112164780258998;0.046389642082225784;30.0;53.73106211;86.84889891
6.352300482247328;1.5080634981453154;-0.0163148771285816;0.046429470926483044;30.0;53.731174640000006;86.84904472000001
7.138873910457956;1.4309428583390293;0.0142755174875089;0.04777707474771429;30.0;53.731307470000004;86.84915450999999
7.261181161278565;1.3860469144425183;-0.0101967982053635;0.03697251479194657;30.0;53.731449299999994;86.84922466
7.081028222118823;1.2684575159403921;-0.0071377587437544;0.024119493437147407;30.0;53.73159535999999;86.84925296
7.544178342148555;1.2637244818670643;0.0316100744366268;0.023046668871936574;30.0;53.73174187000001;86.84925611
4.8283141173443385;1.2575838644296784;0.0571020699500356;0.022682878898194238;30.0;53.73189045;86.84923317
4.326288561117868;1.2594517065148643;0.0183542367696543;0.021108713206309523;30.0;53.73203955;86.84919539
4.376341311318584;1.2842888196326392;-0.0020393596410727;0.021464737897545414;30.0;53.73218961;86.84914321
5.082888188717952;1.2304992381332234;0.0152951973080452;0.021914287678130466;30.0;53.732338129999995;86.84907413
6.137717323029966;1.1739029604828164;-0.0071377587437544;0.022964563982153113;30.0;53.732484639999996;86.84898000000001
6.410193294993728;1.0223728332115047;0.0010196798205363;0.021434576406163947;30.0;53.73262611;86.84886546999999
7.371028326809613;1.011760470477808;-0.0020393596410727;0.0132357775004412;30.0;53.73274669;86.84873773000001
6.60115364453524;0.8491863381652022;-0.0142755174875089;0.012028572757114074;30.0;53.73285437;86.84858941
6.236463345413688;0.5910693214046824;-0.0173345569491179;0.01236950031587611;30.0;53.73294763;86.84842155
5.918033043134168;0.45436360961343825;0.003059039461609;0.01162812593276005;30.0;53.733026689999996;86.84824205
6.715074618931161;0.43741957739146836;0.0214132762312633;0.01213376141991922;30.0;53.73308908;86.848051
6.411373797321824;0.4636745806980555;0.0061180789232181;0.0121869632597363;30.0;53.733136609999995;86.84785277
6.071518719289551;0.5523434726888597;0.0101967982053635;0.01215516514341638;30.0;53.733174139999996;86.84764709999999
7.051821603250969;0.6565255252894193;-0.0071377587437544;0.010791276888200597;30.0;53.73320367;86.84743087
6.596946829299108;1.055227978623554;0.0132558376669725;0.013505786570109847;30.0;53.73322537;86.84720681
7.059417501721831;1.225053869882152;0.0050983991026817;0.016781230031035273;30.0;53.73324226;86.84694466
5.24181723873602;1.3397261961032332;-0.0010196798205363;0.014964956978179721;30.0;53.733256530000006;86.84667221
5.220520132799325;1.3207429437984388;0.0071377587437544;0.014803512960233885;30.0;53.73326712000001;86.8463884
3.641566482121784;1.3048941034308135;-0.0285510349750178;0.015291797997566988;30.0;53.733275739999996;86.84610262000001
4.031495139976664;1.131226334121606;-0.0285510349750178;0.016275529520289357;30.0;53.73328208;86.84580688000001
3.711584228735068;1.0291867242942516;-0.0020393596410727;0.01549555503517256;30.0;53.73328944;86.8455096
4.687532521356574;0.7314380336360669;-0.0101967982053635;0.016811493770734775;30.0;53.733297500000006;86.84520533999999
4.739195919417163;0.7740655734166946;0.0142755174875089;0.01631346084513534;30.0;53.73330287;86.84489327
5.097865921252663;0.8006350228096936;-0.0214132762312633;0.015187183041194308;30.0;53.73330606;86.84458670000001
5.791563782577969;0.7641164449141764;-0.020393596410727;0.014723696419081932;30.0;53.73330793;86.84428392999999
5.314556977023496;0.9801933806448901;-0.0356887937187723;0.014860762069735235;30.0;53.7333078;86.84401756
5.664006970052945;0.9341293274345437;-0.0152951973080452;0.018873184233514976;30.0;53.73330510999999;86.84375375
5.54665516613255;0.9626485646627988;-0.0305903946160905;0.021123279973296532;30.0;53.733302720000005;86.84349792
6.026491861455982;1.0459295051578883;-0.0183542367696543;0.018570198942434682;30.0;53.733299239999994;86.84323588000001
7.428889251619863;1.0730336024373588;-0.0010196798205363;0.020149178857274908;30.0;53.733297300000004;86.8429293
3.963380730948834;1.12574982930176;-0.0545528703986948;0.0222624256212326;30.0;53.73329777;86.84260977
4.406149038672264;1.1271253820608271;-0.0520036708473539;0.025910091215471276;30.0;53.73330217;86.84228393000001
3.9849965969450505;1.166026145458322;-0.0550627103089629;0.02839894238395538;30.0;53.73331409;86.84195025
4.549539068401171;1.1399356264498361;-0.058121749770572;0.030051688332993123;30.0;53.73333537999999;86.84161058
3.985470272252409;1.1037911016460291;-0.0020393596410727;0.03325404514905882;30.0;53.7333665;86.84126538000001
4.753655575451849;0.42759475461143265;0.0101967982053635;0.03719778226818925;30.0;53.73341319;86.84091014999998
3.782929885887684;0.43295152047618546;0.0101967982053635;0.034340997084572444;30.0;53.733472219999996;86.84055957999999
4.864386677436936;0.43360352664018453;0.0071377587437544;0.030715521558490423;30.0;53.733544280000004;86.84021435999999
3.575344329476756;0.46581438029599725;0.023452635872336;0.026122075125796937;30.0;53.733630600000005;86.83988084
4.360134262350027;1.2559839351538022;0.0367084735393086;0.02452041996161841;30.0;53.73372492;86.83959372
4.6106399884611164;2.5565361778021023;-0.0020393596410727;0.036434275983710226;30.0;53.73381556;86.83931828
4.122196965764718;2.6469847674591986;-0.0071377587437544;0.04899464567512758;30.0;53.73389978;86.83905689999999
4.907711809108514;2.6610401833863464;-0.023452635872336;0.05487450320990827;30.0;53.73397712999999;86.83882193
0.6340731107833603;2.7303727224913894;0.0632201488732537;0.05796351381558712;60.0;53.734047280000006;86.83860536
-3.0848502310316674;2.6946269904077345;-0.0734169470786173;0.05749124169465214;60.0;53.734107789999996;86.83841242999999
0.3493982506431696;2.5839286196406688;-0.0999286224125624;0.05335894097886536;60.0;53.734151;86.83825596
4.086157445498089;2.4120510797991552;-0.0887121443866625;0.05214177737240633;60.0;53.734181005;86.83812212500001
-0.346057885788181;2.2566040346318355;-0.0836137452839808;0.04915789825039042;60.0;53.734199715;86.838007715
2.1401090128928133;1.9041719354061064;-0.0800448659121035;0.0484839615962308;60.0;53.734209275;86.837909755
1.746696323706225;1.9011146405646386;-0.0876924645661262;0.02565665187510969;60.0;53.73420996;86.83783876
2.2282481889627856;1.2348875553532588;-0.090241664117467;0.02952790413560391;60.0;53.734210329999996;86.83779305
1.7473044883145046;1.1724009480211615;-0.0703579076170082;0.03084313749202328;60.0;53.73421327;86.83776271
0.6382136614439411;1.867711343399228;-0.0316100744366268;0.033049661879830404;60.0;53.73421664999999;86.83774817
0.8075438252747335;1.8307946796095873;-0.0224329560517997;0.0322729065916653;60.0;53.73421867;86.83773994999999
1.3344556535396892;1.8307946796095873;-0.0265116753339451;0.0322729065916653;60.0;53.73421867;86.83773994999999
1.8325089934784549;1.8307946796095873;-0.0193739165901906;0.0322729065916653;60.0;53.73421867;86.83773994999999
6.699074095132979;1.8307946796095873;-0.0076475986540226;0.0322729065916653;60.0;53.73421867;86.83773994999999
4.313987090322504;1.8307946796095873;-0.0214132762312633;0.0322729065916653;60.0;53.73421867;86.83773994999999
-2.747950870860538;3.0984184470258134;-0.0632201488732537;0.05271075142905846;90.0;53.724711709999994;86.84424067
-3.3254195280381813;3.0984184470258134;-0.078515346181299;0.05271075142905846;90.0;53.724711709999994;86.84424067
1.0617020218271762;3.0984184470258134;-0.0224329560517997;0.05271075142905846;90.0;53.724711709999994;86.84424067
2.926168187023522;3.0984184470258134;-0.078515346181299;0.05271075142905846;90.0;53.724711709999994;86.84424067
0.2346913448551479;3.0984184470258134;0.0326297542571632;0.05271075142905846;90.0;53.724711709999994;86.84424067
0.4852842480583606;3.0984184470258134;-0.0316100744366268;0.05271075142905846;90.0;53.724711709999994;86.84424067
-1.7528282523495424;2.8694626624501716;-0.0458855919241358;0.06814491411788423;90.0;53.72463553;86.84406209
2.386420130372698;2.3413792304427155;-0.1177730192719486;0.07278312689643783;90.0;53.72457641999999;86.84388265999999
5.672421224888985;2.4291260648494712;-0.1402059753237483;0.07073733511184031;90.0;53.72454244000001;86.84371300000001
5.213245841640733;2.5372988936682614;-0.1233812582848985;0.07496939261110355;90.0;53.72453282;86.84356770000001
3.3882314218568164;2.465969068782208;-0.2039359641072703;0.06492264039841933;90.0;53.72455482;86.84346682
0.5102466758075291;2.315750423828626;-0.1621290914652799;0.06411616115077119;90.0;53.724615979999996;86.84339486
4.4208540538446925;1.5605754431412355;-0.0458855919241358;0.06379172881498982;90.0;53.72470979;86.84334531
4.689349875704144;1.5089685966844557;-0.0132558376669725;0.06698487163935216;90.0;53.72483626;86.84333353999999
4.483929757013411;1.3437966945838782;-0.0428265524625267;0.06632501450836137;90.0;53.72499780999999;86.84336197
2.6622775604146147;1.2475829871173618;-0.0397675130009177;0.06419404368042977;90.0;53.725192019999994;86.84342818
2.930300883199517;1.2724230385802155;-0.0499643112062812;0.04208971294439069;90.0;53.72540679;86.84353031
3.1890646287782687;0.8367259101164097;-0.0214132762312633;0.01937719598457892;90.0;53.72563943;86.84367079
3.614729143389953;0.8301862355219015;-0.023452635872336;0.0195738395140809;90.0;53.72588478;86.84383422
4.36375350842055;0.832274993057314;-0.0469052717446721;0.01959183275477324;90.0;53.72614826;86.8440081
4.221642546495529;0.7568169383213035;-0.0683185479759355;0.022009303330981892;30.0;53.72642919;86.84418663
2.4599110689291;0.7365735918758268;-0.0734169470786173;0.022231202781370883;30.0;53.726706899999996;86.84436962
2.898522275691484;0.7234195581109323;-0.0326297542571632;0.02601993455054448;30.0;53.72699698;86.84456498
2.1467996335829524;0.8134667663586871;-0.07545630671969;0.02522640156774816;30.0;53.72730839999999;86.84477656
3.899995344259445;0.8382130965604979;-0.0158050372183134;0.025131654400248758;30.0;53.72761395;86.84498739
3.631210133408704;0.8467925974070368;-0.0565922300397674;0.02767553715969378;30.0;53.72791185;86.84520337000001
3.4842793410107498;0.8529404309096082;-0.003059039461609;0.025983501381484475;30.0;53.728207270000006;86.84541943
4.611033655470089;0.8865286850124771;-0.0540430304884266;0.029261435407936597;30.0;53.72849477;86.84562501
4.169835492390051;1.2228947523132494;-0.0244723156928724;0.03378409197133198;30.0;53.728770409999996;86.84582129
4.44395402690938;1.2340560342607219;-0.0081574385642908;0.029174645629928646;30.0;53.729031109999994;86.84601031000001
4.293201951662162;1.754246853453449;-0.0387478331803813;0.03011275052485234;30.0;53.729271749999995;86.84619463
5.214179511131712;1.7195354957192135;0.023452635872336;0.031811540994789625;30.0;53.72949356;86.84636780000001
6.8662878704284855;1.5744448782323588;0.0254919955134087;0.033641536640550515;30.0;53.729688020000005;86.84653410000001
6.93579066131013;1.5867835814653923;0.0061180789232181;0.028992916153980718;30.0;53.72984312;86.8466892
8.905506530750094;1.5364018039506826;0.0091771183848271;0.026426346819244592;30.0;53.72998464;86.84684863999999
6.868312504144634;1.3378517974289137;0.0520036708473539;0.025052924271134175;30.0;53.73011031;86.84700759
6.6114360674522334;1.1137842650823768;0.0336494340776996;0.015585135132198445;30.0;53.73022092;86.84717196
7.588524053052558;1.3402805039298153;0.040787192821454;0.015591064139073131;30.0;53.7303167;86.84734454000001
8.275141195194744;1.6809647267630723;0.0305903946160905;0.016461505311351942;30.0;53.73040466;86.8475349
7.022421330162786;1.779572296843178;0.0101967982053635;0.01999666108232505;30.0;53.730488349999995;86.84774659
5.5218299809901845;1.5528346666669282;0.0081574385642908;0.019513618879807976;30.0;53.73057315999999;86.84796708
4.1093500509380885;1.5500208050756126;0.0254919955134087;0.02749361582177407;30.0;53.73067039;86.84819231
3.662664361320147;1.617134693590634;0.040787192821454;0.030072440339736998;30.0;53.73077501;86.84840700999999
4.6109294586475;1.6684994982618122;0.0698480677067401;0.03191383361674492;30.0;53.73088434;86.84860338
5.1860723570722085;1.609281617117608;0.0132558376669725;0.0339053123649856;30.0;53.73099879;86.84877927
6.824805703013459;1.6165728394255439;-0.0346691138982359;0.033962507688084106;30.0;53.73112057000001;86.84893689
7.503928853558592;1.608380356111635;-0.0173345569491179;0.03430569767201345;30.0;53.73125175;86.84907575
8.021771127694764;1.6278939531362273;-0.0254919955134087;0.03504368056472365;30.0;53.73139496;86.84918823999999
7.8395486261990355;1.4871605818490667;-0.0316100744366268;0.033158370130629236;30.0;53.73155003000001;86.84926395
7.124390889469481;1.4062442171531597;0.0132558376669725;0.02413152479719054;30.0;53.73170941000001;86.84929277
5.837480040211273;1.400792861786473;0.0214132762312633;0.023555915815697413;30.0;53.73187278;86.84928973999999
3.969073866054429;1.3916157542130771;0.0356887937187723;0.021259026864175322;30.0;53.73202927999999;86.8492568
4.681063924597779;1.349262166094478;0.0050983991026817;0.021344715744954248;30.0;53.73218061;86.84920333
5.544044479110022;1.3144977404340878;-0.0076475986540226;0.021740486194885483;30.0;53.73232848;86.84913104
5.252457732276073;1.2815699475914561;0.0020393596410727;0.019645199044384665;30.0;53.73247215;86.84904687000001
5.825908289264937;1.2416421909282;-0.0122361578464362;0.022199025317992387;30.0;53.73260863;86.84893759
7.044590482907696;1.2798543110010867;-0.0183542367696543;0.02091441779226664;30.0;53.73273571;86.84879586999999
7.790745651808733;1.0305090569512025;-0.0285510349750178;0.014312796377577297;30.0;53.7328485;86.84862962
7.605460172219987;0.9022602118456394;-0.0132558376669725;0.012055554919141691;30.0;53.73294312;86.84843496
6.559613370370516;0.9056462452506036;-0.037728153359845;0.011808050820201069;30.0;53.73301989;86.84822756999999
7.030682531733117;0.7819082416163282;-0.0265116753339451;0.009313943994233943;30.0;53.733078580000004;86.84800978000001
6.448620315422102;0.6684229931479228;-0.0316100744366268;0.01005073088108553;30.0;53.73312403;86.84778130999999
7.604993636599563;0.8812810606869369;-0.0183542367696543;0.009988468096776178;30.0;53.73315955;86.84754291
8.07196541174175;0.9983714416921154;-0.0101967982053635;0.010443632204808234;30.0;53.733187889999996;86.84728453
5.943304712872522;1.0282246530578358;-0.0285510349750178;0.017596166767761524;30.0;53.73320913;86.84700881
6.9364482869860895;1.1131256246645511;-0.0071377587437544;0.0173831402573857;30.0;53.733225430000005;86.84672302999999
5.292794860915627;1.3243411265453693;-0.0244723156928724;0.0173831402573857;30.0;53.733239190000006;86.84643983000001
5.066632050806818;1.3151245839857166;-0.0336494340776996;0.017457747063953186;30.0;53.73325178;86.84615289999999
5.239907334116269;1.1791631385907908;-0.0703579076170082;0.01719369534185617;30.0;53.73326368000001;86.84587296000001
5.046626969637788;0.8399697248872662;-0.0326297542571632;0.016030571783481835;30.0;53.73327372999999;86.84556813
3.761481041284037;1.0251032538415705;-0.0305903946160905;0.01620688685788853;30.0;53.73328343000001;86.84525015
6.1578644751368605;0.9371223877636051;-0.0224329560517997;0.014922824407307791;30.0;53.733290509999996;86.84490395
5.341440512177222;0.9488145245522455;-0.0244723156928724;0.01523995932101869;30.0;53.73329569;86.84454817
4.996075785292861;0.9641847532741117;-0.0254919955134087;0.01747362195563314;30.0;53.73329605;86.84419013
7.276863406161355;1.0179773566357373;-0.0224329560517997;0.018178412523602555;30.0;53.733295510000005;86.84379279
6.236463345413688;1.0705227389113283;-0.0173345569491179;0.020326924995808317;30.0;53.733294449999995;86.84339493
4.960306367888167;0.9702963782859733;-0.0428265524625267;0.02055834567533437;30.0;53.733293460000006;86.8429869
4.784363851810809;0.9528294888503551;-0.0591414295911083;0.019861229441549045;30.0;53.73329717;86.84257845
4.351434094513186;0.9864474385506926;-0.0734169470786173;0.020645823620111595;30.0;53.73330597;86.84215973
4.236204936372541;1.0134311895061756;-0.0642398286937901;0.023662284869730373;30.0;53.73332558999999;86.84175439
4.632418332065686;0.6490742969568782;-0.0520036708473539;0.025511475284998926;30.0;53.73335655000001;86.84135015000001
4.4412810374414935;0.4266161925115745;-0.0316100744366268;0.026545642901154676;30.0;53.733399999999996;86.84096864
4.259444736903445;0.42346203726557524;-0.0173345569491179;0.02998852753189786;30.0;53.73345641000001;86.84059241
4.2848759060630055;0.4121145440294643;-0.0020393596410727;0.034846769456359165;30.0;53.73353029;86.84022596999999
5.492254656628195;0.4118183648306492;-0.0050983991026817;0.030191439741461993;30.0;53.7336141;86.83990274
4.08551291196439;1.2565043148504635;-0.0071377587437544;0.03202148221427487;30.0;53.7337;86.83957647999999
4.085404812856321;1.8324446334462294;0.0101967982053635;0.06925028295474299;30.0;53.73378255;86.83926223
4.60550837364521;2.646080595964114;0.037728153359845;0.06940825377027565;30.0;53.73386405;86.83895461
4.5526386298839965;2.6050345620735444;0.0061180789232181;0.06925895736047943;30.0;53.733941055;86.838680895
0.7305262794975836;2.85563098521419;-0.0734169470786173;0.06932498069023249;90.0;53.734008595;86.83844123499999
-0.1968655845101757;2.8117301015306038;-0.2080146833894157;0.06835835969243813;90.0;53.734063345;86.838237425
-2.558366009841243;2.7977563914459993;-0.0438462322830631;0.06736964203987991;90.0;53.73410407499999;86.83806823500001
2.671883888629681;2.9441754951912125;-0.0316100744366268;0.06437476757152397;90.0;53.73412738;86.83793538
-1.4540944834411709;2.8364531560367334;-0.0693382277964719;0.055950294171783814;90.0;53.73413505;86.83783297
5.134533563951953;2.8364531560367334;-0.0356887937187723;0.055950294171783814;90.0;53.73413505;86.83783297
3.893104955346753;2.8364531560367334;-0.0560823901294993;0.055950294171783814;90.0;53.73413505;86.83783297
5.543298861039589;2.8364531560367334;-0.0555725502192311;0.055950294171783814;90.0;53.73413505;86.83783297
2.6512499088355743;2.8364531560367334;-0.0586315896808401;0.055950294171783814;90.0;53.73413505;86.83783297
3.079789001307115;0.9188390684231362;0.0305903946160905;0.0599102029554018;60.0;53.72505013999999;86.84443062
2.1476893296008326;0.9188390684231362;-0.0693382277964719;0.0599102029554018;60.0;53.72505013999999;86.84443062
0.6973360974642292;0.9188390684231362;-0.0978892627714897;0.0599102029554018;60.0;53.72505013999999;86.84443062
1.6780172361820465;0.9188390684231362;-0.0540430304884266;0.0599102029554018;60.0;53.72505013999999;86.84443062
1.1332832350039732;0.9188390684231362;-0.1371469358621392;0.0599102029554018;60.0;53.72505013999999;86.84443062
2.279676999977584;0.9188390684231362;-0.1427551748750892;0.0599102029554018;60.0;53.72505013999999;86.84443062
1.321741208870969;1.1958959756612046;-0.0418068726419904;0.04183591237769884;60.0;53.724928829999996;86.84430931
2.7830979646970024;1.4502710365657676;-0.1590700520036708;0.0414463926060946;60.0;53.72481921999999;86.84416386000001
0.1157648977549635;1.4491281202826614;-0.0999286224125624;0.04177096808691047;60.0;53.72472966;86.84400518000001
1.7718135491053568;1.4575253638178236;-0.1519322932599164;0.04340801068735912;60.0;53.72466981;86.84384804999999
4.412321403748753;1.4690708685019689;-0.0897318242071989;0.051314767147779806;60.0;53.724643400000005;86.84371156
4.416977901377021;1.4989720902923684;-0.1427551748750892;0.05521775192183072;60.0;53.72464874;86.84359402
3.7167321570086727;1.3739751397775852;-0.0907515040277352;0.05806547118070562;60.0;53.72468635;86.84349851
3.34637274111442;1.3887537292762895;-0.0438462322830631;0.05324189721590632;60.0;53.72476346;86.84343482
4.341912149381055;1.0375394540896519;-0.0152951973080452;0.052269822653652175;60.0;53.72487681;86.84340481000001
4.049841317777931;0.826909227233931;-0.0112164780258998;0.04302869629800311;60.0;53.72503037;86.84341757
3.176192115798723;0.8150388734861872;-0.0152951973080452;0.04124717259992884;60.0;53.72521159;86.84347335
2.463028230441376;0.7818922316166;-0.029060874885286;0.027855129924473813;60.0;53.72541711;86.84356879
5.276345705238462;0.796678906778237;-0.0530233506678902;0.0209679303669826;60.0;53.72563996;86.84369692
3.105245300011497;0.83240572333711;-0.0285510349750178;0.019319053480484776;60.0;53.725899459999994;86.84385914
3.293599197888537;0.8634716630947569;-0.0316100744366268;0.019508289837889978;60.0;53.726178229999995;86.84403039
3.910782170383348;0.9296632379563472;0.0122361578464362;0.019424610643846627;60.0;53.72646744;86.84420952
3.1764331450263508;0.9324936831994772;0.0091771183848271;0.02316074017433595;60.0;53.726762789999995;86.84439990999999
2.8249116370752425;1.0036484380255302;-0.0183542367696543;0.024459330212947925;60.0;53.72705394;86.84459378
2.344617347031639;0.7548937039546338;-0.0275313551544814;0.023381346976171814;60.0;53.727341079999995;86.8447862
1.9549544359688924;0.9125397584263301;-0.0132558376669725;0.024726155207639076;60.0;53.72762267;86.84497819
3.3810618703132365;1.0257743537057655;-0.0601611094116447;0.0242848927334454;60.0;53.727926530000005;86.84518989
4.666252293049114;1.1214620222332414;0.0020393596410727;0.02257771610881274;60.0;53.72822463;86.84539839
3.235099777894616;1.2069210949448617;0.0101967982053635;0.026372082317557166;60.0;53.72851469999999;86.84560142000001
4.822631153837325;1.4714956341769454;-0.0428265524625267;0.02774349566179686;60.0;53.72877144;86.84578136
4.851920610364663;1.6602634310158975;-0.0050983991026817;0.028615905173252007;60.0;53.72901803;86.84596139
4.971833441200159;1.528756522838788;-0.0132558376669725;0.04163624101060461;60.0;53.7292453;86.84613490000001
5.167907392818251;1.4077147482740529;0.0326297542571632;0.0448980954703968;60.0;53.72945549;86.84631181
6.816336335558608;1.3756202288588915;-0.040787192821454;0.0481948481752715;60.0;53.72964991;86.84648831
7.632845596543665;1.1675667912394563;0.0112164780258998;0.05061272917720328;30.0;53.729830549999996;86.84666895000001
7.39551828464964;1.0933854904815943;0.0838686652391148;0.04459473095652503;30.0;53.72999772000001;86.84685148
6.488540882347523;0.9950028632888641;0.0876924645661262;0.04405953824716491;30.0;53.73012784;86.84702
6.150093438955438;0.8390476515427191;0.0703579076170082;0.041572026911306466;30.0;53.73024332;86.84719179999999
7.626006454816384;1.0210345758324202;0.0703579076170082;0.042037400757225264;30.0;53.730345420000006;86.84737582
7.143962416741514;1.3713224208589496;0.0285510349750178;0.033848244380580296;30.0;53.73043653;86.84758213
7.598461231736921;1.4250795642818517;0.0010196798205363;0.03570506644571924;30.0;53.730516030000004;86.84779731
5.983776741353885;1.3589703085731408;0.0152951973080452;0.033897602347557225;30.0;53.730602450000006;86.84802196999999
4.398115520129444;1.4068803862556212;0.0163148771285816;0.029092958206616237;30.0;53.73069511999999;86.8482324
3.8163466799565184;1.4619760681915617;0.0703579076170082;0.0277291257023771;30.0;53.73080185;86.84843385
4.4698485019608905;1.4409729046389843;-0.003059039461609;0.022953493811747744;30.0;53.730912120000006;86.84861836
6.421070681190445;1.4433393595828716;0.0132558376669725;0.02255134878638399;30.0;53.73102558000001;86.84878558
7.224591031791041;1.3623181155485637;0.0193739165901906;0.022318335489062865;30.0;53.731143939999995;86.8489321
7.335216563424066;1.4603603277099453;-0.0091771183848271;0.022853620974492034;30.0;53.731269659999995;86.84905782
7.419952187593991;1.39526585995068;-0.0040787192821454;0.02323140065641167;30.0;53.731408099999996;86.84915786
7.175401452106805;1.2997208447303328;0.0061180789232181;0.013707436819218056;30.0;53.73155488;86.84922015999999
6.469697266449155;1.2435258741451718;0.0061180789232181;0.012812781770606555;30.0;53.731707070000006;86.84924691
4.414735785573321;1.2381569607344705;0.0285510349750178;0.014891825569496637;30.0;53.731863909999994;86.84923735000001
5.093070990023893;1.1885488319153166;0.0275313551544814;0.016708096830042988;30.0;53.73201695;86.84920351
4.428755941744293;1.219635157113555;0.023452635872336;0.015818371490728993;30.0;53.732157230000006;86.84914667000001
4.94167500335635;1.2102091400375328;0.0127459977567043;0.021711705494511187;30.0;53.73229549;86.84907245
6.045386234219817;1.2092745543119714;-0.011726317936168;0.023368991189891903;30.0;53.732431469999995;86.84898571
6.621593183156603;1.1995252940850598;-0.0173345569491179;0.023330399079530044;30.0;53.73257036;86.84886348
7.568262642103998;1.0893309274587197;0.0061180789232181;0.021427838134497737;30.0;53.73270106;86.84872538
7.34462193304873;1.0343385839141392;-0.0397675130009177;0.01954194199662116;30.0;53.732816220000004;86.84856406
7.166638094044745;0.8459468362626946;-0.023452635872336;0.017296193196549337;30.0;53.732913429999996;86.84837711
6.121652134169508;0.7992243925423973;0.0040787192821454;0.016884264646759725;30.0;53.73299171;86.84817123
5.453784740037947;0.8493937011045207;0.0071377587437544;0.017205449879017825;30.0;53.7330508;86.84796152
6.01167809510348;0.859957121239024;0.0112164780258998;0.017103421417564893;30.0;53.73309936;86.8477464
5.913851840423215;0.9266766161501129;-0.0101967982053635;0.01623822105630218;30.0;53.73313954;86.84752033999999
7.7261538028532515;0.8990138014753855;-0.0254919955134087;0.0137209151280979;30.0;53.73317342;86.84728542
7.755618377596226;1.0020963784658157;-0.020393596410727;0.0137209151280979;30.0;53.73320044;86.8470334
7.239853243399163;1.1988105057140133;-0.0142755174875089;0.014738988881434992;30.0;53.73321522;86.84679218
5.382729253035594;1.2891750643918092;-0.0050983991026817;0.018052860965273133;30.0;53.73322666;86.84653738
6.132452917190844;1.4079036367547633;-0.023452635872336;0.014324092186615345;30.0;53.73323755;86.84627947
4.826532048177139;1.4163932508204444;-0.023452635872336;0.013566064128196416;30.0;53.73325172999999;86.84597364999999
4.18528020026191;1.2291055709346748;-0.0346691138982359;0.013846740528361342;30.0;53.73326459;86.84565883
4.485423683170392;0.9868172632099628;-0.0565922300397675;0.013786537932400218;30.0;53.73327601999999;86.84533746
4.170686278137191;0.7303842545177129;-0.0275313551544814;0.013874246082092699;30.0;53.73328497;86.84501105
5.256035711833621;0.7469334618014384;-0.020393596410727;0.012375219560688652;30.0;53.733292459999994;86.84468574
5.309792524363867;0.7074537008532746;-0.0163148771285816;0.01243389339210465;30.0;53.73329742999999;86.84436303
6.248346149513019;0.7381691996862365;-0.023452635872336;0.012726836032219083;30.0;53.73330093;86.84404397
5.470473776779834;0.7140044577047147;-0.0132558376669725;0.012576165948232802;30.0;53.73330193;86.84372241
5.680217023221379;0.7051491490098724;-0.0183542367696543;0.0061218543502503334;30.0;53.733301899999994;86.84340238
4.326025076735509;0.6282536838824373;-0.0214132762312633;0.005835446359438298;30.0;53.73330071;86.84307607
5.707111461866851;0.7248829365361557;-0.0346691138982359;0.005867529155050084;30.0;53.73329477;86.84277317000002
4.379981642446645;0.7801653574898852;-0.0193739165901906;0.02439147226101245;30.0;53.7332914;86.84247028
4.584010819102761;0.645137596454126;-0.0254919955134087;0.025330730064885863;30.0;53.7332876;86.84215928
4.950532779500271;2.4053150943604344;-0.0231977159172019;0.025413714028307024;30.0;53.73327303;86.84185031
4.038320283594;2.774884602171073;-0.0193739165901906;0.031388285782830073;30.0;53.73324339999999;86.84155444000001
4.092346894137817;3.616392513934819;0.0530233506678902;0.032939509838802034;30.0;53.73319576;86.84127128
4.3984749225078215;3.6282256717068995;0.0101967982053635;0.03270014643601801;30.0;53.73312986;86.84100570000001
-2.6855367912091084;3.7056666062387595;-0.0040787192821454;0.03479518875201932;120.0;53.73304417000001;86.84076385
-1.0258432337784578;3.675193385073368;-0.0683185479759355;0.036829920208194665;120.0;53.732939120000005;86.84053847999999
-4.265891528705117;4.340216881239357;-0.0469052717446721;0.04171156625767254;120.0;53.73281655999999;86.84034679999999
-1.718908937218134;4.003323415658002;-0.0020393596410727;0.043788095704562435;120.0;53.732664899999996;86.84019513999999
-2.4617622258116105;3.5392776619533577;-0.0520036708473539;0.03578290907881107;120.0;53.73249597;86.84007485
-3.109037675281544;2.7106897044774105;-0.0560823901294993;0.032148046628789936;120.0;53.73231685;86.83998789
-9.29957099997393;2.789490279715904;-0.0825940654634444;0.03473486421832274;120.0;53.73213604;86.83990947999999
0.625467693674332;2.8194922689063464;0.0152951973080452;0.03434957453438464;120.0;53.73197004;86.8398254
-4.2289279736233;2.7874488477566035;-0.0606709493219129;0.03485787393653097;120.0;53.731825779999994;86.83974257999999
-0.9183328675095064;3.101473579873945;-0.0443560721933311;0.030770949351828013;120.0;53.731701135;86.839661455
-0.8370453670083391;3.29665997312626;-0.1019679820536351;0.030796656472819484;120.0;53.731597455000006;86.839585935
-0.6229269172471252;3.292633521678736;-0.0601611094116447;0.030813392093105553;120.0;53.731515394999995;86.839521795
-1.3703967362595395;1.9376381992343688;-0.0683185479759355;0.029762940375158278;120.0;53.731454305;86.839465825
1.8960976979567143;1.8895987031565236;-0.0744366268991536;0.022160220356574247;120.0;53.731423285000005;86.839434805
1.5809335350289715;1.7409179461608433;-0.0509839910268175;0.023137471600620983;120.0;53.731406504999995;86.83941290499999
-3.026324585071652;1.7413051715914767;-0.0545528703986948;0.024000954073620104;120.0;53.731399225;86.839397945
0.6252058252315983;2.063358445245676;-0.0652595085143265;0.020194995608331143;120.0;53.731403605000004;86.83939976500001
-1.0830600948559737;2.063358445245676;-0.0152951973080452;0.020194995608331143;120.0;53.731403605000004;86.83939976500001
-3.4389885886864198;2.063358445245676;-0.0805547058223717;0.020194995608331143;120.0;53.731403605000004;86.83939976500001
-0.44778971384819;2.063358445245676;-0.0356887937187723;0.020194995608331143;120.0;53.731403605000004;86.83939976500001
2.851071355213356;2.063358445245676;-0.0356887937187723;0.020194995608331143;120.0;53.731403605000004;86.83939976500001
