acc_X;acc_X_std;acc_Z;acc_Z_std;class;lat;lon
9.509661349999254;1.6041928348255068;-0.0091771183848271;0.04809102470390696;60.0;53.71926774999999;86.84846583
5.673727283387366;1.6041928348255068;-0.0973794228612215;0.04809102470390696;60.0;53.71926774999999;86.84846583
8.627089212666549;1.6041928348255068;-0.0081574385642908;0.04809102470390696;60.0;53.71926774999999;86.84846583
4.669941365784715;1.6041928348255068;-0.0805547058223717;0.04809102470390696;60.0;53.71926774999999;86.84846583
7.794525561426232;1.6041928348255068;-0.1641684511063526;0.04809102470390696;60.0;53.71926774999999;86.84846583
6.423064524005589;1.6041928348255068;-0.0428265524625267;0.04809102470390696;60.0;53.71926774999999;86.84846583
5.489892278020927;1.7231725109290001;-0.078515346181299;0.04501632667429857;60.0;53.719197550000004;86.84831371
8.774621972157899;1.8385643571505166;-0.0428265524625267;0.04411076185363854;60.0;53.719132;86.84815088
6.616140569574186;1.9340988185713506;-0.1060467013357805;0.044874794798481554;60.0;53.719070959999996;86.84798744000001
7.826561461357076;1.6027080698089848;-0.0418068726419904;0.0458426445639178;60.0;53.71901462999999;86.84781847
10.177026451198902;1.6387187647871315;-0.037728153359845;0.027941831982702087;60.0;53.718964240000005;86.84764776
10.0259172655889;1.5893953128605984;-0.0560823901294993;0.02816811033629131;60.0;53.718920000000004;86.84746272
9.724208166657792;1.493310843724723;-0.003059039461609;0.026200679106627496;60.0;53.71888491;86.84727147
8.004880164406526;1.4844151117359006;-0.0295707147955541;0.026302776635610967;60.0;53.7188575;86.84707766
6.990241104409441;1.4062970849682899;-0.037728153359845;0.01322573600731606;60.0;53.71883264;86.84688384
6.9569992177856514;1.404997813448307;-0.0356887937187723;0.016955530894581336;60.0;53.71880573;86.84668285000001
6.067158866608011;1.2099599143854347;-0.0305903946160905;0.01748684002322608;60.0;53.7187766;86.84648476
7.523589636157872;0.9589218948643564;-0.0346691138982359;0.014578212297878304;60.0;53.71874482;86.84628658
7.867686643264357;0.954250995510604;-0.0367084735393086;0.013599554202241137;60.0;53.71870978;86.84608513999999
7.889395909898744;1.0040635681678627;0.0010196798205363;0.013486954813926484;60.0;53.71867052;86.8458846
7.562816209185585;1.0438090715318227;-0.0132558376669725;0.01342997853392519;60.0;53.71862105;86.84567385
8.203862477294704;1.2747616920213967;-0.0163148771285816;0.022164129971825996;60.0;53.71856734000001;86.8454691
5.1992361542402215;1.3721718342281342;-0.0101967982053635;0.022039726663204456;60.0;53.71850543000001;86.84526895
8.452860519222591;1.3946563650876245;-0.0254919955134087;0.037434619052296635;60.0;53.71843276;86.8450734
8.257358226571947;1.4664150940242533;-0.0372183134495768;0.035628249453615445;60.0;53.718346700000005;86.84488494
5.081730731820097;1.5652668469472801;0.0346691138982359;0.03562241233204856;60.0;53.71822894;86.84470574
5.290070070441896;1.5416615749605043;-0.0020393596410727;0.03520254959478343;60.0;53.71809974;86.84453302
6.189119301133796;1.518775261583356;0.0866727847455898;0.03785536061008841;60.0;53.71796121;86.84436633
8.630308760913683;1.4292986001920902;0.0152951973080452;0.03803100452272343;60.0;53.717813910000004;86.84420879
5.032232035358167;1.457001190603392;0.0050983991026817;0.036640904772161045;60.0;53.717657540000005;86.84406265999999
6.640699950095752;1.5629502513943376;-0.0020393596410727;0.03264855803714788;60.0;53.71749019;86.84395419
7.979556552181835;1.6285281943914782;0.0571020699500356;0.032845413742507275;60.0;53.71731253;86.84388405
6.611165290897209;1.6664581408138956;-0.0127459977567043;0.03313745887166466;60.0;53.71712848000001;86.84389456
4.608536641593911;1.7063076386538163;-0.0101967982053635;0.029765851422919126;60.0;53.716949469999996;86.84395363
3.5250578670408306;1.3535283405771303;-0.0010196798205363;0.03086228116000254;60.0;53.7167749;86.84406322000001
4.311971124635051;1.34887888990063;0.037728153359845;0.037249302229606825;60.0;53.716628209999996;86.84421861
4.6506431819192295;1.2818702673528597;-0.0061180789232181;0.04203509048306506;60.0;53.71648145;86.84443793
4.54618512560897;0.844707150614173;-0.0530233506678902;0.04638519032976352;60.0;53.716340190000004;86.84469091
5.703056281046054;0.8177549260905586;-0.0275313551544814;0.05003720791188014;60.0;53.716204700000006;86.84497526
5.485308694794915;0.8701620804369393;-0.0683185479759355;0.05289289777030142;30.0;53.716074400000004;86.84528784
4.924691055193225;0.7653936837742484;-0.0713775874375446;0.05467962721257926;30.0;53.71595003;86.84560635
4.855617483852478;0.7345845503933356;-0.1254206179259712;0.04265301716017427;30.0;53.715824080000004;86.84590024
6.4877217589739145;0.773063776246631;-0.0999286224125624;0.03560047403847226;30.0;53.715698970000005;86.84611049
3.9450143192395206;0.9867586388746981;-0.1111451004384623;0.034312768876914986;30.0;53.71557518000001;86.84626062
4.332316641956012;0.9826327410333068;-0.130519017028653;0.028260700066929247;30.0;53.71547243;86.84634474999999
4.965919217738346;0.9661117313914483;-0.0387478331803813;0.035299884245610286;30.0;53.715392740000006;86.84638026
5.8770278092480135;1.0005751313082245;-0.0744366268991536;0.06909673712820266;30.0;53.715349200000006;86.84633416
3.1364872915947406;0.9959099529876322;-0.084123585194249;0.06645033023772583;30.0;53.71532362000001;86.84623434
4.128574392133499;0.7701748641515498;-0.0836137452839808;0.0657273094255132;30.0;53.71531176999999;86.84608169
4.254875650380967;0.7746265268251349;-0.020393596410727;0.06548138965429233;30.0;53.71531469;86.84587725
3.8015259864496542;0.7800839075368325;0.1029876618741715;0.05781773408953969;30.0;53.71533852;86.84561948000001
4.506945213723494;0.7545442643116392;-0.0336494340776996;0.05964328002187236;30.0;53.715384560000004;86.84532504
5.1518377234454045;0.625092683888042;-0.0168247170388498;0.05571129669891592;30.0;53.71544404;86.84501587999999
3.8822774314829;0.6930659536483731;0.0244723156928724;0.049227324933727175;30.0;53.71550664;86.84469704
4.109806403602147;0.6797100926666811;0.0163148771285816;0.04304530586653258;30.0;53.71555479;86.84437655
4.1443078851045785;0.6893565044718297;0.0316100744366268;0.042482206353790804;30.0;53.71558622;86.84403678
5.258485334370748;0.6525554672903748;-0.0040787192821454;0.025388742092526954;30.0;53.715598850000006;86.84368845
5.9066542013519445;0.6924441294361818;-0.0224329560517997;0.034754191095820994;30.0;53.71560559000001;86.84333935000001
4.581000573452992;1.2148666180768266;-0.0443560721933312;0.039620681112856146;30.0;53.715624520000006;86.84298451999999
5.090472045350012;1.2811297408730067;-0.0086672784745589;0.041107277625691975;30.0;53.71566729;86.84264841
5.354134934261057;1.2875667306198697;-0.0254919955134087;0.040994707936579;30.0;53.71573455;86.84234959
4.0300528503631465;1.2862073636109865;-0.0856531049250535;0.03241395192261103;30.0;53.71583687;86.84210119
1.5184594829756988;1.3394280838528565;-0.0734169470786173;0.02905520944515315;30.0;53.71597503;86.84190143000001
3.040451396404294;1.1979085215012484;-0.0836137452839808;0.027295144090332835;30.0;53.716140159999995;86.84174399999999
4.784899769095409;1.1827146828046378;-0.0856531049250535;0.0280761410971815;30.0;53.716332;86.84162608
4.564579090511084;1.1376009414795543;-0.0560823901294993;0.028567417986010875;30.0;53.71654865000001;86.84155601
2.808974925442863;1.0425117488842301;-0.0744366268991536;0.029499133365438742;30.0;53.71678781999999;86.84152638
3.5988708732663737;1.1806537639294674;-0.0397675130009177;0.03673301318445342;30.0;53.71704486;86.8415351
4.252967810297753;0.8314970432922681;-0.0336494340776996;0.035881043949318014;30.0;53.717303900000005;86.84158422
4.603266298403402;0.7727855492575394;-0.0061180789232181;0.03275714259696456;30.0;53.71755333;86.84164933000001
4.525266919876686;1.0465242374434682;-0.0183542367696543;0.027313549377867844;30.0;53.71779131999999;86.84172604
5.519817213523888;1.1801399476492214;0.0244723156928724;0.025653274533370893;30.0;53.718005319999996;86.84179668
4.512973355124501;1.0053138124771404;-0.0214132762312633;0.019228468753050874;30.0;53.718200030000006;86.84186083
5.235190342040936;0.8478797195724945;-0.0183542367696543;0.022490817783330987;30.0;53.71838553;86.84192601
6.6665972350869644;0.7632645803582863;-0.0397675130009177;0.022439135078511464;30.0;53.71856505000001;86.84199033
6.362338361302674;0.7717989241897253;-0.0336494340776996;0.02169041115288855;30.0;53.7187373;86.84206018
6.087126995350174;0.7107356520594926;-0.0214132762312633;0.021593524260863535;30.0;53.718900989999995;86.84215219000001
5.273926609668597;0.725752363085111;-0.061180789232181;0.019022184065298143;30.0;53.71905403000001;86.84225403
5.440196638512774;0.7173423032816806;-0.0326297542571632;0.019394776000390253;30.0;53.71920172;86.84237868
4.533957654416388;0.944123207782751;-0.0285510349750178;0.02346026991354224;30.0;53.71933937;86.84251377000001
5.243285778867304;1.2789320012056817;-0.0295707147955541;0.03410808253778476;30.0;53.71946749999999;86.84265726000001
5.949786684819867;1.3489509052168454;0.0142755174875089;0.03835662084015033;30.0;53.71958862;86.8428091
6.7192182289343565;1.5410495569115872;-0.0142755174875089;0.04777272205635878;30.0;53.71970193;86.84296849
7.832489251963959;1.567039737555533;0.0152951973080452;0.04190003224493589;30.0;53.71980713000001;86.84313769
8.76182544359014;1.5618098478016924;0.0591414295911083;0.03893165508213944;30.0;53.71990504;86.84331496
7.570252641373864;1.248167577741289;0.0489446313857448;0.03670280821424369;30.0;53.71999662;86.84349102
8.742484483908411;1.0479232389578326;0.0887121443866625;0.033581730639094864;30.0;53.72008174;86.84365038
8.487138290900763;0.7527382525514882;-0.0040787192821454;0.03584238631000731;30.0;53.72016749000001;86.84380268999999
8.696312687060125;0.7969660589484328;0.0112164780258998;0.03058893115171188;30.0;53.7202533;86.84393458
8.120359275532916;1.1824821154690484;0.0489446313857448;0.029156077889635482;30.0;53.72034864999999;86.84405296999999
9.40229370294598;1.4903009213526934;0.0662791883348628;0.029106109092157023;30.0;53.72045047;86.84413943
8.3929019191765;1.4907603207135474;0.0805547058223717;0.029693962277679915;30.0;53.72055298;86.84418818
6.530926154219724;1.4475911231111582;0.0586315896808402;0.028567670736640915;30.0;53.72064934;86.84419494
5.498692118579995;1.593232920794354;0.0305903946160905;0.03479754394839426;30.0;53.72073198;86.84415726
4.953614347363082;1.5586637415915112;0.037728153359845;0.051302073599167594;30.0;53.72079630999999;86.84408335
7.507139468394335;2.010465112214508;0.0652595085143265;0.058947749318060995;30.0;53.72083705;86.84398073000001
7.009205777318028;1.714917238880745;0.0071377587437544;0.05860397300584545;30.0;53.72085478;86.84384486
4.951649478698875;1.6477968298389098;-0.0346691138982359;0.05654094211570594;30.0;53.720844680000006;86.84366324
5.504321859869078;1.6577460551493748;-0.0825940654634444;0.05276135597028269;30.0;53.720810830000005;86.84344251
2.3587984750124864;1.6570057489944867;-0.0693382277964719;0.05048118881995688;30.0;53.72074682;86.84318138
4.60602113277852;1.8359337997457514;-0.0418068726419904;0.049880886781242216;30.0;53.72065463;86.84289463
2.888325897468384;1.5360568219029302;-0.0713775874375446;0.04432721745927746;30.0;53.72053521;86.84259601
3.424916455940381;1.145771320002228;0.023452635872336;0.050834217996233715;30.0;53.72039465;86.84228649
4.119994093366441;1.1445260276351712;-0.0112164780258998;0.053702706968540986;30.0;53.72024947;86.84195187
2.195795314422699;0.8555976552854314;0.0326297542571632;0.052583697463829265;30.0;53.720103990000005;86.84159391
2.944349394155128;0.8738952139542331;-0.0856531049250535;0.052583697463829265;30.0;53.71996144;86.8412056
2.823338527056172;0.6532081922607849;-0.1284796573875803;0.054140741635972864;30.0;53.719800129999996;86.84074989
1.916828662209505;0.6525947992073612;0.0081574385642908;0.06128842184032381;30.0;53.71963144;86.84029704
2.4489129206158595;0.6502145176836976;-0.0101967982053635;0.060473212892003934;30.0;53.719443260000006;86.83986054
2.15676183530135;0.47192715577775446;0.0061180789232181;0.061350500485332166;30.0;53.719232350000006;86.83944739
2.841280384658222;0.45704767590463513;0.0173345569491179;0.06114877423910819;30.0;53.71899936;86.83905568
2.6766672335820667;0.4408132478386509;0.0897318242071989;0.060125957634218366;30.0;53.71875113;86.83868201
1.9570832534782048;0.539630044242515;-0.0010196798205363;0.04647088157306515;30.0;53.71849151;86.83833023
3.3464041293033087;0.498916203515251;-0.040787192821454;0.053460036565597446;30.0;53.71820921;86.83801209
2.5846557991067063;0.8245226423520223;-0.0622004690527174;0.0538239001809169;30.0;53.7179024;86.8377232
2.694096274402064;0.8271732394441559;-0.0764759865402263;0.0538343091980187;30.0;53.71757279;86.83747807
3.545504659157813;0.8240972728218814;-0.0132558376669725;0.056414604568581314;30.0;53.71724263;86.83733479
2.267875762891504;0.8365127321340959;0.07545630671969;0.04539185271507268;30.0;53.71690242;86.83723778000001
4.762562230527867;0.928681602139448;0.0214132762312633;0.0462749432012419;30.0;53.7165568;86.83717376
3.797942785764262;0.9913397543943285;0.0071377587437544;0.04642860003604425;30.0;53.716209070000005;86.83714347
3.11107962718396;1.0473663703902456;-0.0560823901294993;0.054944670192907684;30.0;53.715859;86.83714668
3.752185203005119;1.1391805200486274;-0.0163148771285816;0.052621362867846896;30.0;53.715502400000005;86.83717408
1.4527869512326657;1.195820587884982;-0.0509839910268175;0.052971033584930875;30.0;53.71513762000001;86.83722658
1.9851073261478016;1.6097631214899755;-0.0438462322830631;0.03872934334520999;30.0;53.71476576;86.83730016
1.8789130856875784;1.3520396124550438;-0.1203222188232894;0.03413330709470275;30.0;53.714388050000004;86.83738837
1.5105538368247349;1.1992521473980864;-0.0438462322830631;0.032180552336207785;30.0;53.71400447999999;86.83747328
1.311228532892219;1.1433666863563774;-0.0479249515652085;0.03369249400723634;30.0;53.713614140000004;86.83754118
-0.8077620330291283;0.9161109247754707;-0.0448659121035994;0.032080595741743136;30.0;53.71321814;86.83759061999999
2.0572396032034543;0.9926068209214232;-0.0815743856429081;0.03450628251991837;30.0;53.71281576;86.83761319999999
2.072092544124105;1.0565058526507725;-0.0040787192821454;0.035610045824801616;30.0;53.71240991;86.83760927
2.532604601756709;1.3000311625833791;-0.0183542367696543;0.029216787675035178;30.0;53.71200637;86.83757693
1.9400214926493624;1.4860545979525104;-0.0397675130009177;0.029100899074795416;30.0;53.711612849999995;86.83752389
0.3905052063937971;1.6408301839590966;-0.0091771183848271;0.029227659553129993;30.0;53.71123281;86.83745617
2.702777603932627;1.3953740830761723;-0.0734169470786173;0.02882006356305441;30.0;53.71087238;86.83737734
3.945081028307321;1.4137664419786904;0.0071377587437544;0.02354874205051927;30.0;53.71052736;86.83728576
4.087871750747724;1.3678087532489072;-0.0305903946160905;0.02858257906781329;30.0;53.71020158;86.83718782
4.440089945558725;1.361257270592116;-0.0152951973080452;0.035849315535676954;30.0;53.709889770000004;86.83708593
4.864673678943847;1.5996898347431576;-0.0285510349750178;0.035160312209174344;30.0;53.70958599000001;86.83699463
4.180680404261663;2.235323314114277;0.0010196798205363;0.046917092629876096;30.0;53.70928859000001;86.83691739
2.974518375011537;2.5230025144133585;0.0316100744366268;0.05129855487567465;30.0;53.708994499999996;86.83688185999999
2.6635694672928114;2.4655883128107554;0.0509839910268175;0.052180979473720045;30.0;53.70872439;86.83691895
0.3479001852546854;2.4615054355843684;0.0163148771285816;0.048641684492431066;30.0;53.70848590000001;86.83702606
-2.40323810414973;2.2943926103733276;0.0938105434893443;0.04853980602431213;30.0;53.7082807;86.8372023
-0.9118147929773956;1.96321360993451;0.1233812582848985;0.05042909801171749;30.0;53.70810656;86.83745056000001
2.143031065910232;1.6850053879970657;-0.0091771183848271;0.05514080939425441;30.0;53.70796276;86.8377778
0.0282166327719371;1.586698998409684;0.0244723156928724;0.056048493556451626;30.0;53.70784103;86.83818599
0.8759248096048078;1.667254256560308;-0.0142755174875089;0.05651475687595923;30.0;53.707736520000005;86.83866516
1.3709448839688634;1.8656701532722337;-0.0418068726419904;0.05648255155772753;30.0;53.70765563;86.83919611
1.9550873451308224;1.5673782091098714;-0.0458855919241358;0.048876250908413674;30.0;53.707603770000006;86.83976889
2.114624278301415;1.362901028604641;-0.0112164780258998;0.025525962211370892;30.0;53.70758259;86.84034931
3.225761924011205;1.5757545666179718;-0.0275313551544814;0.02551894613342135;30.0;53.70756533;86.84094133
3.644706519421073;1.511556533944259;0.0091771183848271;0.024908635097948516;30.0;53.70754583;86.84151831
4.019038528243898;1.3170248932882826;-0.0244723156928724;0.024889843916746136;30.0;53.707516250000005;86.84207497
3.997370865034651;1.1607045843271826;0.0285510349750178;0.024353062487656837;30.0;53.70747089;86.84262097000001
4.869395270884974;1.0445690439730104;-0.0101967982053635;0.021937207961476246;30.0;53.707413700000004;86.84316282
5.396550230129257;1.0320223360800163;-0.0509839910268175;0.04133806529981784;30.0;53.70735415;86.84370743000001
2.469322290834437;1.0277393354396211;-0.0152951973080452;0.058741606956359466;30.0;53.70730822;86.84424006
2.65476805398289;1.031193038074519;0.003059039461609;0.06201354871034922;30.0;53.70729728;86.84475904
3.22284321280831;1.0210768623495805;-0.0010196798205363;0.06771184596850639;30.0;53.70732812999999;86.84524813
2.1978132217979534;1.0215854179539716;0.1009483022330988;0.06850618280353755;30.0;53.70741401;86.84571033
3.367416743528161;0.9069441665927771;0.1402059753237483;0.07121767870726822;30.0;53.70754325;86.84611093
3.852251894860085;0.6682085133312133;0.0825940654634444;0.06804662062386016;30.0;53.70770247;86.84648263
3.4926182148009706;1.0021514205776556;-0.0713775874375446;0.06794144744984505;30.0;53.70788341;86.84681973
2.9973477754501774;1.0325767967597403;-0.0142755174875089;0.06980724377405757;30.0;53.70808825;86.84711160999998
3.813444485745358;1.096306259075047;-0.0489446313857448;0.07063126161518728;30.0;53.7083217;86.84735274
4.31380029111681;0.9851817626517728;-0.0040787192821454;0.06446745961123923;30.0;53.70857219;86.84753155
5.835126835633323;0.9702967417259571;-0.0132558376669725;0.040962745198080346;30.0;53.708835380000004;86.8476693
4.966906409700511;0.9400614605166226;-0.0341592739879677;0.019860429624874158;30.0;53.709092780000006;86.84777566
5.203603446398665;1.207237324451227;-0.0224329560517997;0.015387821017010736;30.0;53.70933504;86.84787711999999
5.514169631199412;1.0168603929030984;-0.037728153359845;0.01481560430828562;30.0;53.709546620000005;86.84797606
5.374030466486301;0.9695645558384366;-0.0356887937187723;0.013412224749925232;30.0;53.70973688;86.84807416
4.623725066192103;0.966640511409275;-0.0193739165901906;0.010743531201851017;30.0;53.70991248;86.84816528
7.437662059718572;1.0976867664304828;-0.0484347914754767;0.009540653432063626;30.0;53.71008257;86.84826113
6.101302167606804;1.1082879962142682;-0.0367084735393086;0.012813683396614154;30.0;53.71024715;86.84835915000001
6.848155725391385;1.0365415783091796;-0.0214132762312633;0.013223661270709591;30.0;53.71040157;86.84845725
7.20096406237216;0.981557033816231;-0.0346691138982359;0.018897271276074767;30.0;53.71055211;86.84856171
7.565837367942495;0.9048605378037679;-0.0214132762312633;0.020558345675334495;30.0;53.710696459999994;86.84868046
7.539433807626788;0.9829456745359142;-0.058121749770572;0.019713809863702927;30.0;53.71082906;86.84881306
6.708028675484028;0.9847576623418044;-0.0509839910268175;0.019746087950258197;30.0;53.71094994;86.84897234
6.3368880086744594;1.0876960325543836;-0.0790251860915672;0.01938650941935129;30.0;53.71106374;86.84915526
6.132698257783197;1.101548417648202;-0.0672988681553992;0.01678338124463864;30.0;53.71117341;86.84936989
4.317147494880024;1.1488076624683827;-0.0662791883348628;0.017884410846120642;30.0;53.711276780000006;86.84960894
5.5986073035689765;0.9918419762243839;-0.0520036708473539;0.014643148976943462;30.0;53.711381960000004;86.84989587999999
4.9650735382737095;0.8245699202308762;-0.0438462322830631;0.014624201867505186;30.0;53.711485200000006;86.85020904
5.459018389366989;0.6920408421405027;-0.0469052717446721;0.014595735086401608;30.0;53.71158438;86.85053606
4.5380465385405735;0.6754825654666574;-0.0265116753339451;0.012050163320113005;30.0;53.71167991;86.85087479
5.7260121929422665;0.6073108825338916;-0.061180789232181;0.015264576261700528;30.0;53.711771999999996;86.85122032000001
4.53411806542776;0.5267443750762695;-0.0571020699500356;0.016391174709827882;30.0;53.711862970000006;86.85156729
5.249630424144077;0.5281876831874855;-0.0520036708473539;0.018808801315534352;30.0;53.71195307000001;86.85190315
6.235554583128784;0.5382033456164093;-0.0479249515652085;0.018692971280184552;30.0;53.71204041;86.85222601000001
5.360503485457781;0.5564516518689084;-0.0163148771285816;0.018848070408550976;30.0;53.71212608999999;86.85252928999999
5.084055269335227;0.6281315014136618;-0.0163148771285816;0.018929415943445556;30.0;53.71221188;86.85282756000001
5.619194640723041;0.6258897745606254;-0.0096869582950953;0.0172531412599593;30.0;53.712291189999995;86.85308863
5.788259039497723;0.8573262644441703;-0.0356887937187723;0.020431798622936644;30.0;53.712365899999995;86.85334254
4.887942537514713;0.9710960049812012;-0.0224329560517997;0.02687844544701615;30.0;53.71242701999999;86.85359822000001
6.640351510575421;0.9054585804188983;-0.0458855919241358;0.027837860858786225;30.0;53.71246651;86.85383483000001
5.321106704446823;1.0529802183945651;-0.0458855919241358;0.03217534644871778;30.0;53.71248429;86.85403949
3.450536410820189;1.1131341400280772;-0.0749464668094218;0.03044180249153969;30.0;53.712481780000005;86.8541957
3.928542988025373;1.1239603677261456;-0.092790863668808;0.02573157082828836;30.0;53.712459290000005;86.85429609
5.007725671007356;1.078521656798091;-0.0642398286937901;0.02446812567750683;30.0;53.712415410000006;86.85433925
3.35826524245074;1.1123879928778757;-0.1040073416947078;0.028921352670575492;30.0;53.712349329999995;86.85432181
3.731083225148278;0.7151923353753854;-0.07545630671969;0.04019749922355895;30.0;53.712260689999994;86.85423317
3.618383183376932;0.5028370692622272;-0.0509839910268175;0.04668310686853753;30.0;53.71214817;86.85407969
3.531662062820629;0.5482568461664302;-0.0509839910268175;0.04672562169259165;30.0;53.712013569999996;86.85385037
3.237521673958061;0.7289585332217288;-0.0010196798205363;0.044186648466209594;30.0;53.71186585;86.85354905
3.4634559667569578;0.648072582803028;0.0275313551544814;0.057081834622156206;30.0;53.7117111;86.85319718
3.525097470128003;0.6681466048935197;0.0214132762312633;0.05533280851498719;30.0;53.711517119999996;86.85277024
2.97278921376185;0.6269350921879524;-0.0112164780258998;0.04961848108553404;30.0;53.71130399;86.85234975
2.0518678234388066;0.6680583548141142;-0.0010196798205363;0.04992857494965293;30.0;53.71107047;86.85196006999999
1.904568354729832;1.0478590265195855;0.092790863668808;0.04411681794629216;30.0;53.710818270000004;86.85160803
2.546547409326811;1.066650171574222;0.0825940654634444;0.04546728448158463;30.0;53.710534259999996;86.85130354
2.825137222713349;1.6750199996434016;0.0530233506678902;0.048484825352442806;30.0;53.71021896999999;86.85106249
1.8681561717724695;1.841727318812462;-0.0530233506678902;0.050349225933235944;30.0;53.70988017999999;86.85088242
0.0289195539237093;1.9741278762883328;0.014785357397777;0.05002557582562269;30.0;53.70951766;86.85076566000001
1.268774150169011;1.9158527070420674;-0.0183542367696543;0.05004404735513691;30.0;53.7091238;86.85070972
-2.192209059471728;1.9025819508881656;-0.0336494340776996;0.04229756362866823;30.0;53.70871065;86.85071385
-1.6977111622536976;1.7920535974776037;-0.0295707147955541;0.03370779190048291;30.0;53.70831108;86.85081348
-2.0638668515285707;1.5035510474991538;0.0265116753339451;0.02873380016908906;30.0;53.70790389;86.85093877
0.8800573227188403;1.8497931537933139;0.0316100744366268;0.023734737797842936;30.0;53.70748005;86.85107301000001
-0.9578004708900284;2.1346317122241185;0.0081574385642908;0.024358991586705014;30.0;53.70704847;86.85121487
-1.561504308075683;2.2924093295922265;0.0173345569491179;0.024455551324110848;30.0;53.70662943;86.85135647
0.7307495402817717;2.182070486080858;0.0081574385642908;0.022455861404422843;30.0;53.706227639999994;86.85148971999999
3.5998981609340244;2.293857460015367;-0.0193739165901906;0.01876013819860405;30.0;53.705838240000006;86.85161488
3.1566370585535792;2.0504186546928205;-0.0244723156928724;0.019466421020468663;30.0;53.70545969;86.85173040999999
2.925020685566646;2.1429682939382317;0.0163148771285816;0.017504008588671027;30.0;53.70510733;86.85183373
2.175513462206451;1.9265708859172463;0.0254919955134087;0.01768751820979255;30.0;53.70476322;86.85192994
4.481784574737738;1.2031747346159563;0.0163148771285816;0.017770925772695133;30.0;53.70443626;86.85200234
3.638095529564954;0.8218414424796471;-0.0152951973080452;0.01757645926501133;30.0;53.704127500000006;86.85205966
4.297456600299705;0.8998271061924473;0.0112164780258998;0.016350597629390826;30.0;53.70384591;86.85210063
4.576170034351086;0.9278514048520814;-0.0050983991026817;0.013534411871514681;30.0;53.70357848;86.85211991999999
4.217260450906603;0.869293595699808;-0.0152951973080452;0.014111098152378848;30.0;53.70332370999999;86.85211859
4.644700670055515;0.6314439325324325;0.003059039461609;0.011870015274933884;30.0;53.70307826;86.85209842
4.96456105541358;0.6577042190941561;0.0050983991026817;0.010952793752012698;30.0;53.702838650000004;86.85206361
2.8917895522461947;0.6181388997778259;0.0071377587437544;0.010062218747312425;30.0;53.702611669999996;86.85201839
4.263984258357226;0.6409151338867111;-0.0142755174875089;0.010062218747312425;30.0;53.70238887000001;86.85196967
4.999610116969062;0.6413334137481359;-0.0112164780258998;0.010231295666185957;30.0;53.70217651;86.85191347
4.893869722227866;0.6638237671814806;0.0101967982053635;0.00943410503209577;30.0;53.70196634;86.8518697
4.73484268457712;0.8510543737337564;-0.0050983991026817;0.01363984549600147;30.0;53.7017616;86.85183136
5.026360482357204;0.8605107317879392;0.0112164780258998;0.017855237780284212;30.0;53.70156102;86.8518023
4.610500042265503;0.5538108554237788;-0.0081574385642908;0.019424610643846586;30.0;53.701370049999994;86.85178797
5.199429411171223;0.47571050090150646;0.0081574385642908;0.017766455825297393;30.0;53.70117963;86.85178955
6.304859294628308;0.4723442140890685;0.0316100744366268;0.021812106289839057;30.0;53.70097412;86.8518042
5.216586446049098;0.5318752155261601;0.0397675130009177;0.027413662074500637;30.0;53.7007711;86.85181878
5.501853475142904;0.5529102786680431;0.0311002345263586;0.03451084388436887;30.0;53.70056524;86.85184076
5.256716268009937;0.6572930047920179;0.020393596410727;0.03662754165229746;30.0;53.70035653;86.85186245
5.270250348377519;1.100693841387582;-0.0326297542571632;0.03672927823883086;30.0;53.700146530000005;86.85187773
4.390325050554149;1.2459780796941664;0.0632201488732537;0.03760581543627379;30.0;53.699934029999994;86.85188283
4.532469962464762;1.3833632159791567;-0.0520036708473539;0.04127573145579423;30.0;53.69971012;86.8518842
4.012623407406507;1.5484660780583992;-0.0275313551544814;0.04020956819342875;60.0;53.69947699000001;86.85188147
2.2456231112961413;1.4612198826615732;-0.0101967982053635;0.043090102965202985;60.0;53.69923079;86.85187591
2.8470804828027227;1.326181083126209;0.0326297542571632;0.0426645269056606;60.0;53.69897545;86.85186121000001
1.647050047862924;1.5086346608624348;0.0662791883348628;0.04232851844281586;60.0;53.69872270999999;86.85184654999999
1.436947227400761;1.3926783271920067;0.0071377587437544;0.03711052449439015;60.0;53.69845259;86.85183755
2.366564777273156;1.2067988897098358;-0.0469052717446721;0.0344290243614492;60.0;53.69816971;86.85182603
2.4947685969493625;1.2209600386494632;0.0071377587437544;0.03655156699194897;60.0;53.6978742;86.85181467999999
-0.4090816756612164;1.1916207901895717;-0.0285510349750178;0.03658805451742936;60.0;53.69754678;86.85181494
1.465105030293066;1.0563956380289037;-0.0305903946160905;0.034050622817757704;60.0;53.69721122999999;86.85182499
0.7783162549073139;1.0446372484209483;-0.0244723156928724;0.021895037203599307;60.0;53.69686790000001;86.85184006
-0.7793954313174394;1.0938712203948768;-0.0489446313857448;0.028522898989498394;60.0;53.696515090000005;86.85185845000001
0.9218185897002154;1.0030300703727613;-0.0132558376669725;0.027830597391402034;60.0;53.696123369999995;86.85186865
1.1643826301216482;0.8219710255489046;0.003059039461609;0.026159861009893783;60.0;53.695728929999994;86.85187101
1.3817296655877742;0.7384219811795172;0.0040787192821454;0.030892727419934755;60.0;53.695334869999996;86.85185839
-0.05654243220438;0.7024898905875614;-0.0836137452839808;0.030736577101374448;90.0;53.69494707;86.85183923
1.569161234365564;1.2970814828213704;-0.0356887937187723;0.03913070671176446;90.0;53.69456301;86.85181613
0.5182179511979756;1.144299439443626;-0.0091771183848271;0.038507972878601485;90.0;53.6941812;86.8517876
0.4651863996595071;1.219476789696147;0.0254919955134087;0.048952773984773906;90.0;53.69382337999999;86.85173698
1.018010662826407;1.3001316920513093;-0.023452635872336;0.04708423634640255;90.0;53.69346055999999;86.85165319999999
4.138410444524379;1.2950741516746205;-0.0968695829509534;0.05044971179450119;90.0;53.69310819;86.85153891
1.8102308603254813;1.2436965504024315;-0.0173345569491179;0.05132503789864111;90.0;53.69277393;86.85138641
-0.0611017897107445;1.2527679569007357;-0.1223615784643621;0.05255856304007457;90.0;53.69249086;86.85120318
-0.227803203167075;1.382648571526429;-0.0469052717446721;0.051771252069668726;90.0;53.692226749999996;86.85099027
1.0291073361003626;1.4723786401586159;-0.1213418986438258;0.04445100398374307;90.0;53.69198859000001;86.85074443
0.7832843712323012;1.7493870910524711;-0.0045885591924135;0.043698465655213174;90.0;53.691777220000006;86.8504537
0.3502744273891712;1.3246489116642104;-0.0836137452839808;0.0432416184670396;90.0;53.691596260000004;86.85011914
-0.8866903292581391;1.2859209198360853;-0.0193739165901906;0.04608935869327212;90.0;53.69145108;86.8497282
2.538138353775288;1.3210372654802158;-0.0458855919241358;0.049378462506973905;90.0;53.691340419999996;86.8493129
-1.9349515326548428;1.4484685764677454;-0.0907515040277353;0.05511726028657822;90.0;53.69126532;86.84888452
-0.6639670010144132;1.5249705052237323;-0.0907515040277353;0.04695724292891208;90.0;53.69120709;86.84843973000001
-1.2768922366673294;2.2282591227313744;0.003059039461609;0.04754486107295834;90.0;53.69116207;86.84798767
-0.9894052211471708;2.335524457614745;0.0316100744366268;0.04347499380669125;90.0;53.691129610000004;86.84753537
1.7651093466169314;2.312437353058242;0.0305903946160905;0.04368970738454545;90.0;53.69111031999999;86.84709111999999
1.8108183361949692;2.3175407353455353;-0.0254919955134087;0.04311904876268936;90.0;53.69109154;86.84665249999999
5.264892548027083;2.146619466711733;0.0040787192821454;0.03601281111990505;90.0;53.6910699;86.8462315
2.8547923867721563;2.0331903220037475;-0.0275313551544814;0.025505361144986537;90.0;53.69104238;86.8458251
2.6665900511395124;1.8447092987454214;-0.037728153359845;0.02818533076604678;90.0;53.691007739999996;86.84544486
-0.5053336868740159;1.5713869760703898;-0.0295707147955541;0.024159694216040167;90.0;53.69096144;86.84507344000001
2.7260590784662373;1.8894995302713993;-0.0142755174875089;0.025702090181065444;90.0;53.690907460000005;86.84470714
2.176028487518122;1.948946486665341;0.0152951973080452;0.026587606823048907;90.0;53.69085223;86.84435495
0.1683599423507175;2.8303635268508622;-0.0448659121035994;0.029845068184444764;90.0;53.69078852;86.84400964
2.578675641478461;2.7310015047756124;-0.0173345569491179;0.04252077077995754;90.0;53.690724120000006;86.84368412
-1.1521588505771116;2.63102377929231;0.037728153359845;0.04574466599413864;90.0;53.69065405;86.84337597
0.3526925686179719;2.687807082198213;-0.0377281533598449;0.04864895760255462;90.0;53.69058073;86.84308505
-6.27766380833371;2.73011809988723;-0.0652595085143265;0.04978157342717968;90.0;53.690507000000004;86.84280396
1.2947626361934754;2.5863744584996806;0.0744366268991536;0.04953007188491038;90.0;53.690422330000004;86.84251705
1.134126430097027;2.8174695916405907;0.0514938309370857;0.04888325278588446;90.0;53.69033428;86.84223956
-1.5962667175948095;2.772569906994053;-0.0601611094116447;0.05219240787344203;90.0;53.69024753;86.84197873
-3.3942651616288098;2.837921617702069;-0.0397675130009177;0.05252602151972941;90.0;53.690160479999996;86.84173552
-1.771697089939817;2.939846170370189;-0.0326297542571632;0.052763463439579536;90.0;53.69007257;86.84150169
-4.6974593893805405;2.915564592171979;0.0142755174875089;0.05787936857223764;90.0;53.68998911;86.84128254999999
2.2812749733749453;2.9057499051810622;-0.0652595085143265;0.07033756444448734;90.0;53.68990238;86.84106014
0.5235997414573902;2.9648390980574195;0.040787192821454;0.06745284562382106;90.0;53.68981522;86.84083474
1.5979283085000109;2.913121676854812;-0.0418068726419904;0.06829199393784396;90.0;53.68973215;86.84060831000001
5.124526063281253;2.646867152674368;-0.1019679820536351;0.06781777979809565;90.0;53.68965002;86.8403777
1.070015545307576;2.5069548629939575;-0.1876210869786886;0.06713010468100394;90.0;53.68957425;86.84015345
2.1361432517176;2.5156489842679193;-0.1356174161313347;0.06699711574501746;90.0;53.68949994;86.83993577999999
-0.4735174415382132;2.4763011625181246;-0.0948302233098807;0.07397051090000212;90.0;53.689424020000004;86.83969601999999
1.8678461417250676;2.510005404839258;-0.0774956663607627;0.05327573627079552;90.0;53.68935455;86.83945247
0.1882641266569917;2.5021837924052175;-0.0973794228612215;0.048542929746781656;90.0;53.689287549999996;86.83921395
-4.732085894147499;2.068614575728756;-0.1825226878760069;0.05001287269167781;90.0;53.68920491;86.83896235
1.2544366183920046;2.194156894201401;-0.2018966044661976;0.04806819775861792;90.0;53.68911777000001;86.83871905
2.240493850716714;2.608551976127852;-0.092790863668808;0.06039304275884347;90.0;53.68902225000001;86.83848017
0.864948638266683;2.662976301849634;-0.0754563067196899;0.060565533671074874;90.0;53.68891705;86.83824953
1.7770075726915568;3.092019297898982;-0.0815743856429081;0.060436641740056744;90.0;53.68880893000001;86.83803133
-1.797639405867582;3.266001192076881;-0.058121749770572;0.06111468676711018;90.0;53.68869972;86.83782996
-4.758408149774558;2.840314788501417;0.0122361578464362;0.05654298533157211;90.0;53.68858378;86.8376193
-2.042666355236022;2.902796858159079;-0.0805547058223717;0.04492255741070979;90.0;53.688473290000005;86.83741921000001
4.851341708146;2.812674981811901;-0.1080860609768532;0.04660260919165017;90.0;53.688371829999994;86.83720511
3.095753833765845;2.8063095402223253;-0.0678087080656673;0.04846432933131308;90.0;53.68828098;86.83699138
-0.9837953241027088;2.7501874139823106;-0.1498929336188436;0.048742431595896085;90.0;53.688221350000006;86.83680119
-1.7337429293975486;3.07800474085371;-0.0183542367696543;0.050151278421984635;90.0;53.688183360000004;86.8366224
0.4065549474517845;2.907711480454542;-0.1152238197206077;0.04365244031894507;90.0;53.68816855;86.83646422999999
0.6655755864322822;2.804041061077158;-0.116243499541144;0.04732286088787068;90.0;53.688169304999995;86.836321625
0.7505310552436851;2.5281852859497835;-0.0948302233098807;0.048899881918157945;90.0;53.688178525;86.836192605
4.764827544189301;2.4288863339437436;-0.1264402977465075;0.04968145114410041;90.0;53.688196495;86.836077455
-3.809295238387602;2.5021679619814123;-0.020393596410727;0.044458800251322685;90.0;53.688228265;86.835994025
2.526108477925232;2.35837620478592;-0.032119914346895;0.04289935856898037;90.0;53.688259925;86.83593608499999
2.3917120588562484;2.573363457396429;-0.0356887937187723;0.04171146239477114;90.0;53.688280565;86.835913205
-0.6887871842860481;3.489639900432592;-0.0489446313857448;0.035843877012334754;90.0;53.688292115;86.835904275
3.051228555221227;3.761753584010173;-0.0244723156928724;0.034191007984875774;90.0;53.688293945;86.835903545
2.18584306201292;3.856258435560896;-0.0346691138982359;0.03251275042505315;90.0;53.688282595;86.835897315
4.695902170845655;2.998189480938717;-0.0132558376669725;0.03597417464936555;90.0;53.688261225;86.83588362500001
9.296940878503143;2.976296396146274;-0.0367084735393086;0.03617924015572111;90.0;53.68823768;86.8358652
7.56887278470518;2.976296396146274;-0.0825940654634444;0.03617924015572111;90.0;53.68823768;86.8358652
6.222544921271229;2.976296396146274;0.0469052717446721;0.03617924015572111;90.0;53.68823768;86.8358652
2.051254428829799;2.976296396146274;0.020393596410727;0.03617924015572111;90.0;53.68823768;86.8358652
5.147198755770672;2.976296396146274;-0.0081574385642908;0.03617924015572111;90.0;53.68823768;86.8358652
7.06298032604097;1.3083025139363291;-0.0876924645661262;0.042617791583964934;30.0;53.7194308;86.848762
6.523530102462523;1.3083025139363291;-0.0540430304884266;0.042617791583964934;30.0;53.7194308;86.848762
8.50941060846288;1.3083025139363291;-0.0591414295911083;0.042617791583964934;30.0;53.7194308;86.848762
6.080422904677173;1.3083025139363291;-0.0887121443866625;0.042617791583964934;30.0;53.7194308;86.848762
5.671541597094855;1.3083025139363291;0.0010196798205363;0.042617791583964934;30.0;53.7194308;86.848762
10.203095682270302;1.3083025139363291;-0.0999286224125624;0.042617791583964934;30.0;53.7194308;86.848762
7.300388517582127;1.307970766972493;-0.078515346181299;0.0440006250702032;30.0;53.719353639999994;86.8486234
6.984164534999161;1.6417830421370443;-0.1182828591822167;0.044685431411127956;30.0;53.71927524;86.84846052
7.398670500730238;1.8091687079758156;-0.1193025390027531;0.045348565137565;30.0;53.7192002;86.84829844
6.482843298483335;1.795507317462153;-0.1539716529009891;0.04890318934828737;30.0;53.71912999999999;86.84813096
7.089595640365993;1.5723648439029403;-0.1203222188232894;0.041210009490557614;30.0;53.71906388;86.84796244
10.535350822307882;1.4501279406743026;-0.0469052717446721;0.042268601907903394;30.0;53.719003650000005;86.84779725000001
10.123657793898744;1.415245768731223;-0.0509839910268175;0.0430756562969625;30.0;53.71894520000001;86.84761848000001
9.738123273688204;1.3383084248446062;-0.0295707147955541;0.04172475474474648;30.0;53.71889398;86.84743158
8.720481388145611;1.3505854358029676;-0.0520036708473539;0.0413518967444307;30.0;53.71885418000001;86.84723561999999
8.521891952828383;1.337180868354118;-0.052513510757622;0.02696876961898461;30.0;53.71882531;86.84703267
7.942949298022506;1.2481058833277456;-0.0560823901294993;0.02370472321430189;30.0;53.71880308;86.84682611999999
8.061739591097016;1.0858242774168496;-0.0499643112062812;0.025666781233897883;30.0;53.71878505000001;86.84663657
7.266320356645581;0.8962352005453209;-0.0198837565004588;0.02639928321325115;30.0;53.71876495;86.84644751
6.566951658746698;0.7214501519372147;-0.0346691138982359;0.0272608920362565;30.0;53.718742750000004;86.84626146999999
8.676081655492654;0.9462143502669177;0.0214132762312633;0.026088939907612883;30.0;53.718715710000005;86.84607059
7.528206683325466;1.0105255135726248;-0.003059039461609;0.029893995034117472;30.0;53.71867973999999;86.8458631
8.645060653735808;1.1556144660951664;-0.0025491995513408;0.030929354102777744;30.0;53.71864364;86.84566572
8.462103242131402;1.1765684274548602;-0.0061180789232181;0.029753768713116264;30.0;53.718602329999996;86.84547337000001
5.884688705638652;1.2368587648283684;-0.0071377587437544;0.03479754394839435;30.0;53.71855350999999;86.84528631
9.078768850317008;1.3615458493123749;-0.07545630671969;0.035727981320970055;30.0;53.71849376;86.84510623999999
9.575486471729745;1.4319207003385994;0.0244723156928724;0.04868575177989861;30.0;53.71841902;86.84494702
7.259109937970223;1.5921048111000977;0.0163148771285816;0.051825672014989436;30.0;53.71832574;86.8448051
6.570533284441835;1.5854938951287691;0.0509839910268175;0.05176084666528956;30.0;53.71820319999999;86.84464928
5.685661148526389;1.525271737664984;0.0469052717446721;0.05367042866074037;30.0;53.71807054999999;86.84449358999998
5.884144181339968;1.5284190297814235;-0.1009483022330988;0.05369334825696559;30.0;53.717930190000004;86.84434043
5.247188830000689;1.2871787630132332;-0.0622004690527174;0.0505706195183043;30.0;53.71778547;86.84420851
5.567118897107887;0.7221054610273419;-0.0183542367696543;0.05241659574424521;30.0;53.71762753;86.84408897
5.722243593426011;0.5674951454248989;0.0316100744366268;0.05149806540689926;30.0;53.717453739999996;86.8439971
5.829770829555693;0.5230560019439663;-0.0040787192821454;0.04827923430151164;30.0;53.71727552;86.84394688
5.637562592283284;0.6418315772339793;-0.0484347914754766;0.04255135959342131;30.0;53.71710244;86.84394532
4.552163598747089;0.6228281116495392;-0.0652595085143265;0.034260205077529374;30.0;53.716935039999996;86.84396991999999
4.826334403297052;0.6516288111859211;-0.0020393596410727;0.03097512317355216;30.0;53.7167775;86.84402742
4.547259114480378;0.6583799059118974;0.0254919955134087;0.033174044924552414;30.0;53.71664448;86.8441376
6.546638250862414;0.6621152716519967;-0.0438462322830631;0.02829093449050675;30.0;53.71651942999999;86.84429415
5.299269923847931;0.7896255078185079;-0.0132558376669725;0.035330307642146765;30.0;53.71640184;86.84449143999998
6.014964213586425;0.9324151907762;-0.0081574385642908;0.03545984529620335;30.0;53.71629137;86.84472145
5.119086340195867;0.8783844919881807;-0.0520036708473539;0.040984420558457975;30.0;53.71619286;86.84497877999999
4.962407193626802;0.8527409986243849;-0.0295707147955541;0.039760249660826655;30.0;53.716108680000005;86.84524531999999
6.746441324869027;0.773595409824278;-0.0968695829509534;0.03142515055584581;30.0;53.716029160000005;86.84550628
6.987356633413227;0.9100308206463193;-0.0509839910268175;0.041278355359145945;30.0;53.71594397;86.84574621
5.146759052980099;1.0779822241021721;-0.1040073416947078;0.039535300893757994;30.0;53.71585248;86.8459696
5.130687070242648;1.246362591121672;-0.0652595085143265;0.04481441575630209;30.0;53.71574839;86.84614966999999
5.30965039338764;1.3217371274933667;-0.0530233506678902;0.04630167970629153;30.0;53.71564345;86.84629048999999
3.866616393806089;1.3039132645128964;-0.1376567757724074;0.04491124049577768;30.0;53.71554526999999;86.84635615
3.640205648772057;1.297653316355547;-0.1040073416947078;0.0477668271545944;30.0;53.71546551;86.84637367
7.347146384476193;1.234491502437151;0.0188640766799225;0.05085015232620109;30.0;53.71540513;86.84634401
6.892075348658009;1.264180235787304;-0.0285510349750178;0.049809181943646676;30.0;53.71536144;86.84624656
5.870370324386174;1.2789373867542113;-0.0520036708473539;0.04972779146864569;30.0;53.715331570000004;86.84610149
4.478905751360002;1.2862182827060817;-0.003059039461609;0.0497673862078744;30.0;53.715317920000004;86.84590864
4.178036920035304;1.2038650809606015;-0.003059039461609;0.039709223614158864;30.0;53.71531802;86.84566554
6.052807963558886;1.0595441032643254;-0.0938105434893443;0.038340352971137;30.0;53.71533182;86.84538238
5.926583167970232;0.8451914093665213;-0.0392576730906495;0.03233638390267689;30.0;53.71537348;86.84507844
4.926162440897936;0.645476539365324;-0.0418068726419904;0.03214288040397737;30.0;53.71542569;86.84475689
4.737806352383745;0.6569973948759382;-0.0672988681553992;0.03212130805891701;30.0;53.7154769;86.8444497
4.840487768485928;0.6138189820358781;-0.095849903130417;0.027921410084475302;30.0;53.71551380999999;86.84413845
5.196051363628353;0.5141333452073775;-0.058121749770572;0.02242838505155091;30.0;53.71553716;86.84382388
5.470690559190921;0.5609791034300408;-0.0316100744366268;0.018837647539929333;30.0;53.71555226;86.84352154000001
5.961196978667297;0.5723910904016006;-0.0489446313857448;0.018393220153633497;30.0;53.71556395;86.84322091
5.024834967179708;0.6845086139427253;-0.0550627103089629;0.018834197526615106;30.0;53.71557345;86.84291553
5.844103034446116;1.1850415368904992;-0.0397675130009177;0.018834197526615106;30.0;53.7155964;86.84261336
6.3416298280674095;1.428953890311209;-0.0397675130009177;0.02889212784694362;30.0;53.71564685;86.84232589
4.70998470631937;1.4377513136690525;-0.0479249515652085;0.029045267406495424;30.0;53.71572175;86.84207311
4.08779238937124;1.5461684844713974;-0.0713775874375446;0.02790356100855312;30.0;53.71582532;86.84187204000001
2.169314915016384;1.4349361691292977;-0.0672988681553992;0.028877729377065068;30.0;53.71595809;86.84171040999999
2.4495903557508703;1.4020546851663152;-0.133578056490262;0.02881605470746716;30.0;53.71611846;86.84158405999999
3.948302699944184;1.3255240855970094;-0.0499643112062812;0.02944660819161;30.0;53.716302639999995;86.84149432
2.462169760979264;1.0875581606167652;-0.0458855919241358;0.037990429353054134;30.0;53.716521920000005;86.84145504
4.417584890361695;1.0553459058775507;-0.0876924645661262;0.043400524766396865;30.0;53.716757689999994;86.84144248999999
4.195117261347375;1.158675730618504;-0.0571020699500356;0.052392097802243805;30.0;53.717009250000004;86.84147133
5.217739975592827;1.0643990156865568;-0.0336494340776996;0.05160829150732866;30.0;53.71726904;86.84153912
4.753416201086277;1.0381783703915357;0.0142755174875089;0.03891874456774634;30.0;53.71752128000001;86.84162496
4.236259463908985;1.129107088185846;0.0081574385642908;0.03858963877203634;30.0;53.71775866;86.84171386
5.308472894580991;1.027650746063406;0.0448659121035994;0.038976141298954214;30.0;53.71798020999999;86.84178949
5.402071765670564;1.0136549480275845;-0.0305903946160905;0.03164130725915527;30.0;53.71818528;86.84185888
6.282377058632639;0.914113158311345;-0.0265116753339451;0.03209427724173314;30.0;53.71837789999999;86.84192606
6.2883457726741465;0.9177448865729982;-0.003059039461609;0.031554106964154505;30.0;53.718562250000005;86.84199521
7.333378265222303;0.8520270477865833;-0.0509839910268175;0.030002392922574134;30.0;53.71872401;86.84205713
6.325368076313138;0.698245357370508;-0.0254919955134087;0.02924741625045641;30.0;53.718881950000004;86.84213315000001
6.226188744326011;0.6763764078129568;-0.0601611094116447;0.02007162593845423;30.0;53.71903614;86.84222078
5.16274490196164;0.740284420271437;-0.0091771183848271;0.024216113650225517;30.0;53.71917953;86.84232577
5.977932488276939;0.8268468461372936;-0.0122361578464362;0.02875068177680535;30.0;53.71931231;86.84244575
5.113126830457509;0.9839216312028273;-0.0367084735393086;0.03317578611116246;30.0;53.71943570999999;86.84257427
6.453853514924916;1.3152811924100536;0.0005098399102681;0.03298055209657129;30.0;53.71955025999999;86.84271442
7.326820893155492;1.5448359898334993;0.0183542367696543;0.0411568861859243;30.0;53.71965673999999;86.84286698
7.410605309129816;1.6472977596599783;0.0295707147955541;0.03378823795883813;30.0;53.71975459;86.84302883000001
8.058471376680576;1.5018663420113776;0.037728153359845;0.03363917563364353;30.0;53.71984452;86.843193
9.348495261427452;1.4050114793814692;0.0367084735393086;0.031129520280903298;30.0;53.71992752999999;86.84335793
9.389959492035873;0.9804984486688192;0.0825940654634444;0.021135308787778393;30.0;53.72000548;86.84352036
9.163369860647467;0.9048383409747063;0.0346691138982359;0.023462239585473707;30.0;53.72008167;86.84367847
8.711856999265773;0.7806897269148834;0.0499643112062812;0.022760416998601055;30.0;53.720156429999996;86.84381723
8.795324805734584;0.8863922073268196;0.0305903946160905;0.023325694396504535;30.0;53.720234919999996;86.84394436
8.282248555608643;1.3988633025891015;0.0387478331803813;0.02320652283486136;30.0;53.72032041;86.84405801
10.158219428319128;1.764572258229195;0.0907515040277353;0.02266759428095276;30.0;53.720413359999995;86.84414584000001
8.471586486953399;1.7284446380998437;0.0713775874375446;0.022243930892483846;30.0;53.720509119999996;86.84419808
6.912662051698941;1.67038737185123;0.0244723156928724;0.023247308490617888;30.0;53.720603659999995;86.84421582
5.3013607089625365;1.624338588181265;0.0622004690527174;0.032670268459240495;30.0;53.72069209;86.84419673
4.810358567645718;1.670041058474902;0.0469052717446721;0.03375809315229865;30.0;53.72076955;86.84414362999999
6.784903112701129;1.624481864161524;0.0795350260018354;0.04849897089398663;30.0;53.72082872;86.84405432
6.852390665161957;1.5412757130472858;0.0254919955134087;0.06493794197713217;30.0;53.72085877999999;86.84393078000001
6.853021657910139;1.2747913386013345;-0.020393596410727;0.06436837396498693;30.0;53.7208639;86.84377974
5.112869844617157;1.2828247608871588;0.0152951973080452;0.06588680095200315;30.0;53.72083014;86.84356421999999
5.9834254772460405;1.3081053422665163;-0.0662791883348628;0.06089081510589019;30.0;53.72077528;86.84331735999999
2.8891707658000727;1.312209184002094;-0.1244009381054349;0.056581868981013424;90.0;53.72069637;86.84304645
5.4887329370186;1.3045537577440613;-0.0560823901294993;0.04421957930711608;90.0;53.72059454;86.84276286
4.141252840427937;1.1659073826438342;-0.0571020699500356;0.04267738706550509;90.0;53.720471020000005;86.84246526
4.614823259016429;0.9389595173834494;-0.0142755174875089;0.0424385030103593;90.0;53.72033146;86.84214906
4.726965221444246;1.0826384117908667;-0.023452635872336;0.0375492084702943;90.0;53.72018567;86.84181127000001
3.6484448656639743;0.9606210629837654;-0.0071377587437544;0.037111030363840405;90.0;53.720037049999995;86.84144504999999
4.010248953464836;1.01229685195916;-0.092790863668808;0.02579658956093232;30.0;53.719887740000004;86.84103718000001
3.676636922563177;0.8667267232265976;-0.0244723156928724;0.03443376371371361;30.0;53.71973322;86.84059593999999
2.4874074045249874;0.8773271479383654;-0.0275313551544814;0.04153604972822676;30.0;53.71958538;86.84017418
2.707276237485757;0.7774079580414028;-0.0423167125522585;0.045735825944806685;30.0;53.71941742;86.83976046000001
2.483977950190356;0.7524602785166655;-0.0214132762312633;0.04745624039520964;30.0;53.71921884999999;86.83936477
2.7211723345266057;0.7206001864152645;0.040787192821454;0.04841496030801312;30.0;53.71896974;86.83897741999999
2.6414676810466995;0.6137065339469594;0.0571020699500356;0.04074755475109887;30.0;53.718705990000004;86.83860358999999
3.7377293089531225;0.5296898469226247;0.0448659121035994;0.040198074018576675;30.0;53.71842582000001;86.83825429999999
1.6444888875987185;0.5271803144142762;-0.0509839910268175;0.04100474621061249;30.0;53.71812212;86.83793779999999
2.6026231921106877;0.5603193394078357;-0.0438462322830631;0.040027971173450715;30.0;53.717800510000004;86.83766483000001
3.163310368027113;0.8345312085416142;0.0132558376669725;0.03947813184483874;30.0;53.71746031;86.83745007
2.819317855026064;0.8356821164746593;-0.0020393596410727;0.03909821740360796;30.0;53.71708904;86.8373092
2.5521549176232035;0.8342170933397223;-0.037728153359845;0.04177909164417402;30.0;53.71670742;86.83722198
2.1070380394748813;0.8499084564927093;0.0316100744366268;0.03927789962251374;30.0;53.71631754;86.83717514
0.7013528014097073;0.8319142400536907;0.023452635872336;0.04116344702877625;30.0;53.71593182;86.83715806000001
2.7536062000263346;0.8644749361335842;-0.0285510349750178;0.040859214931482125;30.0;53.71557306999999;86.83717563
2.3492908543905737;0.8125283770754943;-0.0836137452839808;0.038841488797235695;30.0;53.71520712;86.83721928
0.7716607019633617;1.1862842395565216;-0.0662791883348628;0.03750179744591384;30.0;53.714833680000005;86.83728616
2.2943466645256585;1.1596048665069758;-0.0703579076170082;0.038766463201353504;30.0;53.71445571;86.83736643
3.028965081270947;1.2510370462829765;-0.0356887937187723;0.031647011680569125;30.0;53.71406879;86.83745311
2.53962632606056;1.1860083703052717;-0.0458855919241358;0.023047734058982427;30.0;53.713667220000005;86.83753538
-0.6987975845406934;1.1607286708737712;-0.0418068726419904;0.022824092727079925;30.0;53.71326758;86.83759142
1.7806271588386509;1.4445825719528815;-0.0040787192821454;0.024551554847982084;30.0;53.71285224;86.83761896
3.257628619359347;1.4589809207987416;-0.0402773529111858;0.02223022839103137;30.0;53.71242638;86.83761806
2.360668774904968;1.4900229840749897;-0.0336494340776996;0.022154159089435597;30.0;53.71200483;86.83759331
2.134667107975981;1.6573960337560787;-0.0316100744366268;0.023472577651445833;30.0;53.71158818;86.83754274
-0.8088551440753406;1.8772244649863208;0.0101967982053635;0.0226928720152796;30.0;53.71118603;86.83747595
2.95102943091629;1.7439037244638782;-0.0254919955134087;0.022833960800091608;30.0;53.71080677;86.83739365
2.898264906546253;1.7172887484635768;0.014785357397777;0.022618933321840687;30.0;53.710447190000004;86.83729775
4.416203789271823;1.7190960939279567;0.0061180789232181;0.030789903395923367;30.0;53.7101088;86.83719232
4.865648156285637;1.7756063889595217;0.0066279188334862;0.03144315913428368;30.0;53.70979039;86.83708383
5.178717848126583;2.148535429105383;-0.0428265524625267;0.02907846053213705;30.0;53.709487460000005;86.83698314
3.8252704332180554;2.1937401939848082;-0.0101967982053635;0.03012536036419761;30.0;53.709199950000006;86.83690299
3.3909164990874263;2.6185501220931937;0.0601611094116447;0.04140996626123975;30.0;53.70893013999999;86.83685078
1.5659301931420313;2.6515575934081985;0.0367084735393086;0.04357138127982031;30.0;53.70867947000001;86.83685355
-0.8134551772024861;2.5961111329523097;0.0071377587437544;0.043347021064912145;30.0;53.7084614;86.83691708
-1.0499140823658033;2.3315443197721044;-0.0193739165901906;0.05129450100700896;30.0;53.70826943000001;86.83704511
-1.830996048769236;1.8510896801283665;0.1019679820536351;0.04980752934343395;30.0;53.708098699999994;86.83723534
0.6664002863754791;1.7550997475037227;0.0591414295911083;0.05220477429067614;30.0;53.70795415;86.83750551
-0.286735114290907;1.7429898068094596;0.0142755174875089;0.0522507837274753;30.0;53.70783174;86.8378439
0.4578766462181786;1.9805903396116833;-0.0652595085143265;0.051407776128734504;30.0;53.70773419;86.83831211
1.239676621064035;2.0076209072012827;-0.0295707147955541;0.0515245019382961;30.0;53.70766109;86.83883293
3.2813815626700307;2.0286066849084774;-0.0387478331803813;0.05126014286673409;30.0;53.707613200000004;86.83938664
3.3202352496981558;1.7074367454131851;-0.0458855919241358;0.035917931195919454;30.0;53.70759167;86.83996159
3.6957391395810815;1.6129043010089799;-0.0265116753339451;0.03986996633486208;30.0;53.707584159999996;86.84054288
3.1922814177869525;1.3005184407052446;0.0112164780258998;0.03811357875858355;30.0;53.707560720000004;86.84115688
4.261792816093367;0.9008916765686789;-0.0071377587437544;0.037339136411552995;30.0;53.70753449;86.84175529
4.270924370816063;0.5180325646251863;-0.0025491995513408;0.03733449511709548;30.0;53.707499889999994;86.84233508999999
3.387443361830033;0.6780984192869028;-0.1182828591822167;0.03759475438246624;30.0;53.70745351000001;86.84289543
4.346115695683883;0.7356988080141271;-0.0020393596410727;0.040945537723014847;30.0;53.70739709000001;86.84344317
3.098647714041996;0.8025953516335256;-0.0560823901294993;0.045859179650635906;30.0;53.70734110000001;86.84390942
3.034372517710684;0.8549881926073097;-0.0305903946160905;0.06626230045983166;30.0;53.70729477;86.84437253
2.197809678449168;0.8008508145654647;-0.0469052717446721;0.0776795756291005;30.0;53.707272020000005;86.84483617999999
2.578523167678421;0.9134422943002165;0.0224329560517997;0.08161714434011749;30.0;53.707277520000005;86.84528968
2.3100482526232797;0.9170675531791509;0.0397675130009177;0.06771950194156198;30.0;53.707312509999994;86.84570867
4.211865378443448;0.8370188497422517;0.1325583766697257;0.06920021707385925;30.0;53.707395989999995;86.84605839
2.9774525229792226;0.9102882520817043;0.1213418986438258;0.0639253319718095;30.0;53.707511260000004;86.84637846000001
4.92661267639391;0.9449741141228193;0.0866727847455898;0.06482834935955147;30.0;53.707655980000006;86.84667166
3.0252266517011552;0.9605514901914484;-0.0040787192821454;0.06166239187506632;30.0;53.707826309999994;86.84692647
2.997016730024659;1.1205073405592039;-0.0254919955134087;0.06512893055661023;30.0;53.70801948;86.84714779999999
4.2721094588711335;0.9650837506067431;0.003059039461609;0.0667950604296802;30.0;53.70823542000001;86.84733814
4.115607375184749;1.1679825821287748;-0.0387478331803813;0.055982418752654466;30.0;53.70846507;86.84748331
4.893303094906989;1.077655905486698;-0.0183542367696543;0.0377682838237223;30.0;53.70869442000001;86.84759746
5.914657987634862;1.2724535918433144;-0.0341592739879677;0.016065216565304605;30.0;53.70891760000001;86.84769264
4.518776258077216;1.1315603513532873;-0.0244723156928724;0.0152119803199859;30.0;53.70913098;86.84777546000001
6.262893516137235;0.87497693904769;-0.0418068726419904;0.01517852772197307;30.0;53.70933221;86.84785893
5.207799932113782;0.9195146071795868;-0.0305903946160905;0.009554719734385243;30.0;53.70952119;86.84794551
6.746333404507223;0.8280107285984964;-0.0469052717446721;0.009435482575365544;30.0;53.709698149999994;86.84803543
5.685828908130893;0.9907420409185371;-0.0469052717446721;0.010213920116144321;30.0;53.70986723;86.84812259
5.627050045007054;1.2335196055362558;-0.0265116753339451;0.010509244984018527;30.0;53.71003468;86.84820812
3.9695003565908062;1.1967413219355967;-0.0326297542571632;0.01264658785234929;30.0;53.71019476;86.8482914
5.084850208674516;1.2672338547332394;-0.0316100744366268;0.013971226080598404;30.0;53.71035047;86.84838055
7.253509283851864;1.2663012143255608;-0.0142755174875089;0.016824202041159548;30.0;53.710514350000004;86.84850091000001
7.940822615841879;1.2620133169115229;-0.040787192821454;0.017605356052733993;30.0;53.71066856;86.84863464
7.083523542046521;1.3162370160732841;-0.0591414295911083;0.01778002473685856;30.0;53.710811490000005;86.84879036999999
7.399042786020079;1.3668901752794982;-0.0560823901294993;0.016789489188305605;30.0;53.71095085;86.84900141
5.218570972694264;1.2725969995339013;-0.0703579076170082;0.016086685790692685;30.0;53.711080530000004;86.84923093
5.631511958314011;1.3088300956113321;-0.0591414295911083;0.01760109019563685;30.0;53.71120538;86.84948122
4.869702538649467;1.2406892025191;-0.0520036708473539;0.01092110463047831;30.0;53.71132563;86.84976275
4.8099243783741;0.9836326850439212;-0.0530233506678902;0.009226709522057376;30.0;53.71144088999999;86.85007001
4.647701924722088;0.8252073412150508;-0.0530233506678902;0.009507295462178449;30.0;53.7115534;86.8504078
4.69650326887972;0.648345072442424;-0.0805547058223717;0.010887201235883832;30.0;53.71166402;86.85076418000001
5.224201359218737;0.6489988480777662;-0.0530233506678902;0.015604025987530357;30.0;53.71175678000001;86.85110526
5.951873665429471;0.6697955080194178;-0.0560823901294993;0.0175247864331568;30.0;53.71185577999999;86.85147817999999
5.542446267607372;0.6678608496568134;-0.0520036708473539;0.017567008251610162;30.0;53.71195489;86.85184865
6.703893246558505;0.6403255498554485;-0.0418068726419904;0.020828622638829012;30.0;53.71204697;86.85218137000001
5.495953121784643;0.5454282631008464;-0.0173345569491179;0.020640297145727696;30.0;53.71213953;86.85250689
5.932755017054736;0.47704724585092034;-0.0244723156928724;0.01701580887717775;30.0;53.712231020000004;86.85282622
5.997405016582672;0.5408247674423587;-0.0535331905781584;0.028013114059758797;30.0;53.712318059999994;86.85315902
6.054617084530388;0.7744615961406259;-0.0122361578464362;0.02853808372237822;30.0;53.712381789999995;86.85347875
5.502507633882286;0.7796039618049371;-0.0397675130009177;0.02863668908043584;30.0;53.7124146;86.85375476
6.577488200087892;0.8208137087543862;-0.058121749770572;0.028623574779307197;30.0;53.71242704;86.85397712
4.873126528429373;1.1415645890317567;-0.1111451004384623;0.028623574779307197;30.0;53.712412070000006;86.85411575
4.097592925062574;1.1750586704554606;-0.0657693484245946;0.03363312211339222;30.0;53.71236873;86.85416457000001
5.372617643818763;1.4088327173926132;-0.0560823901294993;0.04523215220602737;30.0;53.71230414;86.85414862
4.129691716585904;1.37206238945375;-0.0550627103089629;0.046439951433793;30.0;53.71221159;86.85405351
2.882127780243629;1.2984681571771588;-0.0173345569491179;0.04695650484248622;30.0;53.712093849999995;86.85389225
3.809979098844482;0.9765880085360866;0.0101967982053635;0.04647725155701891;30.0;53.71195186999999;86.85366067
2.082012463951329;0.9706589876782126;0.0509839910268175;0.036744687355205106;30.0;53.71178641;86.85332881
3.021921653650219;1.0895111963145698;0.0040787192821454;0.041337087143699915;30.0;53.71161198;86.85293166
4.229570845016663;0.8211609010449953;-0.0101967982053635;0.03842808758643287;30.0;53.711431700000006;86.85250561999999
3.3768263676738157;0.7421987206173875;-0.0061180789232181;0.032298804304964804;30.0;53.711233019999995;86.85208678000001
2.5095740125262447;0.7413647393124033;0.0142755174875089;0.03082290437366607;30.0;53.711024540000004;86.85172213999999
1.8120452930583797;0.686842281164497;0.0764759865402263;0.040474995651711865;30.0;53.710797379999995;86.8513977
2.8481202784663373;0.8094047791626119;0.0489446313857448;0.038847437003427965;30.0;53.71054822999999;86.85112039
3.3415680187528656;1.0086894436380327;0.0530233506678902;0.04003763866779659;30.0;53.710280510000004;86.85090899000001
2.9549151979557995;2.097307816007642;-0.0050983991026817;0.03965915148100676;30.0;53.70998987;86.85075147
2.7242232245833367;2.160112494623225;-0.0591414295911083;0.03910412655832258;30.0;53.70966421000001;86.85066133000001
1.35506341265715;2.3567394810720255;0.0254919955134087;0.03949568613414656;30.0;53.709314410000005;86.85063153
0.8776710271768184;2.339243567741479;-0.0173345569491179;0.03357484955985973;30.0;53.708943520000005;86.85065999999999
-3.667026817506191;2.235685340124175;-0.003059039461609;0.03126098976317065;30.0;53.708559990000005;86.85073727
-0.7461997214465048;2.114424214359417;0.0163148771285816;0.028534895598750633;30.0;53.70811856;86.8508616
-1.946861062524428;1.8811285562401807;0.0326297542571632;0.03283380457439841;30.0;53.70766936;86.85099864
0.5695206686094328;1.917326811155331;0.0020393596410727;0.028753896197401405;30.0;53.70720907;86.85114251
1.1408095495090282;2.2986562581206664;-0.0158050372183134;0.027626079073905022;30.0;53.70673828;86.85129892
-1.5349380452815449;2.583853153145546;0.0356887937187723;0.028432686893568617;30.0;53.70627247;86.85144750999999
0.3482218355168896;2.3009349165821256;-0.0499643112062812;0.028470449492815422;30.0;53.70581425;86.85159089
2.9369999269865144;2.382892820218002;-0.0336494340776996;0.02836755043717474;30.0;53.70538467;86.85171939
4.084910084173533;2.1301137264327625;-0.0183542367696543;0.025797261312131874;30.0;53.70494498000001;86.85183522
3.9371343722645142;2.143339580956165;0.0214132762312633;0.025687309060601415;30.0;53.704519340000004;86.85193181999999
3.759339633242005;2.1302399134458967;-0.0061180789232181;0.025522341250687253;30.0;53.70409421000001;86.85200077
4.440755591922709;1.3415982387309953;0.014785357397777;0.021665630173473716;30.0;53.703735019999996;86.8520307
4.570382764558619;0.6041175103680334;0.0025491995513408;0.01743887686050655;30.0;53.703394360000004;86.85204331999999
4.826282207624942;0.3830625912804171;-0.0050983991026817;0.014804293345218884;30.0;53.703069989999996;86.85203895
4.787702797066421;0.38504917754218565;-0.0112164780258998;0.016369663741204046;30.0;53.70277025;86.85201313
4.437654070008144;0.351494993163819;-0.0244723156928724;0.016087134631690935;30.0;53.70248279;86.85198167000001
4.884052482242352;0.26849441198031293;0.0081574385642908;0.01592255788225238;30.0;53.7022094;86.8519438
4.407479442544754;0.73957322444399;0.0101967982053635;0.02116200742498495;30.0;53.70192214;86.85190486
4.8355911413881865;0.9558606429517846;0.0305903946160905;0.021554701161521986;30.0;53.70167523;86.85187299
4.90818838136085;1.0027730731201325;0.0188640766799225;0.025298427823379134;30.0;53.701438870000004;86.85184398999999
5.250752840167998;1.0015095441645065;0.0132558376669725;0.023389992143029233;30.0;53.70122648;86.85183128
6.971107165105398;1.0263231983331644;0.0499643112062812;0.01817841252360273;30.0;53.70100453;86.85182949000001
7.004652540883101;1.0547674594237402;0.0249821556031405;0.018076443341602234;30.0;53.7007792;86.85184224000001
6.3353183852369535;1.0432212904167295;0.0591414295911083;0.022849070927686833;30.0;53.700562070000004;86.85186831
4.807156965829942;1.1076380169616489;0.0101967982053635;0.02619582839473181;30.0;53.70034058;86.85191305999999
4.220793128636925;1.3567377493049;0.0081574385642908;0.026303929566653533;30.0;53.70011153;86.85197329
4.480487050309407;1.3901944067986869;0.040787192821454;0.02956333975456607;30.0;53.69987622;86.85205286
4.534606071030738;1.196941786462529;-0.0193739165901907;0.027459979460248203;30.0;53.69965519;86.85214159
4.089087128699228;0.868801727094703;-0.0183542367696543;0.03070743389847751;30.0;53.6994239;86.85223286
2.790994036036069;0.5486240701703011;0.0112164780258998;0.029472686489482643;30.0;53.69919092;86.85233268
4.04137260463935;0.7364404539887929;-0.0244723156928724;0.03863750895894262;30.0;53.69895504;86.85243728
4.305572892123702;2.402619035616458;-0.0091771183848271;0.03825407816865158;30.0;53.69873526;86.85253494
4.349958433987753;3.4543431611591666;-0.040787192821454;0.05447589008369872;30.0;53.6985362;86.85261236
4.507269207884739;3.4016549727674374;0.0530233506678902;0.05575866016829004;30.0;53.69835551999999;86.85268
5.834813950589616;3.3866680216913547;-0.0795350260018354;0.05869278779147828;60.0;53.698203539999994;86.85273538
-2.9067829887851686;3.379550456476887;-0.0142755174875089;0.059985529718212256;60.0;53.69808522999999;86.85278346999999
-4.403661419757302;3.341021863138586;0.1193025390027531;0.06268511126911085;60.0;53.69799435;86.85282314999999
1.8204381197268;3.313295920070412;0.0418068726419904;0.061377234289452215;60.0;53.697926859999995;86.8528555
0.7341507811126906;3.1984654941457156;0.0693382277964719;0.055469186824446896;60.0;53.697881929999994;86.85287713
1.7227466416747397;3.1984654941457156;0.0520036708473539;0.055469186824446896;60.0;53.697881929999994;86.85287713
0.1762139975811628;3.1984654941457156;0.0948302233098807;0.055469186824446896;60.0;53.697881929999994;86.85287713
-1.3492765405804945;3.1984654941457156;0.0448659121035994;0.055469186824446896;60.0;53.697881929999994;86.85287713
-1.7632551150705564;3.1984654941457156;0.0458855919241358;0.055469186824446896;60.0;53.697881929999994;86.85287713
-1.5007185463047603;2.770378791971044;-0.0356887937187723;0.042877236705167895;60.0;53.71694086;86.83986694000001
-1.318778221149234;2.770378791971044;-0.0336494340776996;0.042877236705167895;60.0;53.71694086;86.83986694000001
-1.9911274356662372;2.770378791971044;0.020393596410727;0.042877236705167895;60.0;53.71694086;86.83986694000001
-2.266024779304668;2.770378791971044;-0.0774956663607627;0.042877236705167895;60.0;53.71694086;86.83986694000001
-0.9129005524461836;2.770378791971044;-0.0805547058223717;0.042877236705167895;60.0;53.71694086;86.83986694000001
0.3412646915518912;2.770378791971044;-0.0836137452839808;0.042877236705167895;60.0;53.71694086;86.83986694000001
1.5440005474429397;3.3214582593531556;-0.1417354950545528;0.05518437099440792;60.0;53.71696245;86.83995509
3.9924207754258094;3.349866524758054;-0.0734169470786173;0.055854404228497384;60.0;53.71698375999999;86.84005832
1.65895717962809;3.38662085299168;-0.0520036708473539;0.05062573106143315;60.0;53.71701125999999;86.84017542000001
-6.195026268625902;3.680657332769053;-0.0356887937187723;0.050273076241581754;90.0;53.71705551;86.84031439
-6.439922858169422;3.9601255602847916;0.0509839910268175;0.04963198347345282;90.0;53.71710702;86.84046574
-2.529034679559356;4.226552993888557;-0.0193739165901906;0.05710055254918902;90.0;53.717165890000004;86.84062957
-2.961585819373887;4.420295522795236;-0.0774956663607627;0.049428943511483726;90.0;53.71723682;86.84079266
3.3864170357001395;4.470827644608049;-0.0489446313857448;0.05191907302346026;90.0;53.71732517;86.84095269
3.822084661742687;4.730939541149548;-0.0438462322830631;0.054136046994296666;90.0;53.71743476;86.84110835999999
4.3173624939393695;4.257592026733816;-0.1447945345161619;0.055589334462490474;90.0;53.71756605;86.84125245
4.30745763516722;3.2309047670110527;-0.0305903946160905;0.048178597653050284;90.0;53.717739599999994;86.84139016
4.512112582868939;2.6621186978204734;0.0132558376669725;0.04784702613614465;90.0;53.71792237;86.84151661
5.338753180507955;1.8342728522160785;0.0132558376669725;0.04599510828364258;90.0;53.71810660999999;86.84163429
5.663514105944271;1.8001095498949948;0.0081574385642908;0.04615658046214422;90.0;53.718280119999996;86.84173868
6.011043068279538;1.675557742431761;-0.0367084735393086;0.04691623079099821;90.0;53.718453190000005;86.84183494999999
6.432607216261872;1.6038981998942148;-0.0458855919241358;0.02803161461770487;90.0;53.718628779999996;86.84192605999999
9.769102869829483;1.5410349569897484;-0.0275313551544814;0.028543750618482574;90.0;53.71880417;86.84202465
7.45845418452703;1.4403362998820985;-0.0530233506678902;0.027098043189929373;90.0;53.71897559;86.84213463
5.410609175605678;1.416872005183176;-0.0622004690527174;0.025841334751184414;90.0;53.71914157;86.84226221
5.189801243700157;1.4113352639419536;-0.0418068726419904;0.028225522074002755;90.0;53.719302989999996;86.84240315
4.933998394609716;1.4342243206863456;-0.0081574385642908;0.03448405293194548;90.0;53.719431910000004;86.84254999
6.202794432500247;1.6132964938551364;0.0020393596410726;0.04037443534714208;90.0;53.71955117;86.84270765
6.919880414715737;1.4825955365177352;0.0045885591924135;0.044847916037989315;90.0;53.719662240000005;86.84287504
7.196158158834819;1.688194027999421;0.0224329560517997;0.04219364648475468;90.0;53.71976671;86.84304606999999
7.61917571333232;1.6120016176106173;0.040787192821454;0.033230065304477134;90.0;53.71986365;86.84322237
9.101240815999764;1.4134036563899355;0.0601611094116447;0.0244492321898098;90.0;53.719951179999995;86.84339693999999
9.027483811489333;1.0487663916365837;0.0622004690527174;0.021343091944947313;90.0;53.72003149;86.84355917
9.470584992778075;1.0653236333164184;0.0479249515652085;0.019012844072998265;90.0;53.72010881999999;86.84370562000001
8.314989618313007;1.062790136812512;0.0346691138982359;0.01508950053281559;90.0;53.7201819;86.84382989999999
7.545903314240507;1.0377574997046772;0.023452635872336;0.014527803527969996;90.0;53.72025319000001;86.84393959
8.062858818732117;1.5195351651373716;0.0499643112062812;0.014948446660572302;90.0;53.72032887;86.84404087
10.1651622348901;2.156369517257388;0.058121749770572;0.016009748928527925;90.0;53.72041502;86.84412957999999
10.063760727520986;2.328255185415155;0.0601611094116447;0.01593370943577208;90.0;53.72051494;86.84417062
7.367173820092741;2.2195326951826804;0.0713775874375446;0.03302111695500173;90.0;53.72061002;86.8441761
5.0905205462911685;2.2858668095345642;0.0678087080656673;0.04020967593577199;90.0;53.72069637;86.84414724999999
3.4483679645204366;2.287429823383846;0.0723972672580809;0.047380683438976515;90.0;53.72076971;86.84408491
4.6589446452666525;2.2506189637578906;0.0474151116549403;0.055818196060174935;30.0;53.720821869999995;86.84399370999999
6.688153462712521;1.9736425425634274;-0.037728153359845;0.05781823362026384;30.0;53.720848839999995;86.84387988
4.844136984410644;1.622531323927552;-0.0275313551544814;0.059826140525491074;30.0;53.72085198;86.8437371
5.83218095572783;1.4295653444482939;-0.040787192821454;0.053901115073591736;30.0;53.72083374;86.84355502
5.517528095522741;1.4271288127681472;-0.0652595085143265;0.04786974737850165;30.0;53.7207936;86.84333056
3.474982427354818;1.468491256135635;-0.0469052717446721;0.04198201368248841;30.0;53.72072959;86.84306943
1.9123526798412476;1.5200314951028207;-0.0693382277964719;0.037942808457459225;30.0;53.72063407;86.84280751
3.2935014745884907;1.3584902347748213;-0.003059039461609;0.04197375737544081;30.0;53.72052068000001;86.8425354
3.778103207350791;1.3656364414554678;0.0183542367696543;0.04653935199552475;30.0;53.72039075;86.84224931
2.964620116300443;1.0617261699855838;0.0397675130009177;0.046739990682698226;30.0;53.72025395000001;86.84194355
2.9513680898104573;0.7096505460654216;0.020393596410727;0.04494209809707007;30.0;53.72011932;86.84161436
1.9818284402044115;0.7012120771637261;-0.0790251860915672;0.045121424147651;30.0;53.71998995;86.84125971
2.130018650853879;0.6842618078385265;-0.0887121443866625;0.04331075950506097;30.0;53.719865219999996;86.84089178
2.9546976604277844;0.6888647778354654;-0.0132558376669725;0.04530539557375883;30.0;53.719738830000004;86.84050939
3.828463458535102;0.5886655428283195;-0.023452635872336;0.06182043387192819;30.0;53.71960452;86.84011652000001
2.36443344255822;0.8483181247550245;-0.0499643112062812;0.05961773071500301;30.0;53.71945161;86.83972553
2.03705149296682;0.8261297117620604;-0.0489446313857448;0.058458901108173277;30.0;53.71927846999999;86.83934759
2.2020528467175;0.8168527930273527;0.0224329560517997;0.05435997612443788;30.0;53.719088299999996;86.83899614
2.924181343350926;0.8125970833788456;0.1152238197206077;0.04876064880854541;30.0;53.71888452999999;86.83866949
0.6308510635714452;0.7893223522853999;0.0050983991026817;0.04877959933443858;30.0;53.718665740000006;86.83836622
2.283514766758966;0.9272468420020905;-0.0081574385642908;0.04865213368096143;30.0;53.71842547999999;86.83808756
2.351682978993077;0.927197649383713;0.0020393596410727;0.04558943257118903;30.0;53.71816640000001;86.83783104
2.443994947995203;0.9675788806610908;-0.0458855919241358;0.04318169809385111;30.0;53.71788567;86.83760151
2.2761880456305184;1.1897391192720492;0.0071377587437544;0.044059169516249636;30.0;53.71758753;86.83741345
4.431839611475872;1.1934616514638712;0.020393596410727;0.019775903751803332;30.0;53.7172689;86.8372689
2.383448458703046;0.9461023708277733;-0.0132558376669725;0.021182810365131585;30.0;53.716944739999995;86.83717002
3.397992385780369;1.0672717437166648;-0.0275313551544814;0.022911996063964463;30.0;53.71661938999999;86.83710835000001
4.789112967294157;1.055528032550694;-0.0260018354236769;0.02327518308290017;30.0;53.71629297;86.83707376999999
2.444066797068781;1.1601387392399363;-0.0010196798205363;0.023790647519394394;30.0;53.715966200000004;86.83706956
2.5125631605944934;1.1508183086394173;-0.0387478331803813;0.02654656769144573;30.0;53.71562015000001;86.83709727
1.283585114241365;1.0028219336001585;-0.0418068726419904;0.02076689489873239;30.0;53.71523074;86.83714818
2.698019799817037;1.126337936361478;-0.0428265524625267;0.020339424783156583;30.0;53.71483522;86.83722114
1.3199412180075714;1.1354440570592816;-0.0499643112062812;0.02524860297521156;30.0;53.71443455;86.83730686999999
2.5496627171853508;0.7254021266378621;-0.0734169470786173;0.026257772838961628;30.0;53.714029010000004;86.83739029
3.018465513852295;0.7726685876779905;-0.0168247170388498;0.02557394800719475;30.0;53.71362758;86.83747014
1.021671918435542;0.7659374198806104;-0.0530233506678902;0.025670438075625288;30.0;53.71322084999999;86.83752933
1.3115365254757192;0.7136646079721974;-0.0866727847455898;0.033379224073581924;30.0;53.71281089;86.83756481
2.242109885093209;0.688850318738145;-0.0152951973080452;0.033283908885504386;30.0;53.71239989000001;86.83757621
2.948956371915076;1.0939227173633361;-0.0050983991026817;0.03311130122647828;30.0;53.71195735;86.83755095
2.3846517000373857;1.3531631099574664;-0.0346691138982359;0.02958248174731479;30.0;53.71153790000001;86.83750269999999
2.0924540464650203;1.3973198943979839;0.0254919955134087;0.032030139788932245;30.0;53.71117127;86.83744327
2.203741934033392;1.4086913593381807;-0.0316100744366268;0.03027765197755681;30.0;53.71082256999999;86.83737105
5.023828590860196;1.2410281668177348;-0.0183542367696543;0.023707464458134497;30.0;53.71049213;86.83728636999999
4.991831289617895;1.2889922157614113;-0.0224329560517997;0.023725974786250388;30.0;53.71017752;86.83719703999999
3.840819209266976;1.5521773610865783;0.0132558376669725;0.023756144884666916;30.0;53.709872680000004;86.83710212
5.066096248364664;2.5113542668918996;-0.0137656775772407;0.022969908460741265;30.0;53.70958091;86.83700747
3.322587811628809;2.563260418397698;0.0346691138982359;0.021454307357509333;30.0;53.709304859999996;86.83692342
1.838037896024995;2.603107710301234;0.0040787192821454;0.019004335371685162;30.0;53.70904555;86.83685355
0.643745378374302;2.6361406106207474;-0.0010196798205363;0.02285140925934397;30.0;53.70882979;86.83681187
-3.0745948895371225;2.396571242673129;0.0265116753339451;0.03939130621225757;30.0;53.708614239999996;86.83681648000001
0.9343874171693178;2.2281766027655694;-0.0061180789232181;0.03924586333369852;30.0;53.70841596;86.83693052
1.0425896099411485;1.7476979978208582;0.0132558376669725;0.044901432339732386;30.0;53.708239719999995;86.83711267999999
-1.1687488639223529;1.4964499926785466;0.0520036708473539;0.04588965158087238;30.0;53.70808823;86.83736055
0.3986471376471479;1.381522862935473;0.1213418986438258;0.04708966469655832;30.0;53.707962550000005;86.83768031000001
0.4705017953311546;1.5543403936871238;0.0193739165901906;0.05056902035883992;30.0;53.707862920000004;86.83807732
-0.8669020906013807;1.2204793364994648;-0.0520036708473539;0.05292109343739849;30.0;53.70778391;86.83854359
1.6760338389410192;1.601838481024777;-0.0137656775772407;0.05320521395282349;30.0;53.70771755;86.83905579
0.2255373774337781;1.7792159162148566;-0.0183542367696543;0.05439165937962621;30.0;53.707664290000004;86.83961693
2.313773199390185;1.6848507310865575;-0.0448659121035994;0.05177883860647463;30.0;53.70762841;86.84022617
2.542054014845031;1.6861413539892807;-0.0448659121035994;0.02405096187559865;30.0;53.70760714000001;86.84083978
4.023709986755442;1.6259712453074597;-0.0163148771285816;0.021493530157625583;30.0;53.707585359999996;86.84138376000001
3.51734820677023;1.3454026711199762;-0.037728153359845;0.020851714773452122;30.0;53.70755088;86.84192272
3.671303280047249;1.2819199206860217;-0.0418068726419904;0.021652178627137107;30.0;53.70750327;86.84245879
3.5204801846357268;0.7538958022524714;0.0071377587437544;0.021685367322155712;30.0;53.70744393;86.84299337
3.441728562245498;0.7463860070943398;0.0053533190578158;0.04245320902040794;30.0;53.7073795;86.84351774000001
4.981984209863582;0.889690942437574;-0.0469052717446721;0.048687924437108586;30.0;53.70732022;86.8440319
3.821741547687693;0.8998767088940928;-0.0040787192821454;0.06139620093240271;30.0;53.70728206;86.84454158000001
3.0712780135838065;0.9526813010511208;-0.0173345569491179;0.05877751908265746;30.0;53.70727694;86.84502542
2.357592145076321;0.9385826883073302;0.095849903130417;0.05970813941263235;30.0;53.7073039;86.84545942
1.7392071021445306;0.9759526303740015;0.078515346181299;0.06270824216596643;30.0;53.707401589999996;86.84586431
2.546794957825855;0.9900512748445917;0.1244009381054349;0.06548430064985507;30.0;53.70752938;86.84624298
2.21167757762627;0.917970194480325;0.0438462322830631;0.06321101129694556;30.0;53.70768743;86.84658023
2.782625671686035;1.0636306992255378;-0.0489446313857448;0.06351922367095135;30.0;53.707871309999994;86.84687675
3.990766776755657;1.3239926741700616;-0.037728153359845;0.06460261598241168;30.0;53.70807989;86.84711861
3.708645947025348;1.4927114425005175;-0.040787192821454;0.059983314867290784;30.0;53.70830969;86.84731257
4.617198526246026;1.3527368437285996;-0.020393596410727;0.054199496922875005;30.0;53.7085555;86.8474611
4.888857860950081;1.4030297013093118;-0.0112164780258998;0.026687358406115375;30.0;53.708805889999994;86.84757325
5.701675818493237;1.1422540206758276;-0.0326297542571632;0.012323182074221315;30.0;53.709045939999996;86.8476597
6.073934263926722;0.9096285239777425;-0.0418068726419904;0.012323182074221315;30.0;53.70927319;86.84774359000001
5.238692017048294;0.8551909838800104;-0.0346691138982359;0.012962818276418105;30.0;53.70945352;86.84782408
6.51657030381052;0.7092698796547258;-0.0316100744366268;0.013342272229907696;30.0;53.70962263;86.84790871
4.338799591101873;0.644948123470812;-0.0520036708473539;0.01264887141312916;30.0;53.70978274;86.84799201999999
5.433369511388273;0.904299668796191;-0.0489446313857448;0.01264887141312916;30.0;53.709938220000005;86.8480707
5.821827895819809;1.0578890241834342;-0.0479249515652085;0.014422052498058674;30.0;53.71008861;86.84815453
6.171183181888108;1.08747287624883;-0.0469052717446721;0.014370694035373239;30.0;53.71023169;86.84824129
5.7961862799219865;1.0427349287991274;-0.0509839910268175;0.014552136643848667;30.0;53.71036726;86.84833078
7.830756839664394;1.0452336487863316;-0.0112164780258998;0.01567576943855087;30.0;53.71050082000001;86.8484285
7.662357904840372;0.9369106263208358;-0.0173345569491179;0.016332658727027383;30.0;53.71062995;86.84853715
6.886801399310641;0.920422142290717;-0.037728153359845;0.017522231757507018;30.0;53.71075452;86.8486566
6.615114945012194;1.0201444701682507;-0.0463954318344039;0.021005363053824652;30.0;53.71087433;86.84878665
6.609990318117893;1.0769220537924626;-0.0601611094116447;0.02122694041661829;30.0;53.710990089999996;86.84894081
4.898618723319144;1.1817906313559372;-0.0591414295911083;0.021607229533678572;30.0;53.71109891;86.84911619
5.592176376501105;1.044538632790145;-0.0632201488732537;0.018193737982163612;30.0;53.71119943;86.84931655
4.924500399958872;0.8752974322858196;-0.0805547058223717;0.015653644395677742;30.0;53.71129533;86.84953533000001
5.212599373094714;0.7698441712307008;-0.0571020699500356;0.014884162794846367;30.0;53.711390019999996;86.84977594
4.6440732837283845;0.6096238946191129;-0.061180789232181;0.014322378217662286;30.0;53.7114818;86.85003412
5.060212039162951;0.45583553985164393;-0.0326297542571632;0.015345720196618697;30.0;53.711566360000006;86.85030556000001
4.612938140117242;0.5546969846753981;-0.0795350260018354;0.015916661629497966;30.0;53.711647000000006;86.85058332
4.56484530742092;0.5591128193595649;-0.0438462322830631;0.015878509984738984;30.0;53.711722789999996;86.85086903
5.23364666012265;0.5551977652903388;-0.0560823901294993;0.01589923223707719;30.0;53.711795089999995;86.85115893
5.9942819393269895;0.5710520501612207;-0.0418068726419904;0.016637419870868312;30.0;53.71187109;86.85146533
6.111540099827613;0.5525104394563721;-0.0438462322830631;0.015973175809808206;30.0;53.71194845;86.85176797
5.644777636689042;0.6023190091635736;-0.0479249515652085;0.015671991955947793;30.0;53.71202884;86.85206084000001
5.006690880828521;0.5538069032839285;-0.0224329560517997;0.009453677885152749;30.0;53.71211003999999;86.85235196
4.78552569918114;0.499448395597228;-0.0295707147955541;0.012193123437526383;30.0;53.712191059999995;86.85263266000001
5.581305666014066;0.5028829849974013;-0.0356887937187723;0.015571786612791936;30.0;53.71227338999999;86.85290954999999
6.071837712925247;0.4950924698472053;-0.037728153359845;0.019862392753764696;30.0;53.71235555;86.85317603
5.083943447838021;0.49817396481005216;-0.0367084735393086;0.031140790967816478;30.0;53.712433839999996;86.85344888
6.0535911220461065;0.9465011887202814;-0.0142755174875089;0.036825361789493714;30.0;53.71249435;86.85371674999999
5.996690882616383;1.23128375007045;0.003059039461609;0.040633952982912745;30.0;53.712529229999994;86.85396667
5.881629908676604;1.274403630755362;-0.0703579076170082;0.039723040551981496;30.0;53.7125348;86.85414632
4.995695155534704;1.340595705689187;-0.1091057407973896;0.04012410941486135;30.0;53.712519099999994;86.8542663
2.9458512163493715;1.4284108255276686;-0.1019679820536351;0.042622264135515155;30.0;53.71248071;86.85432263
2.762370603148854;1.4228732121860321;-0.1080860609768532;0.046282432227600555;30.0;53.71242073999999;86.85431642
3.970949666265593;1.3021737017041135;-0.0540430304884266;0.04849658877592316;30.0;53.712337049999995;86.85424553
3.363308727088043;1.0903295761510765;-0.0295707147955541;0.04794013588047652;30.0;53.712229130000004;86.85410433000001
2.390718513998621;0.9026250398972046;-0.0081574385642908;0.054722711478431774;30.0;53.71209622;86.85389462
3.5431556153839208;0.6327200453822515;0.0050983991026817;0.05122767861734001;30.0;53.7119426;86.85361300000001
2.985036520873318;0.6344641869313097;0.0071377587437544;0.04539134368942936;30.0;53.71178260000001;86.853261
2.982062992221919;0.6519133093232509;-0.0020393596410727;0.03251075163441692;30.0;53.71161887999999;86.85286176
1.657005065767561;0.5726850116435858;0.0428265524625267;0.03045716846945348;30.0;53.71144442;86.85244666000001
3.089727623903989;0.5425841148616217;0.0265116753339451;0.029919297259954084;30.0;53.71121753999999;86.85204058
3.122470634280457;0.5409827064656204;0.0336494340776996;0.03261647447383789;30.0;53.71097343;86.85168895
2.4762733446541976;0.6585242859293309;0.0489446313857448;0.03699391268753274;30.0;53.710706800000004;86.85138392
2.30115412832705;1.322739256186294;0.0713775874375446;0.036937658130790585;30.0;53.71041067;86.85112618999999
2.465725484359901;1.2996938606384416;-0.0265116753339451;0.03728134984627562;30.0;53.7100861;86.85092705999999
2.416846569747933;1.918971185487831;-0.0285510349750178;0.03692639693549904;30.0;53.70973311;86.85079422999999
1.1009345691314845;2.108380569089347;-0.037728153359845;0.037738256942136054;30.0;53.709358380000005;86.85071646
-1.2729514710868737;1.983962655473885;0.0112164780258998;0.03701873123416197;30.0;53.708963770000004;86.85070585
1.2176020245343662;1.8698633679571157;-0.0081574385642908;0.034559642049604704;30.0;53.70855513;86.85075033
-2.590378302267841;1.7416118895778128;-0.0183542367696543;0.025636381150703668;30.0;53.70813492;86.85084212000001
-2.07067935410704;1.5621920454683165;0.037728153359845;0.02456560851865483;30.0;53.70774251;86.85096939
-0.2849890690294089;1.4092474372482566;0.0214132762312633;0.023223691381923855;30.0;53.70734159;86.85109327
0.1176203057947465;1.9114367095948128;0.0224329560517997;0.018943066627191966;30.0;53.70694053;86.85121701
0.4629329886466428;2.081705066311934;-0.0152951973080452;0.01908251772219589;30.0;53.70655393;86.85134497
0.7102233092745558;2.331654123974048;0.0071377587437544;0.019776999064307098;30.0;53.70618623;86.85147391000001
1.3780195318763109;2.0633804719115796;-0.0152951973080452;0.018438701024259187;30.0;53.70583945;86.85159049
4.04500915198986;1.6907044113402367;0.0050983991026817;0.014444864300152365;30.0;53.70550761;86.85170665
3.3934031295253693;1.5958348359008077;-0.0061180789232181;0.013102433817610688;30.0;53.70519048;86.85180936
3.95666585517046;1.496751165547151;-0.0163148771285816;0.010273551809829602;30.0;53.704886810000005;86.85190249
3.131599756502129;1.2443320695844435;0.0010196798205363;0.009619039692020426;30.0;53.704599599999995;86.85198136
3.147382482531327;0.9677399073554455;0.0091771183848271;0.010596823539729924;30.0;53.704330170000006;86.85204985
4.093527454652987;0.7592762184403872;-0.0122361578464362;0.011644011358107512;30.0;53.70405929;86.85209897000001
4.603455216686521;0.8439174531007627;0.0040787192821454;0.011764923404915011;30.0;53.70380477;86.85213116999999
3.767714091773209;0.8473988171067409;-0.0081574385642908;0.013084787434091284;30.0;53.7035604;86.85214792000001
4.79602034449899;0.8483005174775411;-0.0224329560517997;0.013474528584870497;30.0;53.703323569999995;86.85214149000001
5.515019930520241;0.7611182995782542;-0.023452635872336;0.015269116587874968;30.0;53.703071810000004;86.85211245
5.209863986846597;0.6430298720403639;0.0061180789232181;0.01508758637460448;30.0;53.70282347999999;86.85206892000001
3.3595758315078736;0.6872425804960692;0.0112164780258998;0.015241854343385887;30.0;53.70257676;86.85201676
4.436147272077544;0.7785840811812004;0.0122361578464362;0.015344590907603047;30.0;53.7023334;86.85196284000001
4.176884796750259;0.7349471296348387;0.020393596410727;0.01639399372691099;30.0;53.70209368999999;86.85191001000001
4.550295818184047;0.7945495661586914;0.0061180789232181;0.014273898856346785;30.0;53.70185643999999;86.8518622
3.626968183773384;0.7444036589911968;0.0152951973080452;0.01071661446065152;30.0;53.70164019;86.85183027000001
5.560157337480302;1.1702654345858772;-0.0040787192821454;0.012982410345999059;30.0;53.70142814;86.85181022
4.544820112574809;1.0523682221976998;0.023452635872336;0.016906402125196354;30.0;53.701222570000006;86.85179665000001
5.538457830968862;1.0659684575932755;-0.0081574385642908;0.017008253972600165;30.0;53.70102106;86.85179994
4.940841429977948;1.0380888679776237;0.0224329560517997;0.018702162158638232;30.0;53.70084402;86.85182001999999
7.462254099487477;1.0183224207964492;0.0346691138982359;0.019961026496041742;30.0;53.70067059;86.85184371
4.875032759831832;0.8784767972305563;0.0479249515652085;0.021670428703673823;30.0;53.700500569999996;86.85186825
5.831580452398913;1.1189656899876026;0.0254919955134087;0.02619803337511437;30.0;53.70032916;86.85188628
4.514474384477604;1.3608804964178334;0.0428265524625267;0.026284322861143954;30.0;53.70015269;86.85189925
5.039037132187532;1.3493723659678944;-0.0050983991026817;0.030643409793273325;30.0;53.699968379999994;86.85190182
4.753782757793611;1.594832518454801;-0.0071377587437544;0.0304435102054205;30.0;53.69977945000001;86.85189464999999
3.067979158820529;1.5810173749777374;-0.0326297542571632;0.029273474674197022;30.0;53.69957028;86.85187492
2.5992062348163447;1.6441564844478205;0.0254919955134087;0.02989534760303008;30.0;53.69934484;86.85185428
4.284547723318588;1.5845709221567421;-0.0387478331803813;0.029656345493349823;30.0;53.699106289999996;86.85182821000001
2.0163944860282417;1.6676035505857938;0.0152951973080452;0.028792992956166927;30.0;53.698853889999995;86.85180621
0.8220504328221635;1.4266763603177892;0.0061180789232181;0.0295445275111843;30.0;53.698549990000004;86.85178647000001
1.7837881804414342;1.1420959009808498;-0.0448659121035994;0.030075465477709774;30.0;53.69823219;86.85177075
0.983288384132866;1.1988545870245617;-0.0316100744366268;0.03530982380210295;30.0;53.69790171;86.85176283
0.4538611783826185;1.2583022642592023;-0.0632201488732537;0.0336264233317873;30.0;53.69755961;86.85176120999999
2.218257873914936;1.023106212075959;0.0061180789232181;0.033077221704607494;30.0;53.69721126;86.85176614
1.6602743670677793;1.0478659842525568;0.003059039461609;0.03177883960421404;90.0;53.696855830000004;86.85177934999999
3.5322236062954686;1.1748856486331323;0.0479249515652085;0.037586879079825074;90.0;53.69649747;86.85180499
0.6114277544577973;1.1749099574167385;-0.0244723156928724;0.03602804567851338;90.0;53.69613011;86.85183187
2.990182380491477;1.138746813365347;-0.0316100744366268;0.03717894882179152;90.0;53.69575813;86.85184901
0.878579507962675;1.2355518635682528;-0.0224329560517997;0.03243960348616472;90.0;53.695383140000004;86.8518529
3.565327823817407;1.2650988565826395;0.0499643112062812;0.03263046236046632;90.0;53.69504505;86.85184249
1.780774396227075;1.2666522392014459;-0.023452635872336;0.033146827004212204;90.0;53.69470921999999;86.85182666
2.323924835157012;1.44966191393275;-0.0448659121035994;0.02929576384979977;90.0;53.69437594;86.85180314
4.465906692226516;1.4740288703625262;0.0081574385642908;0.03187104391778226;90.0;53.69404761;86.85177433
1.5395171877987914;1.4378353021389563;-0.0193739165901906;0.036313583976473246;90.0;53.693722490000006;86.85173081
1.6344817552211066;1.7606484505482682;-0.0275313551544814;0.03655156699194892;90.0;53.693400669999996;86.85166243
-0.3989548891575146;2.3494153540989346;0.0244723156928724;0.029756680658125798;90.0;53.69309255;86.85156423
0.3870322094398049;2.35661087414977;-0.0520036708473539;0.03172426237864327;90.0;53.6928051;86.85142782
1.1900891618792862;2.2842712107764993;-0.0703579076170082;0.03401328138617128;90.0;53.69253456;86.85127247999999
-1.51972849187955;1.8307689331291017;-0.003059039461609;0.03468577133152211;90.0;53.692272100000004;86.85105610000001
-4.162634663866821;1.7756784372782155;-0.0520036708473539;0.035883458668987844;90.0;53.69203565;86.85080685
-0.7038119532799022;1.7431263981986627;-0.061180789232181;0.036251812598076784;90.0;53.69183179;86.85051595
1.1978653199396674;1.7475665978454828;-0.0703579076170082;0.026913023267370294;90.0;53.69165542;86.85018086
1.3634475767884189;1.805826002451697;-0.0866727847455898;0.02891870616817545;90.0;53.691508109999994;86.84980315
0.7490688063246898;1.749444403319222;-0.0825940654634444;0.0470915966701933;90.0;53.69139578000001;86.84939130000001
-1.714109588339098;1.7471255609173204;-0.078515346181299;0.04510218528370443;90.0;53.691315329999995;86.84895245
-0.7528999551412208;1.1159834722055122;-0.0224329560517997;0.047297220705109055;90.0;53.69126164000001;86.84849428
1.198104272412203;1.0762267906299803;-0.0244723156928724;0.052053742123172146;90.0;53.69122351;86.84796718999999
0.4082402559474531;1.3463589953651838;0.0652595085143265;0.05193853938810299;90.0;53.69119309;86.84742733
0.9498458491357744;1.2963188869538338;-0.0458855919241358;0.048938139937893574;90.0;53.69117632;86.8469216
1.6562179622927815;1.3764442014933367;-0.0907515040277353;0.04809892150529521;90.0;53.69115361;86.84642273
1.4162155479901328;2.0446971138617576;0.0214132762312633;0.04462178650031374;90.0;53.69111936;86.84593024
-2.0442983440027622;1.9626284996343981;-0.0081574385642908;0.04482327643881772;90.0;53.69107993;86.84544793
0.3261296418169532;2.0197634148437906;-0.0142755174875089;0.047119555415139444;90.0;53.691030549999994;86.84497870999999
1.737757562918563;1.9975040900151297;-0.07545630671969;0.034392261740145334;90.0;53.69096402;86.84452306
5.831701111900585;2.3700824316889775;-0.0183542367696543;0.03682551864768286;90.0;53.69088506000001;86.84407546
2.1843013594029284;2.3779267203713297;-0.0346691138982359;0.030762876263965185;90.0;53.69079559000001;86.84364038999999
2.905094626539192;2.4241549952685193;-0.0683185479759355;0.025711078340379456;90.0;53.69069802;86.8432817
2.4866151586299705;2.145324277497089;-0.0479249515652085;0.02632911673397691;90.0;53.690596140000004;86.84292126
-2.2962457004068666;2.3490425784197457;0.0050983991026817;0.030218786805840635;90.0;53.69049477;86.84255621
0.7299637086870061;2.400816271785825;-0.0265116753339451;0.02851236616085648;90.0;53.69039285;86.84217781
-0.1752892331436555;1.7657876552182552;-0.0346691138982359;0.02851236616085648;90.0;53.69029033;86.84180137000001
1.5781648660361611;1.6652915243569233;-0.0672988681553992;0.02847810756351363;90.0;53.69018715;86.84141659
-1.6440341930459856;1.4299568522366948;-0.0948302233098807;0.03327501333706704;90.0;53.69008441999999;86.8410297
-0.3422257165444779;1.167318750901446;-0.0499643112062812;0.033569343680918094;90.0;53.689983770000005;86.84064744999999
-0.3356617632297982;0.9662503510620022;-0.0183542367696543;0.028068682048652455;90.0;53.689882239999996;86.84028479999999
0.4517593061694352;1.1286535608430797;-0.0356887937187723;0.04020306720447906;90.0;53.68978192000001;86.83993104
-0.8799517664637786;1.4878810729065661;-0.1019679820536351;0.03880086794061886;90.0;53.68969059;86.83958371
-1.3613051761174857;1.3922518097299492;-0.061180789232181;0.03936838692274294;90.0;53.68960525999999;86.8392475
-0.3665329352955756;1.4893374185647164;-0.0418068726419904;0.03859008783078188;90.0;53.68952304;86.8389272
1.7915386171808725;1.6635288751093287;-0.1519322932599164;0.03794783200899345;90.0;53.68944569;86.83862968999999
-3.1894120495554;1.7991463537549344;-0.078515346181299;0.032888077360326985;90.0;53.689374120000004;86.83834052
0.8381920404305557;1.8700763037681454;-0.0917711838482716;0.04209139409489775;90.0;53.68930793;86.83806953
1.721222058826628;1.9446981576092655;-0.0683185479759355;0.047911721623234794;90.0;53.689233249999994;86.83779516999999
2.2037638252314444;1.9574906745492828;-0.0734169470786173;0.04794908152885816;90.0;53.68915762;86.83753266
-2.0830484254848147;2.3118603127957504;-0.07545630671969;0.047903522650512544;90.0;53.689084279999996;86.83727244
-1.8681614623363063;2.22113143242355;0.0127459977567043;0.046901854214975426;90.0;53.689011189999995;86.83702015
1.54142271381733;2.0653627213686185;0.0091771183848271;0.04770414505219299;90.0;53.68893596;86.83678108000001
-1.5266620912584148;2.119172578391346;-0.0560823901294993;0.049176607597881235;90.0;53.68886259999999;86.83656948
-3.9648880296077498;2.0378715681255772;-0.0846334251045171;0.053528496608113596;90.0;53.68878708999999;86.83638133
-2.155753072831027;1.7949285590175288;-0.1468338941572346;0.06216563416773248;90.0;53.68870541;86.83622285
-0.2895112439005512;2.1089662119844363;-0.0326297542571632;0.06754894606112417;90.0;53.688613280000006;86.8361
1.4450701385355005;2.1120911594444713;-0.0061180789232181;0.07667108190701998;90.0;53.68851148;86.83601612
0.898535865938635;2.146512377794898;0.0188640766799225;0.07997106205747545;90.0;53.68841514;86.83598122000001
-1.3942362966980686;2.1240991627323345;0.0652595085143264;0.07760086125193755;90.0;53.68831849000001;86.83597417
2.912030054159377;1.7549690769097612;0.0734169470786173;0.0806516139196755;90.0;53.6882236;86.83600215999999
1.346089943324552;1.728642666623867;0.1009483022330988;0.06288395297867562;90.0;53.68812467;86.83605682999999
-2.509773945555877;1.7434046069706797;0.0662791883348628;0.060764918450115675;90.0;53.688021819999996;86.83611013999999
0.1206032072332191;1.7428093128233266;0.0173345569491179;0.06082154839789089;90.0;53.68792024;86.83616216
1.3574826688196862;1.832983725198153;-0.1060467013357805;0.06288080677560733;90.0;53.68782546;86.83621586000001
-1.9720146091402515;1.7819038601209036;-0.0326297542571632;0.06167213355400454;90.0;53.68774344;86.83626696
-0.6484990667235984;1.5850376494522709;0.040787192821454;0.05761068161930548;90.0;53.68767517;86.83631389
1.4378096704040069;1.6303031303221986;-0.0071377587437544;0.046836534613715106;90.0;53.687626980000005;86.83634762
2.048864486922009;1.4798616747466287;-0.0265116753339451;0.04000505565793164;90.0;53.68759687000001;86.83637895000001
1.7086088286094014;1.7007020982490277;-0.0193739165901906;0.04118073878594894;90.0;53.68757782;86.83641366
0.0295262905607981;1.7443496068939481;0.0005098399102681;0.030734744714366612;90.0;53.68756614;86.8364327
-1.5067871092458385;1.7443496068939481;-0.0295707147955541;0.030734744714366612;90.0;53.68756614;86.8364327
2.0577203594353373;1.7443496068939481;0.0163148771285816;0.030734744714366612;90.0;53.68756614;86.8364327
-2.176083853658655;1.7443496068939481;-0.0652595085143265;0.030734744714366612;90.0;53.68756614;86.8364327
-1.641321224993559;1.7443496068939481;0.0183542367696543;0.030734744714366612;90.0;53.68756614;86.8364327
