acc_X_std;acc_X_kurt;acc_X_var;acc_X_iqr;acc_Y_std;acc_Y_kurt;acc_Y_var;acc_Y_iqr;acc_Z_std;acc_Z_kurt;acc_Z_iqr;acc_Z_range;acc_std;acc_var;acc_iqr;acc_kurt;acc_cv;class
1.8800009878835995;-2.2413435254046803;3.5344037144433096;2.47285310258523;1.7294480059812842;-0.9624412980441477;2.9909904053926404;1.9937586345669722;0.09822327536251034;2.9348731782211033;0.07749566636076265;0.2182114815947791;0.9311413497618891;0.8670242132363928;0.6949008396864569;2.6476245422943308;0.20234211080225903;30.0
1.8800009878835995;-2.2413435254046803;3.5344037144433096;2.47285310258523;1.7294480059812842;-0.9624412980441477;2.9909904053926404;1.9937586345669722;0.09822327536251034;2.9348731782211033;0.07749566636076265;0.2182114815947791;0.9311413497618891;0.8670242132363928;0.6949008396864569;2.6476245422943308;0.20234211080225903;30.0
1.8800009878835995;-2.2413435254046803;3.5344037144433096;2.47285310258523;1.7294480059812842;-0.9624412980441477;2.9909904053926404;1.9937586345669722;0.09822327536251034;2.9348731782211033;0.07749566636076265;0.2182114815947791;0.9311413497618891;0.8670242132363928;0.6949008396864569;2.6476245422943308;0.20234211080225903;30.0
2.3439569475123325;2.244249546932391;5.494134171791331;1.763460151810241;1.3515268268090066;-0.877911070888791;1.8266247635844224;1.5538704096585374;0.023348960940274683;1.3822195835719473;0.019373916590190672;0.0560823901294992;1.2488653213025331;1.5596645907520792;0.921992840538385;1.3765648280970826;0.25862267045195564;30.0
2.6840576279307795;2.5823192939279522;7.204165350053404;1.9431669328328738;1.007249634382087;-0.7309781017520205;1.0145518259628477;1.1526285029556718;0.017354539153964444;-3.3397460938793238;0.0239624757826042;0.037728153359845;2.5255549215766835;6.378427661900209;1.6155489041402666;2.872223308004834;0.6107229556497313;30.0
2.7023320760603884;-0.6586760586175107;7.302598649304848;3.0741715351238224;0.6970320761467752;-0.43468623906847803;0.4858537151774838;0.7900329144583733;0.018145335393139724;-2.9229141274237573;0.02447231569287238;0.0397675130009177;2.53411456334575;6.421736620161021;2.9439320950165486;-0.9407441155996619;0.6862760842960849;30.0
2.547118780232718;1.3955171139109872;6.487814080614211;1.847435136048853;0.4221972289680743;0.32354681114499506;0.17825050014832056;0.4660836441666456;0.017070122405203583;2.364656254252367;0.013000917711838478;0.0397675130009177;2.3862854570255476;5.694358282411627;1.7597845150865252;1.394488526944098;0.7235898567434835;30.0
1.421776093524978;0.6438168927878483;2.021447260119147;1.5275229115776874;0.1900005159618701;2.7472752721215556;0.03610019606577685;0.15667502713569448;0.04807567778054999;3.7503052835820085;0.0288059549301519;0.10298766187417141;1.2894923960953546;1.6627906395877388;1.399509206084605;0.41606361469677466;0.5748436987604671;0.0
1.3791134293417018;1.6823876319536524;1.901953850990629;1.113210734418482;0.10197433201888383;0.0937154761977439;0.010398764390697554;0.10978537299655367;0.05250030935949178;3.516128648931648;0.03543387376363823;0.1142041399000713;1.3241018672197116;1.7532457547747267;1.090676255232185;1.659345127270571;0.3858848505005692;0.0
1.3916263066569865;1.5761631118747559;1.9366237773797648;1.1956873148840952;0.24244610298859298;0.2547165534978948;0.058780112854355436;0.27388625747513196;0.0526659115940016;3.511116731200808;0.03619863362904053;0.1142041399000713;1.3484620956116211;1.818350023301285;1.2339298168578914;1.425527997522849;0.3985302098735789;0.0
3.054128131161877;1.4574279323141717;9.327698641554338;2.483819609650247;0.38146571989950767;-0.8675485182633409;0.14551609545844965;0.44325025494458825;0.06782403986351532;-5.637036632375844;0.11038034057306001;0.1294993372081166;1.4832635042748445;2.2000706231136915;1.2798077101302234;2.957977655133618;0.48311152049837963;0.0
3.56806962363236;-3.7773344641358033;12.73112083908797;5.226329666740953;0.4914432952794304;-1.1429039372590388;0.24151651247510544;0.573967934208476;0.05998225556185288;-1.6444391151607771;0.07749566636076269;0.1294993372081166;1.5517792102632555;2.408018717405253;1.3517833291915267;2.5382170073502586;0.5175608840790242;0.0
2.6092995507267527;-5.745018655163126;6.8084441454228335;4.291075690946001;0.5694989995135089;-1.2349083357121255;0.3243291104468876;0.6660392952667998;0.06440955112614963;-1.7735171261486986;0.08106454573263988;0.1437748546956254;0.4347403727627286;0.18899919170987622;0.5336000657693734;-1.807319432103931;0.18749916320478227;90.0
2.506141269318442;-5.867141389954197;6.280744061781053;4.206616184695527;0.6893528524203794;-0.6030000682532108;0.4752073551401133;0.7653535179979802;0.07250967987178263;-2.9046639948307185;0.10145814214336682;0.1519322932599163;0.4855870870226193;0.23579481908311287;0.5666120003092967;-1.2183224997721762;0.20648891064146235;90.0
3.3411794305999707;-3.052795803014977;11.163479987464344;4.775711438636443;0.6364888503617734;-2.826900584303841;0.405118056634852;0.8562254658791698;0.04642530294567728;3.6802335617787385;0.030845314571224677;0.09890894259202601;1.2746287420353095;1.6246784300225154;1.0537457031356245;1.9351171384615569;0.42284863349290536;90.0
3.7838456575086625;-5.900148959350333;14.317487959847162;6.38606802487581;0.4531557954627252;2.0654343962049246;0.20535017496145525;0.4248491199151929;0.021542370249129302;2.6878172546364745;0.01682471703884983;0.04894463138574501;1.0944730442146473;1.1978712445124773;1.6363694486724158;-4.579439270915552;0.2996851525671412;90.0
3.136425509673221;-0.2535978301335504;9.837164977728923;3.705855901563753;0.1682568805087575;1.3279507423871202;0.028310377838538306;0.16692435754823687;0.02616957486818278;1.4999999999996358;0.020393596410727022;0.0632201488732538;1.152418664391722;1.3280687780384006;1.677396632325646;-4.169801516402758;0.31913680100434194;90.0
4.465328727059663;1.856356178818002;19.93916064070427;4.421998458759819;0.08747315600555305;0.03654314414968951;0.007651553021571823;0.09133168265051217;0.026685951470055577;0.1092256078266125;0.02727643519934743;0.0632201488732538;1.4082985311811396;1.983304752926955;1.1605923018884887;1.7568776067045633;0.327453152890217;90.0
4.050468987502298;-2.1291752314946564;16.406299018717892;5.092117924009239;0.04930921992492434;-0.7969593365113283;0.0024313991696045555;0.05892746800246118;0.02872651188704686;-3.0204903335780244;0.03874783318038132;0.0632201488732538;1.4432285118088695;2.082908537298044;1.6830088145521174;-1.1088130236257392;0.36927741864277774;90.0
2.7380960716589073;0.23142024609101775;7.497170097633941;2.7151684164982743;0.14265534750038092;3.3979335460926094;0.02035054817045444;0.10770962780777538;0.032109122271211356;0.6840113183062879;0.02931579484042013;0.07749566636076269;1.6505652120957806;2.724365519380789;1.5594765137064681;2.0632068058959963;0.49553050897085943;90.0
2.9982381212515974;0.3930254559501716;8.989431831726307;2.8804853577744955;0.18229796278507338;-5.794412063790037;0.033232547235587995;0.30244801244333486;0.03849094359462826;0.11154467602473517;0.04410115223819717;0.08463342510451718;1.6125359533918209;2.600272200981269;1.4031962618657454;2.2859742532687335;0.47665875018348103;90.0
2.263465871660908;-4.0336766748089765;5.123277752173673;3.3637752027710066;0.2227056499010747;1.5155295246069205;0.04959780649786005;0.16098199640651445;0.04153135588834744;-2.2915416989397652;0.05684714999490162;0.0866727847455899;0.48121445809661395;0.2315673546812178;0.32673954545398676;1.5058140103560955;0.18416389833208996;90.0
1.447888611650886;2.053277876943664;2.09638143174833;1.3816429200947558;0.12392736474654802;3.4674682113227533;0.015357991733023954;0.091587779462323;0.04046621775340774;0.556845587207377;0.046140511879269874;0.0866727847455899;0.30013750039300374;0.09008251914216031;0.49519150111978805;-5.773068440693448;0.12877460474566457;90.0
1.545590546721055;2.290873302210036;2.3888501381134897;1.4326953799709936;0.16364594224363604;1.4674622302579383;0.026779994412807467;0.13324046066824935;0.04784895771041115;-0.39209545281680747;0.053533190578158404;0.11012542061792589;0.24522377530937906;0.06013469997698482;0.34765281657901426;-3.339181707024869;0.10270095543511963;0.0
1.8028080453106952;0.9933708578073634;3.2501168482369693;1.7982876405837382;0.1638590240913456;1.0595802809819315;0.026849779776168172;0.14480531515953743;0.023890048608375142;1.6451087842975358;0.0160599571734475;0.0581217497705719;0.5593989844455128;0.31292722379867116;0.5678959509863906;1.093906078927196;0.21630360365808204;0.0
1.6978521510740054;1.5169811122671835;2.8827019269066274;1.1706084950975741;0.21753761110356232;2.0057255048038414;0.047322612244644714;0.17440237918056445;0.02714947388690937;-2.0065810730772515;0.03594371367390632;0.0581217497705719;0.7180602894549081;0.5156105792920664;0.5569816431169656;2.169582375647275;0.30523486415623713;0.0
1.7230380359681505;0.7629097435360084;2.9688600733929817;1.5742309391870064;0.3654658171157252;-1.6658764871103848;0.13356526348006467;0.4483072459661124;0.022655869091119128;0.49720679815133906;0.021923116141531473;0.0540430304884265;0.9687007586220621;0.9383811597549586;1.016786774298805;0.0735114297504289;0.460849527369333;0.0
1.8469370523672877;0.7753426077123198;3.411176475407165;1.6543255208911125;0.4492009930530003;-0.7549653418559696;0.20178153215980163;0.5022298596671894;0.03564020446040837;2.2069441213201912;0.02906087488528595;0.0825940654634444;0.976514599563619;0.953580763160895;0.5882586824190017;2.778099559503225;0.4984387673717734;0.0
1.1557637796447895;-3.4385695374524907;1.3357899143388094;1.6042371571086802;0.46862439069863276;-1.8483848438474606;0.2196088195576648;0.5761214165550432;0.0384470227880069;3.206214876396526;0.030590394616090553;0.0825940654634444;0.33479437693217784;0.11208727482540519;0.5625948403584049;-5.9032055156800185;0.23890476612678166;0.0
1.1358618143746253;-3.592934891144523;1.2901820613544157;1.590995259046902;0.3858340431741736;-0.9542144693885604;0.14886790887213003;0.4695096982327175;0.03462284754467187;2.8649222619470045;0.025746915468542853;0.078515346181299;0.343965606998298;0.11831233879770757;0.22657854124720544;2.8035296354908006;0.2843404086493556;60.0
1.1231795847039576;-3.203926167675963;1.2615323794957545;1.535379812594798;0.32904187862889694;1.0373979460942486;0.10826855789163375;0.27577598748295434;0.03416941854947665;-1.517752066115678;0.04104211277658802;0.078515346181299;0.6215949172191602;0.3863802411126946;0.5412296823076727;0.9445242977799015;0.6299639193494031;60.0
1.8899214925381873;1.3281270242347532;3.5718032479577695;1.6736726971461804;0.2595395685200898;-4.940116963237317;0.06736078762759438;0.39904532679266;0.020805799861055442;1.625072035210188;0.016314877128581623;0.0499643112062811;1.3851027356748282;1.918509588373893;0.9654006888827565;2.725137632985536;0.9817253997919899;60.0
1.7155143119524547;1.9146139892630885;2.942989354513704;1.5359537376169095;0.252352453897202;1.758020610866236;0.06368176098793947;0.200924035578596;0.06327768526195655;3.117902043269698;0.03976751300091772;0.1437748546956255;1.434299741928146;2.057215749695146;0.979376406469438;3.2520135120589018;1.1067117013019354;60.0
2.5884528697964795;1.3156775863864123;6.700088259157631;2.076259703939267;0.23006428616574504;-0.08293130763334844;0.05292957576895382;0.26135526320408153;0.06359780316028778;-2.022318390980592;0.07991740593453653;0.1437748546956255;1.604180798509818;2.573396034307597;2.510099327697337;-5.199615068109548;0.8881316041215914;60.0
2.632698217205813;2.052930006493977;6.931099902878667;1.9011727126633167;0.1904172962633231;-0.5481184388499774;0.036258746716234164;0.20805449858643843;0.050084473325276664;-1.2482538253083408;0.062327929030284494;0.11012542061792599;1.3458572156670274;1.8113316449630037;2.0678260191512225;-4.960046742202286;0.6623585080218578;60.0
1.509526447365693;1.2689645422213225;2.2786700952964902;1.2449815455113171;0.11165592779488828;1.4314132092307155;0.012467046211737305;0.08519717072384447;0.07188124994400283;-0.33035470157311053;0.07711328642806156;0.1692668502090343;1.0426494361492193;1.087117846702285;0.7133139839767563;3.450411330504693;0.7395922365217075;60.0
1.5625901580196777;0.5354648839470411;2.441688001939961;1.5842038427025416;0.07351960330722834;1.5636072478663987;0.005405132070452221;0.07098852941745226;0.05469859955886025;-2.5526318986314447;0.07379932701131835;0.1177730192719485;1.0706032323427672;1.146191281102781;0.7416648463089964;3.204517753075592;0.775006642209688;60.0
1.4161237336709622;-0.02126274541196338;2.0054064290661864;1.5007287544255097;0.036718703262425254;-0.11765010817729049;0.0013482631692740387;0.03895480132358309;0.053933094665356764;1.2452973641299376;0.04206179259712447;0.13153869684918928;0.8930991058748369;0.7976260129144331;0.6504304836567213;2.89619938655985;0.6922297343576627;60.0
1.89304666471881;-4.54073497944581;3.583625674803011;2.8276528967361525;0.1489692312432666;3.0082928340397608;0.022191831857209837;0.10244772456575624;0.03380357796319108;-3.7179022040882295;0.047924951565208526;0.07239726725808099;1.2659330344602913;1.6025864477378409;1.9062735736471246;-4.629836564193289;0.7013235710713218;0.0
2.2963419322074397;1.1481053212919559;5.273186269614198;1.8579082222843264;0.17583758015747578;-4.829100034425883;0.03091885459563672;0.2753189478094332;0.03744692290300583;-4.559040754506588;0.057611909860303845;0.0744366268991537;2.1073667182406104;4.440994485148201;1.7127565549719161;1.1960646694531167;0.7034600284225863;0.0
1.355723037421048;2.047105752057494;1.8379849541941526;1.1589791390368962;0.13327464834850977;-5.136436601628519;0.017762131892418938;0.21199371113074786;0.05147784337551949;-2.7836941953205425;0.0688283878862037;0.113184460079535;1.342733399621408;1.8029329824588636;1.1601387178786724;2.044826850822652;0.3555500856008977;0.0
1.0873519195848866;1.3851104528901814;1.182334197024938;1.022605521127769;0.3345973092108395;2.226370114818497;0.11195535933113415;0.32535352256406247;0.0446995193426735;-0.017548549769117017;0.0530233506678902;0.09584990313041691;1.084448369291141;1.1760282656582153;1.0791854016569653;0.8738869502760522;0.25816875266011385;0.0
0.8582929906372483;2.4243245757019096;0.7366668577770316;0.6035428555651103;0.43287821884421346;-3.8196632046555727;0.18738355234973877;0.6143604857751253;0.01974382069345633;-2.7917905838750983;0.027276435199347353;0.0418068726419903;0.8366130739317276;0.6999214354734943;0.6343837008449489;1.9009346344941065;0.18487101809527934;0.0
0.28850145295098806;-0.9171912529322999;0.08323308835483119;0.33800282852550545;0.4060937170421724;0.7728241600954586;0.164912107021128;0.40097661462793766;0.016824717038849732;1.5580160904473797;0.01249107780157025;0.040787192821454;0.3349527795882325;0.11219336455388307;0.27354037402859976;2.055660688457362;0.0806911702513284;0.0
0.5877022667190831;2.6588312955083246;0.3453939543067483;0.4990136492773929;0.3395619480858706;-0.24502491420033756;0.11530231658787149;0.36502292511052303;0.016991264402909403;0.41116950982021905;0.0163148771285816;0.040787192821454;0.43648434781400414;0.19051858588661655;0.3268999466202853;2.7586373710779633;0.10651969813637965;0.0
0.6514283936266302;-4.4751619811225645;0.4243589520229718;0.9959582675850998;0.33742901511744505;-2.9900339476816757;0.11385834024312898;0.45326272956229663;0.021652695507544634;-2.76354979064989;0.029315794840420097;0.0469052717446721;0.47444226316327964;0.22509546107549472;0.6899864863406195;-3.9969014949131;0.12088625221086935;0.0
0.450746892784243;-3.128661055201645;0.20317276135464987;0.6397817848654195;0.22013254395148574;0.22879502003976349;0.048458336906552796;0.2206104697092166;0.013664597347286072;3.279659347225099;0.0104517181604976;0.0295707147955542;0.32457362288728586;0.10534803667417804;0.436791697658534;-2.8617062485034523;0.08557528154723537;0.0
0.40759161618446865;1.5720375463644292;0.16613092558386722;0.28095508104578437;0.21415265833757754;0.10985436509261426;0.04586136107305122;0.21705162067751171;0.01567291337711774;-5.727297668038805;0.025746915468542853;0.0295707147955542;0.4110323413911458;0.16894758566948742;0.34014005134902536;1.293261092270054;0.11796573298586732;0.0
0.6856984399912993;-0.4988706263749201;0.47018235060650143;0.7435150223926836;0.26544044455468035;-0.7505749738561249;0.07045862960538633;0.3151389960603723;0.03083161748290162;0.5951431804438272;0.03492403385336998;0.0662791883348627;0.6973466836181236;0.48629239715319533;0.8776126371754791;-1.9953375181893112;0.21735528902386914;0.0
0.6774579048668264;1.9596420420882783;0.45894921286655;0.5006698070139954;0.15343331915621045;1.7651681747778678;0.023541783427291536;0.14889921467025746;0.031096055229890625;0.5210197710717477;0.035178953808504075;0.0672988681553991;0.6669186377863044;0.4447804694267399;0.5196325130747148;2.0567890690881008;0.22196174432224403;0.0
0.3911638949816117;1.226034201277674;0.15300919273718536;0.33186045870308245;0.11838108529362817;1.6259506900042773;0.01401408135529727;0.09627671744877508;0.04779528223030169;-1.4162615587258909;0.05722952992760262;0.1096155807076577;0.3238129947675598;0.1048548555803357;0.3156965940602352;0.8888642454443936;0.11561777362968163;0.0
0.43533953697542693;-1.3581460731230521;0.18952051245397913;0.5537899484687099;0.08640308728437986;2.125147134202903;0.007465493492272165;0.07479494481051341;0.07446499443398194;-0.02771885949775843;0.07609360660752523;0.1774242887733251;0.35858893137632886;0.12858602170561748;0.47824766941985164;-1.904403375984442;0.13469685110879254;0.0
0.44573059129875653;-1.4503097408233572;0.19867576001953913;0.5626008900381696;0.07581310039410752;3.2607595722561165;0.005747626191367025;0.058827562140524536;0.07313122891596663;1.6492551997062996;0.05162129091465276;0.1774242887733251;0.3739625800977932;0.13984801131339838;0.4914906324400161;-2.064314026463199;0.14117392235592569;0.0
0.4716527560597835;3.783391445502062;0.22245632229878964;0.31646847160296643;0.06911906604994816;-1.7379084005512837;0.004777445291617096;0.0872307009524973;0.050920008457143284;1.5492702138066257;0.03811053329254611;0.12338125828489852;0.4012574379865519;0.16100753153953154;0.27236217969542675;3.6813546882327692;0.1590621618710813;0.0
0.5110449863665341;3.8384680385810093;0.26116697809037104;0.2777508074472672;0.14495774094748118;2.5639915510232285;0.02101274666059706;0.1282340484393274;0.06697363872202716;0.008067124771288903;0.07290710716834911;0.15397165290098902;0.49497095344016806;0.24499624474946904;0.2927371076439904;3.8070138809862115;0.23827154723589955;0.0
0.46556326186887964;2.5790106190869153;0.21674915080199098;0.43061640353617214;0.2283122567551348;-2.3677217201235266;0.0521264865846226;0.29784766738042645;0.03431112747709024;1.013237378351235;0.03594371367390635;0.0764759865402263;0.45277904845029393;0.20500886671555363;0.5546533050617977;-0.542447677155943;0.23297484773760535;0.0
0.9299117023334884;1.506210564266656;0.8647357741367664;0.7487114684891485;0.23476888073203034;-1.0539075771903388;0.055116427360170285;0.2755045059527734;0.01293493761808764;1.3655163202940148;0.011471397981033974;0.030590394616090498;0.8140558336295263;0.6626869002662629;0.7920844143608541;0.6946744545252468;0.3732662419348975;0.0
1.424968533875375;-2.98836416951281;2.030535322534936;1.9120598243462896;0.24909408103118916;0.5536571960931127;0.062047861204772625;0.23974048416732296;0.009815797612721137;-1.2948863930632086;0.011726317936168025;0.0224329560517997;1.2796253108358326;1.637440936131701;1.7515791423726572;-3.185120834182406;0.4836761355320172;30.0
1.086223213643871;1.3081445527687272;1.1798808698588188;1.1100930659578911;0.26276192833747947;-3.154480360500072;0.0690438309836307;0.3573941631355658;0.009655601584814625;2.499053357450732;0.007137758743754448;0.0224329560517997;1.0186638733869038;1.0376760869436101;1.0336007814922126;1.3114128125502038;0.3104810774789765;0.0
0.6661089190332428;0.8700098243525982;0.4437010920156352;0.5829815783811334;0.35401460694846043;0.5108798436277429;0.12532634193287293;0.33943939894966313;0.010738960115549688;-3.766800014238214;0.0155501172631793;0.0224329560517997;0.6455588336217458;0.4167462076670689;0.577241292678317;0.7881546807845332;0.1604910083612615;0.0
0.43017745661816936;-3.412184295262243;0.185052644182477;0.5937542658733772;0.44295507922235994;-1.3749591426070502;0.19620920220888718;0.5427514823300681;0.01210444845730855;1.3676901507565944;0.008922198429693072;0.0295707147955542;0.43795032558748276;0.19180048768218216;0.6200098592022583;-3.7449820199495907;0.10026301855931209;0.0
0.4032789885305469;2.5269889106060432;0.162633942590221;0.2910602296214613;0.5297578747746066;-1.4578610118845976;0.28064340588570774;0.6299959971832043;0.032894224090099455;1.4999999999998437;0.031100234526358773;0.07545630671969;0.4195807465388439;0.17604800286609357;0.23592846712640458;3.340739649386304;0.09331197652296731;0.0
0.29034694520077375;1.6347788589427275;0.08430134858742111;0.23034942453241314;0.54740056014712;-0.9229066471188911;0.29964737324938073;0.619447580299475;0.027072771276512187;-1.434152379213689;0.03237483430202916;0.0622004690527175;0.17799798052262442;0.03168328107013258;0.10888724722572096;1.7290992019532112;0.03849788530418223;0.0
0.5354502191259355;0.6716137274263527;0.2867069371620123;0.5925215124336307;0.6039119557813919;-0.9041123618199229;0.36470965033570585;0.6877157322538832;0.02128899615533342;-0.8172298411586336;0.02638421535637813;0.0458855919241358;0.3032983963666752;0.09198991723859683;0.3513786257503222;0.48560656189136964;0.06864026453302911;0.0
0.4527116128867603;1.762447113117096;0.2049478044425319;0.3153036675848533;0.5677586080816697;-2.3668347804466876;0.322349837050835;0.7348321727682623;0.01819480948715152;1.1865575647375017;0.016187417151014627;0.043336392372795;0.31413516012340725;0.09868089882575871;0.3623537499169016;0.18163445421945212;0.07092454692893957;0.0
0.7779473986835199;2.029064673169797;0.6052021551184554;0.5084157488461107;0.3553496172509565;2.4639033786785927;0.12627335048040125;0.2783641650326887;0.016548867356143748;-0.5735177608991098;0.01899153665748956;0.037728153359845;0.7354586881102786;0.5408994819168921;0.6514924718611992;1.6358473396440711;0.15655318852576147;0.0
0.9602442130156639;-3.862130434932503;0.9220689486300717;1.4135458103840453;0.11776632296894471;-2.283265869621111;0.013868906825625795;0.1527374706057012;0.014649212790997485;-2.556422391512756;0.020266136433159977;0.0305903946160905;0.8817110907251936;0.7774144475078106;1.2395502007709664;-3.1283207105417787;0.17406967189212796;0.0
0.7445036656644906;2.745847542480348;0.5542857081878636;0.5076198809315464;0.11000369160932037;0.6544464607944143;0.012100812167678462;0.10120620980322892;0.016713627481247034;3.2289682222022087;0.010196798205363473;0.037728153359845;0.67598438943758;0.45695489476329776;0.5026798655069493;2.2325912853831262;0.11998384147704359;0.0
0.9649598937003631;2.947581985541593;0.931147596450216;0.8134510918889282;0.1625014708900946;-2.0915601953824225;0.026406728041444255;0.20378457235460878;0.010344432747719783;2.341700404842669;0.006882838788620348;0.024472315692872497;0.9531380572254597;0.9084721561315239;0.8331118876083465;2.6745858229395303;0.14864597371113228;0.0
0.8577808937983482;0.5642689238152823;0.7357880617654932;0.8868142465922428;0.13294383475985083;-0.42742876445787736;0.017674063200654525;0.15300180567610688;0.0141658447939735;-3.6286611721166153;0.01988375650045892;0.030590394616090595;0.8377851386871537;0.7018839386050533;0.8907465401511416;0.1675833540875118;0.1252882805567969;0.0
0.9088691949952806;0.37324984402449957;0.8260432136113695;0.9253389847598283;0.08417531584307994;0.632300047540344;0.007085483797282265;0.08477469175385366;0.014785357397777093;3.0037340180175747;0.0124910778015703;0.031610074436626896;0.8362017959548284;0.6992334435580805;0.8895450099165698;0.17321363334117024;0.12502903047493702;0.0
0.9837081564640852;-0.940765146913348;0.9676817370939691;1.2208713330206669;0.0670024589563017;-0.4545836011130078;0.004489329506190894;0.0728189811044535;0.01895800247086685;3.5195974591025916;0.011216478025899826;0.0418068726419904;0.8848710187410296;0.7829967198077875;1.0759318034085013;-0.7234563166536176;0.13354664600692406;0.0
0.8846351235562994;1.4034766224891602;0.7825793018294691;0.6527023204345328;0.05034675284301752;-2.2195803072487923;0.002534795521835893;0.0661913675619652;0.016868434375007735;-1.4066295670463322;0.021923116141531584;0.0356887937187723;0.7699750630135258;0.5928615976626831;0.5925197587590265;1.3108605707175602;0.13024387640830135;30.0
0.6527497007285826;-5.654832966212154;0.4260821718012542;1.0654088018736765;0.028109003976160903;1.8693256538492644;0.0007901161045318294;0.02443513675087594;0.015419321195355377;-0.4277681918245122;0.017844396859386144;0.034669113898236;0.5658620689159404;0.3201998810378284;0.9147803384617088;-5.518773953910631;0.10365957413462541;30.0
0.9099395619989598;1.504115856996652;0.8279900064908587;0.6185879602942568;0.0847699788824179;3.730445470534182;0.0071859493197255755;0.05338673541337169;0.010678276110536705;0.5963913858719199;0.010196798205363539;0.02549199551340879;0.810973128621139;0.6576774153455586;0.5444171961663073;1.4979676239424027;0.16206107922194002;30.0
0.4963985387378725;-2.0250899954540866;0.2464115092610951;0.6558822762197831;0.0900145068540692;-5.821189919883327;0.00810261144418127;0.14943371358251234;0.023048297961606342;0.7288612799837004;0.022687876006933796;0.0540430304884266;0.45490880598973793;0.20694202176700902;0.6284954365105495;-2.7558065241633187;0.09882745174823951;30.0
0.5070668761629574;-2.2369899809510283;0.25711681690166;0.6883602681060177;0.07228199749255335;-1.5446259062102108;0.005224687161513489;0.09262886469580911;0.02313834537456435;2.478015254095425;0.016569797083715698;0.0540430304884266;0.4530402362890028;0.2052454556967955;0.6227897737860868;-2.7139065840721504;0.09846219358309617;0.0
0.46009038995594914;-1.262084090050939;0.21168316692981737;0.5646022311134269;0.058763153935785975;1.309705832342173;0.0034531082604808785;0.04565266377867605;0.02358342565024861;-1.7700022578147792;0.0288059549301519;0.0540430304884266;0.38712451983485585;0.14986539385736772;0.45147720055055274;-0.9906134223903553;0.08542030295981999;0.0
0.37009381862722657;-3.2882292467556606;0.13696943458608246;0.5094834824790642;0.11248250800283882;-0.1288541226554809;0.0126523146066087;0.1197421741172704;0.018642301722017113;-2.445938590344637;0.02523707555827468;0.0397675130009177;0.3580205225551034;0.1281786945706293;0.433869219467498;-1.5695127577825918;0.07869266849632546;0.0
0.4013373186084602;-5.053931131399862;0.16107164330782872;0.6228378936978656;0.21685297173571308;0.34733106723291307;0.047025211350609976;0.21848034195134458;0.023504301851902318;-0.280327419795773;0.028041195064749655;0.0509839910268176;0.438944729537795;0.19267247558900802;0.6798419349317371;-4.868094655498961;0.09846188563742471;0.0
0.2967172542607257;-1.9549630475472082;0.08804112897602413;0.3816364480543184;0.2824777564551016;-1.444799940748295;0.07979368289190768;0.34549227203591926;0.024879630412759715;-2.0453050916116453;0.033649434077699616;0.052003670847354;0.30942574258850364;0.09574429017644692;0.22144010585485585;3.421955497518862;0.07244526043975318;0.0
0.6743069579201796;2.739648611393587;0.4546898734995668;0.5848594719244264;0.3059068226691245;-1.7823629623443669;0.0935789841555192;0.37585968727647634;0.024773183671370106;-1.7108731269697586;0.03288467421229732;0.052003670847354;0.5048884996963519;0.25491239712563313;0.3200530038421565;3.7812370256028878;0.11554096822551808;0.0
0.6238350096750054;-2.978635170415517;0.3891701192962141;0.838959674315571;0.2422030013526142;-0.37958834240062167;0.05866229386421443;0.27410448701135715;0.01504099744854041;-5.885501944244312;0.025237075558274674;0.027531355154481497;0.4894284841624597;0.2395402411095631;0.6441570238775576;-2.2227648170365537;0.10843781963867459;0.0
0.4777720278461207;-1.6537070820955044;0.22826611059219437;0.5870423571198451;0.12949721982566023;1.4185703294155854;0.016769529942575367;0.1332173915497492;0.01425121871672376;-5.496004612755312;0.02294279596206785;0.027531355154481497;0.4245720668604574;0.1802614399581607;0.5262228929347765;-1.254064048196021;0.09281816355371911;0.0
0.385627277995576;-0.8181378539740596;0.14870839753427725;0.47030192245042013;0.05165219849724752;-5.104560248219116;0.0026679496095990585;0.0806813396859627;0.01425121871672376;-5.496004612755312;0.02294279596206785;0.027531355154481497;0.37717761518887627;0.14226295339956802;0.47335419178087434;-1.2703544991960474;0.07875477726741983;0.0
0.5567127065021055;-0.2271261485041869;0.30992903758089946;0.5880687279739094;0.08705458650870888;-0.45622538209068786;0.0075785010322022795;0.10303382099721858;0.01536302556675768;1.6849929166060544;0.012236157846436276;0.036708473539308596;0.5516954847263885;0.30436790786748474;0.59211749441676;-0.3210380904061516;0.1124067107896349;0.0
0.5957915755945954;-1.8806277369856428;0.35496760154949053;0.7618519102170618;0.10727456439984795;-2.1555616118581806;0.011507832167177124;0.13512429711964846;0.013242758396232587;-0.7946773110089715;0.0158050372183134;0.029570714795554204;0.5708489214821064;0.32586849115728406;0.6834406969564153;-1.2263564202334827;0.1170350667929258;0.0
0.45993895133959006;1.4891121252303599;0.2115438389593618;0.2978630643751332;0.09078457304370671;-0.5576058109845352;0.008241838702728118;0.10477818043569842;0.0197964125398561;0.15800324662743748;0.020138676455592874;0.0469052717446721;0.4214403253039951;0.17761194779233722;0.2952139014870232;1.4339703059394022;0.0830172757645626;0.0
0.5403275524431848;-1.1955764575694214;0.29195386392924255;0.6998567755967988;0.05516694840245764;0.7310071297846523;0.003043392196039423;0.05804964593306483;0.023406409163080295;-4.218585694980845;0.0354338737636382;0.0469052717446721;0.4906881925393596;0.24077490229754364;0.6424789943951428;-1.4407238932327076;0.09891346407906855;0.0
0.4083261903320255;1.6073986161593457;0.16673027771106552;0.25419873148839756;0.03513839392411387;-2.73652959354002;0.0012347067275662025;0.04639379855479442;0.024900517191655362;-5.585280021596973;0.04078719282145407;0.0469052717446721;0.3852586541018307;0.148424230560354;0.2468169918356553;1.5764211253516258;0.08375308111828436;0.0
0.5395972336199311;-2.5944383973801166;0.2911651745302825;0.7174783245108323;0.03517489438568477;3.195012803837411;0.0012372731950440776;0.025376551858626417;0.020736971904865297;3.6986217047037044;0.0119812378913021;0.044865912103599505;0.507509362610277;0.2575657531370897;0.6643481523433907;-2.3401299930114057;0.1062527142082414;0.0
0.622875644412504;-3.5493475139082484;0.38797406840229204;0.8896449115500893;0.045217899278180616;2.1309936761636195;0.0020446584151316873;0.03423587972369746;0.02466276460170859;2.460895609612832;0.0188640766799225;0.05710206995003571;0.5899076250163381;0.34799100605241656;0.8309408054932845;-3.343470099435512;0.12152400043534814;0.0
0.7868971428946879;-5.52234640470795;0.6192071134958229;1.2676165318012753;0.08277647467045135;0.5566267853141138;0.006851944758867874;0.07858212192833469;0.03213205109939577;1.6121267807175865;0.028041195064749655;0.07545630671969;0.7147899589246286;0.5109246853794722;1.1755311347766284;-5.739620756521256;0.15132299436284613;0.0
0.961407038835698;-5.185913725891918;0.9243034943228253;1.5171107238484653;0.06973494183584557;1.0126975448493578;0.0048629621128487635;0.06915730222851035;0.02019506711567076;-2.024955306389394;0.025237075558274674;0.04588559192413579;0.8722438665800882;0.7608093627865827;1.3469674463298689;-4.860905326915743;0.18963850146038164;30.0
0.8188974669937339;1.037760886302955;0.6705930614487535;0.8055532441759281;0.3203188576208905;3.2161628869426977;0.10260417054755235;0.22952681773363448;0.016536427796703165;-2.167647356483428;0.022432956051799693;0.03466911389823589;0.7536558907725246;0.5679972016961276;0.5324628617455658;2.6280700189775885;0.1741346365229285;30.0
0.441746697798755;-1.1035358862087215;0.19514014501610455;0.5282837540639607;0.49235389070531527;-3.1797824269995;0.24241235369266154;0.6789178762458408;0.017979840145150805;-2.5309110877266345;0.024217395737738262;0.03874783318038129;0.47703890154550865;0.22756611358774548;0.5661584803252646;-0.6003233983146803;0.12693267689888826;30.0
0.4508099382713771;3.445592613355217;0.20322960044424285;0.2738081505366714;0.5425836942608029;-0.31663148274905417;0.29439706527770043;0.5837340965794457;0.032130702797731434;1.451188610610096;0.022687876006933824;0.0785153461812991;0.49131300735621936;0.24138847119741244;0.6148558700325468;-1.002513527022634;0.1387450982088287;0.0
0.5232899219047447;2.738998162548249;0.2738323423670738;0.4108271423229901;0.4747499921482265;-1.2412043453127914;0.22538755504474114;0.5538721725576945;0.03657013121327473;-2.174612430006155;0.04919955134087902;0.0774956663607627;0.5945595650068257;0.3535010763411058;0.3912094218880995;2.8237528877520965;0.178537408784744;0.0
0.31957425141731877;0.7401126023613127;0.10212770216893967;0.3223767850118149;0.49814786260853905;-1.085798195937075;0.24815129302145592;0.5730682763796398;0.032405931644887635;0.3264679933338428;0.0351789538085041;0.0734169470786173;0.3530963930172119;0.12467706276176536;0.42773975038979906;-0.654682344855571;0.12224668880762328;0.0
0.4574798621038035;-1.8804841196177762;0.20928782423051503;0.5640432644709965;0.4874202206007823;-1.6256313505962598;0.23757847145051528;0.5886501005856748;0.01814533539313948;0.5235124653724021;0.018864076679922424;0.0418068726419903;0.44431697674935317;0.19741757582768527;0.5482458650102675;-1.769851886540021;0.16753894716534296;0.0
0.29172946885567025;1.6847115170516158;0.08510608299881146;0.19703802566615236;0.4410238777573617;-0.930392011587978;0.1945020607521403;0.5046284650877451;0.00834124685891515;-0.7532835305092398;0.009432038339961224;0.0193739165901906;0.2625788129542224;0.06894763301244851;0.24311118232799256;0.632971624163865;0.10556151944669567;0.0
0.1699486319657571;2.711702729482589;0.02888253750703236;0.11816257486818582;0.37849403254319125;-0.9652790422297972;0.14325773267080633;0.43143111195251094;0.013485884038265316;0.8098786123060915;0.011981237891302074;0.0326297542571632;0.2333694678158542;0.054461308508655;0.22499215008657814;0.3878519615658398;0.09450723281206985;0.0
0.418211782969754;1.828848876407875;0.1749010954147406;0.33411963064289596;0.3890363973851927;-0.6505070245180171;0.15134931849044955;0.430389744086061;0.014015189096236464;1.064932522762728;0.013510757622106599;0.0326297542571632;0.529219425692586;0.2800732005303905;0.4704765591840432;1.2729364929227067;0.1942912252947234;0.0
0.6551576454626443;1.565969543736557;0.429231540408156;0.48323122773785965;0.5147324440088928;-0.316074637917124;0.264949488915368;0.5685887978358304;0.01981609849719342;0.9202743031985072;0.0173345569491179;0.0479249515652084;0.42538884279697603;0.18095566757615036;0.36986623376866845;2.9059460044216223;0.15106536014465793;0.0
0.6902151196897486;1.7465575412111765;0.476396911448334;0.6256051400608893;0.6215630949414777;-1.9328720959376842;0.3863406809932283;0.7727915130223968;0.03295738105850194;-0.6155867527813701;0.036198633629040425;0.0774956663607626;0.5813641120705692;0.33798423080360135;0.8313746572959304;-3.819437767470511;0.18576809113577383;0.0
0.799990494929342;-5.164410148308535;0.6399847919772936;1.2540994229679006;0.5657820947208808;-1.2697228287315632;0.3201093787067477;0.6875481475008829;0.0297226902153143;-2.5082469128813702;0.038747833180381386;0.0662791883348629;0.5209872610361643;0.2714277261619645;0.46485244985718444;1.233446262762735;0.16022048148407952;0.0
0.57803857264553;1.9802076467052974;0.3341285914660817;0.538806532098423;0.30337890850557514;-0.4445531526497053;0.09203876212603414;0.3286987231536531;0.01999889967486543;1.9541508850212512;0.019373916590190735;0.043846232283063204;0.5106792007676293;0.26079324609666465;0.4440465104111273;0.9099615914486741;0.1618665649025146;0.0
0.5509568496813416;2.421598412935319;0.30355345021078844;0.5122135272533566;0.40779753786871387;1.0715030709797908;0.1662988318917851;0.3886529949628805;0.05303968917339851;3.7176107545903605;0.03619863362904051;0.1111451004384623;0.5592832437812871;0.3127977467745186;0.47406807298180853;1.009847162160554;0.1789753444780284;0.0
0.5037202544589408;2.734579168155662;0.25373409475218;0.3263509061151293;0.5468301928683013;-2.359483749556704;0.2990232598323836;0.7050430912072985;0.0569014231806003;-5.008407345945091;0.08973182420719888;0.1111451004384623;0.6795971227438138;0.46185224924167034;0.8405951023351022;-1.2090338109842822;0.26032007946930813;0.0
1.081281546299473;-0.18878344123673507;1.1691697823677794;1.2348364837865669;0.6184383305974144;0.6502006305173111;0.38246596875211686;0.5748958926068501;0.04997038036041298;2.984520095240164;0.04155195268685625;0.10808606097685321;0.889202412383295;0.7906809301882713;1.0400712718438139;-1.2499380471515558;0.43365259658005645;0.0
0.9796598729330491;-2.5609982280906163;0.959733466635198;1.3304371168037068;0.6733885595419;-2.5149315330111346;0.45345215212191503;0.8851473681026613;0.010950683996863992;-0.04365331285526608;0.011726317936167997;0.0254919955134088;0.8652183942417592;0.7486028697342881;1.0509307130497434;-1.6629045046521327;0.6181757237527813;0.0
1.0682729244034492;1.4389529460960357;1.1412070410134973;0.7860953023066168;0.7081724786355436;-0.8785362580766893;0.5015082594968093;0.8109779169406006;0.011670768983643777;-0.084260823972782;0.012236157846436176;0.0275313551544815;0.6535693791275743;0.427152933333203;0.9014568472993488;-2.764633440253199;0.5227894547540103;0.0
1.6486514150072447;0.2307383505287266;2.71805148820539;1.9033105111495352;0.6183164587013235;-0.6365231464399344;0.3823152431009455;0.67959855364308;0.012988415624407956;0.46724485458703313;0.01300091771183845;0.030590394616090602;1.5247047889423306;2.324724693423677;1.499426024031436;1.2991927764654232;0.8483905226548252;0.0
1.4631916838353598;1.5115179572403523;2.1409299036449556;1.01471970398816;0.5436531724081889;-2.051850853205737;0.295558771869488;0.6820273218556743;0.03209967622860638;1.3736891356210421;0.030080554705822375;0.0744366268991536;1.427918704415996;2.0389518264210564;1.1341046847031413;1.2683340697616998;0.6810895459244023;0.0
0.9843905670645283;3.909145398255074;0.9690247885256237;0.5751090175539448;0.5190521093987736;-0.17182380803915187;0.2694150922713164;0.5422295229532809;0.03060596909307902;1.184399582876713;0.024727235648006426;0.0744366268991536;0.9257338890222978;0.856983233284348;0.6214224733815623;3.1575108470258826;0.3609369212386607;0.0
0.9200871491004274;-1.0784143167751203;0.8465603619397523;1.1652360400714414;0.5646528732988915;-0.7046561598461558;0.318832867324694;0.6412189094183147;0.03222763633738278;1.184351621879049;0.025746915468542776;0.078515346181299;0.8505129120362541;0.7233722135403889;1.2845013831175174;-4.470990518906612;0.28629025302144057;0.0
0.45760942524054643;3.6924043370706734;0.20940638606898324;0.2877071446062782;0.6040660175354379;-2.306957029808629;0.3648957535411239;0.7702867701648679;0.05502729336935662;-1.1361835210805822;0.063984908738656;0.12745997756704391;0.603715910220479;0.3644729002533414;0.8690028169673418;-3.728690622919151;0.21911234892520054;30.0
0.897093265142445;1.5680536519830248;0.8047763263639331;0.6505982200191169;0.5321494258284604;-0.3418974875322789;0.2831830114095601;0.587074650953257;0.07002461390186356;-0.5065217500779298;0.07749566636076273;0.1631487712858162;0.4916260076388306;0.2416961313868955;0.5825024335150357;-1.3960055424413245;0.1711207751615156;30.0
1.9838631226381607;0.19836800870662863;3.9357128893636335;2.138838781157671;0.33677942417295437;-0.6840594142027818;0.11342038054626673;0.40323424776391237;0.058288475755269444;-2.780947306016973;0.0820842255531763;0.1203222188232895;0.3273765185985909;0.10717538492973355;0.24800725055058148;1.352660593575532;0.10653072315727918;30.0
1.790265546061732;-3.37330585853452;3.205050725415712;2.5744489177917247;0.17887325087291314;2.7975068057580224;0.03199563987784412;0.1586533867649318;0.06914990610960493;-1.043185677833801;0.0884572244315285;0.1458142143366983;0.20966231504420377;0.04395828634969495;0.13051511711251917;3.479147319938704;0.07063750418910626;30.0
1.1050685869069012;-2.001739006856811;1.2211765817684157;1.4618873719938832;0.07055753162004974;-3.1402620120718563;0.004978365268314319;0.10015279271048838;0.08131480400847847;-5.946612013310391;0.13816661568267566;0.1458142143366983;0.28951727486652207;0.08382025244613729;0.4334391186177129;-4.54661060679976;0.10213572172704559;0.0
0.9913989041223452;-3.1522557629874246;0.9828717870949871;1.3930124670351818;0.06891398471080516;-1.6031437531293413;0.004749137288721088;0.08989808045693204;0.07094167854323666;-4.358616913909039;0.10706638115631692;0.1437748546956256;0.30029712179030804;0.0901783613555431;0.4701828062319118;-5.207857279392217;0.10639835587608139;0.0
0.9593915072682956;0.052229771415879256;0.9204320642185321;1.1005604397608533;0.06822748508188886;-0.5107929323081173;0.0046549897205993675;0.08319378310677239;0.0500048305175731;3.895866208735903;0.030717854593657598;0.10298766187417151;0.23501332193680685;0.055231261487773214;0.14644320622678864;3.5599674504813557;0.0874147185544453;0.0
0.9210384237022081;-0.2574446394944374;0.8483117779358483;1.079221214343803;0.035957288867306675;3.214177726501532;0.0012929266226869367;0.02518154524959204;0.04695765809742831;3.278749474584835;0.03607117365147343;0.101458142143367;0.147038987113565;0.021620463731383138;0.10157177021452624;2.9704483253081158;0.05562041511390426;0.0
0.9170744324936376;0.4686363894919072;0.8410255147335275;1.015594239458178;0.08743512587490591;1.9579822824868085;0.007644901236760642;0.06570129109458955;0.044132576258742666;2.7616959029706294;0.031482614459059845;0.101458142143367;0.19759962783721724;0.039045612921406764;0.13855491701783107;1.4708677945628512;0.07580648402104546;0.0
1.0432595693115585;-2.6984657057359165;1.0883905289601383;1.426426774452929;0.11978609234012662;-2.170888158717414;0.01434870791811734;0.1600200092677153;0.012594696978724795;-1.3571774417023779;0.014912817375344129;0.029060874885286;0.2124442781212717;0.04513257130646824;0.25290332606521027;-1.1062353733232513;0.08032683837899214;0.0
0.6637843782289756;3.4283852727286828;0.44060970078082784;0.501163901570391;0.26588657310558483;1.7269481875151182;0.07069566975783152;0.23651508812763744;0.01780550954133921;1.1805312422105487;0.016569797083715698;0.04180687264199041;0.22440758915960693;0.05035876607242693;0.31723115737672725;-3.736785784546548;0.08554381618659336;0.0
0.7403672781079295;3.5820788992741086;0.5481437064929442;0.44681725398390815;0.509789789394053;0.40887578479604514;0.2598856293704329;0.5666538592468089;0.017113212841404494;1.552844788346377;0.011216478025899902;0.04180687264199041;0.22440534039448143;0.05035775679756308;0.2260346190512652;0.411231657913973;0.09094893055643387;30.0
0.9083958783855732;3.670436772427024;0.8251830718678971;0.633042474315902;0.7061446175148427;-1.917508205849554;0.49864022084518345;0.8802723982255729;0.02397693496375558;-1.1896534158960748;0.028296115019883775;0.05506271030896301;0.5764605358383013;0.3323067493789814;0.5300578629830852;1.5525055765462739;0.20843651964883594;30.0
0.8301954810484317;0.7483742146893348;0.6892245367532368;0.8886279672131607;0.7076959750252536;-1.322894289109053;0.5008335930669444;0.8419860343951571;0.022791231654176774;0.7138676169530616;0.020648516365861146;0.05506271030896301;0.5989118005696105;0.3586953448615328;0.3768266430569742;3.3725600904681734;0.22300147417628258;30.0
1.2041329509844192;-1.6966043236777715;1.4499361636464458;1.4892504872947518;0.523885957791871;-0.4375737565436335;0.274456496771506;0.5996266681792829;0.013790831874285786;0.5739322647748075;0.013510757622106705;0.0326297542571633;1.0891393791433865;1.1862245872008417;1.4317444353528725;-2.0041486894590363;0.3396435675797197;30.0
0.8870134460038609;1.250801722788033;0.7867928533916442;0.7112060912131528;0.3198742101936458;0.6006990339805629;0.10231951034700872;0.3357527102248722;0.011304964732376372;1.707840275779306;0.011471397981034005;0.0244723156928725;0.8838586112425015;0.7812060446675234;0.752178467849784;1.028410167773382;0.25486231575878804;0.0
0.8863927479883247;1.60671256579883;0.7856921036862937;0.6230140509866606;0.15468646961475582;0.8249839739847555;0.023927903881876777;0.17388566998507238;0.016216329095496584;2.896858995409783;0.014020597532374883;0.034669113898236;0.8816375601859056;0.7772847875305562;0.6196957437979598;1.6202726925318274;0.2575008569863341;0.0
0.6083488726818332;3.7034922874254264;0.3700883508932573;0.38035508130904017;0.18813143920868378;2.6446761896372095;0.035393438418730674;0.11184302352466982;0.019203217962442336;-4.910763751484032;0.029570714795554176;0.0387478331803814;0.6055055820978762;0.36663700995168785;0.39637012018133344;3.626656690559642;0.16434317854573416;0.0
0.278958773246938;2.7189900701676777;0.07781799717143659;0.21277922522902415;0.21528311288552335;-4.968167282062998;0.046346818693680986;0.3408546101557892;0.017747018796234464;3.4852672228013972;0.011981237891302173;0.0387478331803814;0.29230262153362296;0.08544082255542844;0.23652340431059216;2.5154829645700936;0.08293330030996471;0.0
0.3030027996571385;2.070649126695537;0.09181069660006402;0.23272503534115963;0.1860266173651948;-2.701107163466501;0.03460590236833659;0.24469299939370628;0.0029288073042392634;1.6492194673875975;0.0017844396859386241;0.007137758743754499;0.3146143165632236;0.09898216818654428;0.255070088530577;1.9500808439547477;0.08973586889370204;0.0
0.5122546047107523;0.24809461400475108;0.26240478004736917;0.5045353771542409;0.12297217058471742;-0.9848164186812625;0.015122154738316839;0.13999506079245216;0.008986305065362445;1.9662546740595381;0.0081574385642908;0.020393596410727;0.5190405216321278;0.2694030630961513;0.519888919762066;0.12449021707269736;0.1556608819386737;0.0
0.5028822168278748;1.5557387691988396;0.2528905240017177;0.34677724196878845;0.12185494945234925;2.3306935709453693;0.01484862870603459;0.08608383661769958;0.009727125537033645;-4.241758241758044;0.014275517487508825;0.020393596410727;0.5094396895753314;0.25952879731461004;0.35461506729682224;1.5874840217166764;0.15534823544161394;0.0
0.2688946850697648;3.868733527922238;0.072304351658768;0.15843057852387155;0.08415742474188379;1.3948523237072532;0.007082472139185833;0.06535149911684807;0.009615135556109369;0.8660215425882569;0.00943203833996125;0.0224329560517996;0.268126565847838;0.071891855313355;0.17192465468160378;3.8187662216280955;0.08635265434991676;0.0
0.25905288000756854;1.2433135393372527;0.06710839464021572;0.2737765155929264;0.14808156102933445;0.9030442843535944;0.0219281487168845;0.16106618208964318;0.015851566998213162;2.7039239001189763;0.012745997756704399;0.035688793718772205;0.26031677541344045;0.0677648235616516;0.247034268075621;2.3132119904174466;0.08451893600132945;0.0
0.5180683118628487;3.323030305108027;0.26839477575642184;0.4075593573153764;0.14532526120525943;-2.0975335304628846;0.02111943154437688;0.18661271821037229;0.02331739698516723;-3.2024253583276074;0.0318649943917609;0.0509839910268175;0.49652651995807123;0.24653858502167292;0.36756826508439566;3.550754290093135;0.16777675138266954;0.0
0.5254362888861641;3.2009883079588057;0.27608329367846446;0.4158737686063887;0.10559191217840103;-4.527673566429604;0.011149651917491156;0.1596517028929927;0.022806433411180608;2.4855148637575493;0.0196288365453247;0.0509839910268175;0.505995559552469;0.2560315062868162;0.3786547375756806;3.4008436311517514;0.17033823925975883;0.0
0.9731375592004281;-1.1714667172597544;0.9469967091265667;1.2044170753635082;0.11851851383529073;-4.701509843818128;0.014046638121726;0.18003807856018228;0.015132886794795105;0.7586106490789906;0.015550117263179298;0.034669113898235904;0.9625562537617562;0.9265145416558666;1.1884986114216742;-1.0334678853827466;0.391498269097228;0.0
1.6669689855634584;-0.011508864454276235;2.7787855988304657;1.739932480908943;0.13287380723107622;1.334161599096623;0.017655448648081207;0.10095406438657772;0.025244370192989574;-3.0524309318475353;0.034924033853369923;0.054043030488426604;1.1613903293412844;1.3488274970874572;1.4230479069497086;-1.505966583370343;0.6265185304401782;0.0
1.96411301154354;-0.853025631177939;3.857739922114634;2.411042527586841;0.15948802713111201;-0.4065567437448365;0.025436430798174318;0.19051610354876847;0.031805457449122734;-1.9473501552118382;0.0395125930457835;0.0723972672580809;1.1920752301566004;1.4210433543529117;0.8038545500436087;3.414619248107485;0.7697225209991018;0.0
1.191427051196642;2.121672499948213;1.419498418323126;0.9617257243164382;0.21837470003832338;-1.56316897903808;0.04768750961682771;0.2631276378125089;0.042201893991747;-4.306318158098888;0.06194554909758327;0.0887121443866625;0.4022172532749899;0.16177871883207737;0.3881793860140832;0.48119262934621787;0.35499178033628287;0.0
0.978197450725387;0.5630565174633251;0.956870252605646;1.0352292621506125;0.2696817593444216;-0.4170902469155102;0.07272825132310255;0.29310284028115025;0.04173219522724807;3.3800418801514986;0.03211991434689509;0.0887121443866625;0.9791076664426149;0.958651822486703;1.0358344223643532;0.6715335861680938;0.628550504895542;0.0
3.4895085599094746;2.9757875183763325;12.176669989681494;2.8331938215034067;0.2752706518351842;-2.5165339336458423;0.07577393176176718;0.35642275890707553;0.03024142979671742;2.8040100342860335;0.026256755378811086;0.0652595085143265;3.495077670411602;12.215567922209791;2.8538502598947506;2.9479097137742727;0.9841365487915964;30.0
3.2339151161059223;-3.385511442628953;10.45820697817838;4.488721940150139;0.2680564713809562;-0.24725328493375542;0.07185427184920938;0.284879633596749;0.04576363476235156;-4.373147578930206;0.06959314775160601;0.09177118384827151;3.2402028275701444;10.498914363793558;4.503722004016505;-3.4175645082646984;0.6556227571439308;30.0
2.3843570406767296;1.6607101819498844;5.685158497424691;1.7265335325652815;0.15069707161754778;0.7675818083766917;0.022709607394104325;0.13689689484693934;0.03750587899761044;2.391139834937089;0.023707555827470157;0.0887121443866625;2.381870915864567;5.673309059841511;1.7332547030893615;1.6674234137669455;0.39211170659342953;30.0
1.0996265046216058;1.2326207447081519;1.2091784496663307;1.0933492070548825;0.10824755355360478;0.5818874700028029;0.011717532850340537;0.10928173796057239;0.014596625513652366;-5.306897453330345;0.023197715917201902;0.0285510349750177;1.090978197957676;1.1902334284189784;1.0700935939139864;1.3159595702399258;0.15277916476472123;30.0
0.46400127643712913;-2.700609137933748;0.21529718453528512;0.6275073762884471;0.16771668688317073;-0.8435181870191428;0.028128887059067537;0.188319641647668;0.028362255666086435;-0.13423435982755016;0.03313959416743133;0.062200469052717304;0.45290781600539276;0.20512548979877468;0.5978087873532765;-2.339766632046686;0.06725442404522534;30.0
0.45355423115922994;3.25652865570024;0.2057114406024402;0.32420391417619054;0.3155922037335523;1.8845802867786183;0.09959843905739997;0.2854435637564354;0.03641461143872967;-2.1568240686266424;0.045885591924135806;0.08259406546344439;0.44388767823946057;0.19703627089281886;0.3275494131403178;3.1025954408802114;0.06504485243204651;30.0
0.12046337826171954;-0.9429777397095602;0.014511425502226125;0.14184636260095562;0.351561834335455;-4.625570199566582;0.1235957233613099;0.5273872055388431;0.035911457551307306;2.564593512232328;0.027531355154481497;0.08259406546344439;0.1279359134741234;0.01636759795645839;0.15247219478145357;-1.001417882295213;0.018278101275964815;30.0
0.945974489040296;3.914737134302886;0.8948677339150491;0.5327367417813518;0.31614065903863053;1.890773372989706;0.09994491629737963;0.2774780563064696;0.02043391887392781;0.6858445470799932;0.019118996635056618;0.0489446313857449;0.9422888640849318;0.8879083033784712;0.5301075566256772;3.905830738161626;0.14553772336442214;30.0
1.102726644098092;2.592374381199704;1.2160060516038402;0.6861390847815452;0.19948565500443835;-0.6754686791077322;0.0397945265525498;0.22337149086457558;0.021348436487464262;-1.726310919631798;0.02600183542367702;0.0489446313857449;1.10325635831902;1.2171745921713457;0.6859990508743214;2.544601720258431;0.16639300811357655;30.0
1.7187013093939527;-2.9481976910091205;2.9539341909124874;2.310693950315481;0.3063148100956669;0.33001976835877045;0.0938287628839445;0.32310722496852584;0.013382690678501601;1.2484048525335893;0.010451718160497645;0.0326297542571633;1.682520247120338;2.8308743819698834;2.2817089343341577;-3.108937082413071;0.2856945580227281;30.0
1.75971299338762;1.8787889736062322;3.0965898190972183;1.7652294369304817;0.2886369645807867;-3.805224908299504;0.08331129732241033;0.424303973914672;0.009510940198927773;-5.434535605760676;0.015295197308045249;0.018354236769654298;1.718491603460449;2.953213391164065;1.668511294301088;2.140385531772388;0.33121968522604267;0.0
2.0655517837640978;3.265344796969778;4.266504171411046;1.2434822633452542;0.20447769969849866;-5.436035675735598;0.0418111296739894;0.32794146350338926;0.008591974888524522;3.5457250545499477;0.006118078923218095;0.018354236769654298;2.0340660647347737;4.1374247557056085;1.2353144765757786;3.1778454519496613;0.4342601873131406;0.0
0.44261564550532007;3.2140359792923263;0.19590860964609116;0.32725688171274037;0.423808425977086;1.166758173296273;0.1796135819291752;0.456942918731127;0.03181056498186702;2.433691140374785;0.029953094728255247;0.0678087080656673;0.4598198560842024;0.21143430004929661;0.4207109703320788;2.1677278894670575;0.12409780315176437;0.0
0.7659444971441919;1.135132449622139;0.586670972705469;0.6290581262466484;0.6342641439110732;-1.9502734034528224;0.4022910042512466;0.7933732840251997;0.033052873279599784;-4.586960177888864;0.05034669113898227;0.0667890282451309;0.7568199335675115;0.5727764118451325;0.7032065675869914;0.6041147514408731;0.1924536041792866;0.0
1.1557748795841634;-0.4301888181999942;1.3358155722777871;1.248574061432624;0.6421466938965057;-1.2942592395725239;0.4123523764822125;0.7612376462354732;0.03748016936023805;2.772729556958417;0.02510961558070763;0.0866727847455897;1.0954405445906619;1.1999899867330859;1.1655748176537388;-0.21399816515101655;0.31411351677206834;0.0
1.2818682697191397;0.3833022667345567;1.6431862609127412;1.492488589323235;0.49248402729509666;-0.604117513194879;0.2425405171407975;0.5626147631213358;0.03748016936023809;2.7727295569584207;0.02510961558070765;0.0866727847455898;1.2425519644936793;1.5439353844671018;1.509732202900314;-0.34027597977748236;0.3136056136001662;0.0
1.3131319309013192;3.7459712144864064;1.7243154679526267;0.9002996762442512;0.3381236413357315;-0.18647428043690795;0.11432759683013438;0.36918135692111176;0.03842786211116788;-2.3675256193413556;0.0491995513408789;0.0866727847455898;1.2784670978506734;1.6344781202867231;0.7868366352476777;3.8734737359474884;0.304171440030179;0.0
1.241077091251751;3.5852918060650616;1.540272346429907;0.7911667405027778;0.3162970737385585;0.1678652650111072;0.10004383885557509;0.32086167571481816;0.036853350399716746;2.5348320780202087;0.021668196186397447;0.0866727847455898;1.2463720544752521;1.5534432981768609;0.6951878104367726;3.8151233769248094;0.3002190748110092;60.0
1.1647644028269626;3.4751553103742765;1.356676114092851;0.8447851935615285;0.4035878295591118;-1.2066494602967346;0.16288313616823472;0.4845478428883707;0.04628324346603996;2.492212535423988;0.043591312327929024;0.0978892627714897;1.2028626627370964;1.4468785854069777;0.8056102901413569;3.7736177856127355;0.22400444779813508;60.0
1.5845147453599848;1.9621357978533602;2.5106869782632173;1.067919272161845;0.44275499169482174;-1.9284127802004267;0.19603198267068167;0.5491623605206137;0.0462157997238853;0.6780215295855179;0.05276843071275618;0.0978892627714897;1.442245517586701;2.0800721329989313;0.8670728417655287;2.821646742362791;0.28341031309027764;60.0
1.8238477932029566;-3.5026739728414125;3.326420772771295;2.6172005231137714;0.40019530331386266;-0.4805112145584598;0.16015628079447453;0.43787967074608725;0.04422304084758734;-2.2293445570652484;0.05735698990516975;0.0978892627714897;1.695769025910426;2.8756325892371954;2.642272399231768;-4.794384604933475;0.29851783426629186;60.0
2.003530136951612;-5.6710899369413115;4.014133009673344;3.2723799544932732;0.3346166980360308;-1.3898595948886534;0.11196833460453622;0.3961674126255188;0.03457401328394302;0.9655597897057433;0.03262975425716323;0.0815743856429081;1.735856220288041;3.013196817512684;2.784474760004117;-5.294744210681657;0.3081459149840461;60.0
1.9876064363846568;2.3684901775071356;3.950579345957715;1.4862761592320033;0.314084494742814;-0.9470898665942205;0.09864906983784875;0.35690892335745206;0.06922504593231603;0.48262651619221586;0.0690833078413378;0.16314877128581617;1.598207188474197;2.5542662172905977;1.3578627125007534;2.8397556993121107;0.3371016359122739;60.0
2.650034671588234;0.3332638707681035;7.022683760619761;2.7145343632716585;0.21120010079281437;-0.7959201995514178;0.044605482574894946;0.2573154603575514;0.052447470538131515;2.4209493409985896;0.043591312327929;0.11930253900275309;1.7974877787967747;3.230962314923763;1.6777381143071661;1.7839892626988476;0.396404688879443;60.0
2.2333816606480954;-0.6260521975486739;4.987993642119244;2.4699824226523015;0.10056601856409375;1.0527005591808098;0.010113524089833648;0.09970750124232941;0.05515076038740177;2.021019869387656;0.0458855919241358;0.12847965738758027;1.453153459938299;2.111654978130649;1.4919499987279927;0.7451475242174848;0.3341590162398105;60.0
2.5730973908017463;-4.1830575388724895;6.620830182550755;3.852398183223926;0.040225984621459564;1.5448913526030665;0.0016181298387659014;0.027072156356167998;0.07552058347573701;1.3248744046971073;0.06627918833486289;0.17946364841439788;1.708995990396189;2.9206672951902513;2.7217851415005816;-5.318746803799295;0.3591358706850343;60.0
2.7959177108072115;3.3284639485905103;7.817155845605439;1.7666537426246416;0.07912406044210842;1.6532534480390204;0.006260616940846425;0.08176302472563934;0.03424667201742983;-1.175921734319303;0.039767513000917715;0.07953502600183551;1.8373945071118973;3.3760185747649722;1.2132286675444366;2.9574428892774023;0.3246141178293091;60.0
1.1950026111561542;1.5324232975106291;1.4280312406700268;0.925681715941117;0.2378351463476947;2.2298369159980638;0.05656555683822936;0.21718262189964266;0.02212180428302648;0.29039635981307477;0.02345263587233607;0.0509839910268176;1.1394378254036168;1.2983185579605234;0.8440354112657502;1.8643226941884734;0.1889791915163907;60.0
1.6593659791603625;-0.9852205695567644;2.7534954527948288;1.9237631595092335;0.46617837893346326;-0.3740481820008039;0.21732228098503167;0.5345521387426495;0.010042681555823699;1.3472207460925532;0.007647598654022647;0.024472315692872497;1.4651343903671532;2.14661878183653;1.6517321857518112;-0.3144868071218916;0.22890103160072583;60.0
1.67007268872248;3.00327688581374;2.789142785616733;1.0287722003114856;0.6105867000861032;-1.6504579439248008;0.3728161183220369;0.7429081814964951;0.014986171567960832;0.12825788751559486;0.017334556949117952;0.032629754257163204;1.4649572084511353;2.1460996225929434;1.0795086325101444;2.8056534420319075;0.2222503136483997;60.0
1.6900161044701436;-1.7770226300164786;2.8561544333684394;2.0943797646362725;0.5170761933658461;-1.4388316734655344;0.2673677897457139;0.6613606037509325;0.0407308590950236;2.2685356647902957;0.025746915468542853;0.0968695829509533;1.4948689724794086;2.234633244881643;1.9581653361408184;-2.6755484828533014;0.24362874282346036;60.0
2.5002238754219044;0.98856604864649;6.251119427229727;2.55562704501156;0.5022120948374121;1.444533199079343;0.2522169882009819;0.3672005121970239;0.04708595385819662;-3.9315857301700934;0.06933822779647185;0.0968695829509533;2.5387173393427953;6.445085729079761;2.5699786516436287;0.9973553048957537;0.45957663419953004;60.0
2.106833186977053;2.4883290100025306;4.4387460777478855;1.679995389758436;0.4752766944337523;-4.487435053528371;0.22588793627187434;0.7171722093273698;0.04658925171465963;-3.4945020266117854;0.06704394820026503;0.0968695829509533;2.101614714061697;4.4167844063606285;1.574508437978741;2.574973143561145;0.4173266009566426;60.0
2.2439956229822826;2.0066277596309394;5.035516355963642;1.7931840188583248;0.595649133852186;0.6413669461332177;0.35479789065885936;0.5498198352903674;0.031262791305711995;-4.810683567224988;0.04792495156520846;0.0632201488732537;2.1952990005837174;4.819337701963868;1.6516690143657193;2.2328956255856856;0.4293513234547277;60.0
2.2713461080164663;2.7512140658336754;5.159013142401549;1.4142866027289474;0.5927643807882648;-1.8244473668958054;0.3513696111312949;0.7433776050186831;0.02732919469457215;-4.29239291347484;0.040277352911185824;0.057102069950035604;2.2184570004833732;4.921551462993686;1.3695222939724454;2.744502274051957;0.4260439174435796;60.0
1.676293997395874;2.0826526521010855;2.809961565705438;1.0978962671274175;0.6622495091686057;-1.3176004410348359;0.4385744123940592;0.7794566828794959;0.028360728144573955;-4.0890690936111955;0.04104211277658808;0.060161109411644605;1.5947167717037325;2.5431215819531747;1.0370718452844327;2.016356136509737;0.2878779197422953;60.0
2.6514476979931723;-2.3555636290006703;7.030174895193293;3.402906576576858;0.40296500017457654;1.3585481829263628;0.16238079136569647;0.29715811414336635;0.035580592190912794;-1.9204160536368455;0.04563067196900165;0.0785153461812989;2.5811932015791847;6.662558343878602;3.2590222237183992;-2.120953109342187;0.5850894342798235;60.0
3.164154759879994;-0.2503730291224553;10.011875344471221;3.3359641022598305;0.3464135406007017;1.5125193453129206;0.12000234111151398;0.2609708108766206;0.03891740875284274;-5.037379365237301;0.060161109411644674;0.0785153461812989;1.9900002871442983;3.9601011428343895;2.2723689863401235;0.04806072858341004;0.6495107834824486;0.0
2.218345652809483;1.1051698651367658;4.9210574353387315;2.3032239256692058;0.35966801416376715;1.9133089228064009;0.1293610804125078;0.30300769540694905;0.034453510983163856;0.2794198945068924;0.037218313449576795;0.0785153461812989;0.8976562542260409;0.8057867507511265;1.1667556436394402;-2.481254237316872;0.39109301447667466;60.0
2.5894249485477783;0.4044674950585243;6.705121564161665;2.5949688662848387;0.22832018750182279;0.13349330288041195;0.05213010802086752;0.22919471845752426;0.026108250848997233;-1.7983836370546342;0.03237483430202915;0.0591414295911083;1.3529985737185326;1.8306051404843833;1.4306933022920671;0.6672788632245421;0.5286828232039065;60.0
2.649825828486069;2.8156464510579333;7.021576921311881;1.7749638797338019;0.24103329291687547;-2.0752538716681492;0.0580970482943523;0.30377307729493963;0.019191370217584724;0.7228973493574209;0.017971856836953196;0.0458855919241358;1.0875481152617132;1.1827609030093047;0.9291789905259007;1.1855082291501606;0.3645050180557254;60.0
0.8010555738477269;3.247209330950419;0.641690032392511;0.6476470581793317;0.14614066746021448;0.9932521212282239;0.021357094685716994;0.1270627737402934;0.013126933888585412;0.8901930682527706;0.012363617824003251;0.031100234526358697;0.8091522620899113;0.6547273832452205;0.6596236831518407;3.151045848339937;0.2511835824620367;60.0
1.0883016126072513;-4.143596553669079;1.1844004000035435;1.5934630551104396;0.07732542888490591;-0.41982106181192336;0.0059792219522346425;0.08419285407292032;0.03335816987332002;1.5295722108983103;0.0304629346385235;0.0774956663607627;1.0810801483280699;1.1687342871090414;1.587634893861507;-4.2049539148548085;0.2843089626859034;60.0
3.107857220700576;2.509433568060441;9.65877650426071;2.048382056158761;0.19984120703970576;3.1393215889032042;0.039936508031086546;0.14943656422580043;0.07878786382242889;2.3899973114211974;0.057229529927602725;0.1845620475170796;1.1771030494974961;1.385571589136305;0.8875674278855636;2.962683630912551;0.35769821027949456;60.0
3.2266376585341168;-2.2467954642117363;10.411190579470526;4.0963118509891645;0.2502721000624211;-4.823909667758741;0.06263612406965452;0.381692216744278;0.07745708334177254;2.2410986889160665;0.0461405118792699;0.1845620475170796;1.8824050618440815;3.54344881685622;1.4330040167488471;1.3316796743950583;0.7149848553871878;60.0
3.092491546192764;0.5091219588412734;9.56350396327371;3.0696132090354915;0.22802031576696905;2.873811598259028;0.05199326440246827;0.17874234962484437;0.0770758118137663;0.6901893020986236;0.07214234730294683;0.1845620475170796;1.9811024377101176;3.9247668687009707;1.9071915925101426;1.1717694940291814;0.8672423846514157;0.0
1.7664691972696607;-0.6547372995392386;3.1204134249025195;2.1881571065104977;0.09073463397067545;-1.0236461363168328;0.008232773801792452;0.10376164567594948;0.057798099113242705;2.3104996220874536;0.05531763026409703;0.1233812582848985;0.7961013443607948;0.6337773504930648;0.5487021060801263;1.4468721805218667;0.5722079862850538;0.0
1.0414109782484835;-5.823138698746743;1.0845368256164634;1.7294320284934739;0.17787935627459386;0.8739866210255638;0.031641065388663896;0.16304313858852593;0.03178501911085559;1.6065974479903975;0.020903436320995172;0.0774956663607626;0.5369420824061464;0.2883067998586489;0.8793202093547441;-5.70510221466061;0.5775284602732703;120.0
1.2202297934967703;-5.3445807219734895;1.4889607489371706;1.9521445571686813;0.27844330744563905;-1.159980110763085;0.07753067546126668;0.32237237459148094;0.06181200052571592;-0.5055727469397642;0.06933822779647182;0.1427551748750891;0.4171307267704117;0.17399804321601184;0.49865285906544177;-0.5056193378748617;0.38852470464070704;120.0
2.3732860487371523;-0.045723385323855226;5.6324866691304045;2.7544666247995204;0.24984884238062935;-1.7573228255284068;0.06242444403894056;0.3083319716527209;0.07471546895777446;-0.19354627208248942;0.0780055062710308;0.177424288773325;1.6970405863105473;2.8799467515852464;1.2748491912590825;3.079694233653953;0.9382445498010586;120.0
3.2546734499221004;-5.3019835689291455;10.592899265627828;5.17485918321011;0.30840493562384075;0.9658272046165575;0.09511360431714537;0.2823237858147444;0.08931310200165285;-3.493350579946558;0.12988171714081762;0.183032527786275;2.4422359475381423;5.964516423447527;3.7160822158415945;-4.679490528701606;0.8657860046951855;120.0
2.7677142403767614;1.7752074250695706;7.660242116384314;2.5089152734424163;0.378647355975591;-2.3137173701528173;0.14337382018730593;0.49507428540597825;0.09091843287039199;-4.203142858478767;0.13714693586213916;0.183032527786275;1.9069940408790051;3.6366262719480367;1.9049089117017899;0.49358610420981464;0.5443147440986545;120.0
0.9753466262317605;1.4250184139733246;0.9513010413016775;0.7230863689544482;0.3939596748490567;-1.1279233704747096;0.15520422540717446;0.4660379257836459;0.08486141981327625;-4.938709795088581;0.13306821657999376;0.1667176506576934;0.9243411159991959;0.854406498726639;0.8175587568289338;0.877162382629324;0.20936657949667425;120.0
1.3984306854254493;-0.5605027080717058;1.955608381939492;1.5501815848869072;0.25360062389148946;0.4423591995698466;0.0643132764381527;0.2863192086508244;0.0721821206665734;-0.6651275812116868;0.08182930559804222;0.1667176506576934;1.358112842751694;1.8444704936470877;1.4343358537784408;-0.17612926641290372;0.2740786267217416;120.0
1.4211105599339378;-0.9815401621050324;2.01955522355575;1.657376628400641;0.1326953505718668;2.0642005496407503;0.017608056063390626;0.10385581369360497;0.03977268732150024;-0.6071704213870177;0.04422861221576427;0.092790863668808;1.398533277739047;1.9558953289435224;1.63436247662366;-0.9704226236722153;0.27848855670566197;120.0
1.372292127304677;0.16459836061349442;1.8831856826623963;1.375262193763894;0.05703670985560721;1.5428001108493739;0.0032531862711527204;0.057266253880549955;0.0500993922567075;-4.598394548782988;0.0759661466299582;0.1019679820536352;1.3354507436244714;1.7834286886471533;1.3254404572053984;0.2266135746237854;0.21657115857228154;120.0
2.0221402844734424;0.22484418795624705;4.089051330090334;2.203655278777914;0.06013323566010252;0.9879728498485338;0.0036160060309534253;0.06623619162104566;0.04943081327027973;2.3872793119058535;0.045885591924135834;0.1070663811563169;1.9814293746533154;3.926062366739028;2.15398620131221;0.2853892297927896;0.26182365097223853;120.0
3.0141959692329183;-0.8276269224415866;9.085377340939973;3.378146712061003;0.3457409916910863;3.4847479181828867;0.11953683333553582;0.1934461508278893;0.046938510396589854;2.760122409864646;0.03517895380850416;0.1070663811563169;3.0105984288558925;9.063702899829568;3.327139744363814;-0.6886082187135241;0.4462285253746458;120.0
3.2701296574124807;-3.058425284044704;10.693747976288668;4.491376784192578;0.41841371433965463;-5.319693045918784;0.1750700363475061;0.6767312161614953;0.05185015906669586;-4.668816958800239;0.07800550627103092;0.1070663811563169;3.2892189587077674;10.81896135832261;4.552840920762267;-3.166748956876525;0.5189518613898543;120.0
3.2505848195727984;3.6697693904276996;10.566301669237122;1.8420798381706338;0.4586629047597682;1.6168824713394034;0.21037166020266818;0.38817535700628525;0.037833648371828;0.12246480896294187;0.04027735291118593;0.0876924645661262;3.270540619697253;10.696435945089691;1.8654644285829214;3.7042661007630713;0.6081475479109899;120.0
0.44376239310957366;2.5261655330840647;0.1969250615383358;0.3854727795751911;0.24169772715034832;-3.766698723099813;0.058417791309644224;0.34720127843765913;0.028796929801104577;2.171527061312064;0.0205210563882941;0.06831854797593559;0.41918188346817387;0.17571345142792572;0.3779095120015241;2.0978673508290164;0.11130139913724404;120.0
0.2939392829407511;1.6052278045176198;0.08640030205572295;0.25006528487627433;0.1977080665595658;2.0341077479180605;0.0390884795827217;0.1617951764834762;0.03792828589200209;1.4272248288203713;0.0266391353115122;0.092790863668808;0.2922010486161617;0.08538145281238448;0.26972339074538976;1.0664880654760331;0.07133648428770684;120.0
0.301201983234573;-1.2123097456671097;0.09072263470443998;0.3534972745892442;0.09156214017192539;0.11562129404636323;0.008383625512863313;0.09887854772732829;0.030311097517746282;-5.305770713223708;0.048116141531559076;0.0593963495462424;0.29982461471967337;0.08989479959180056;0.3539252864858957;-1.299914056529765;0.07269951092943548;120.0
1.2124011450092886;2.872044330904224;1.469916536419834;0.9884812296825616;0.2362910845905603;1.6367306255404248;0.05583347665698333;0.21685288701257902;0.03133917473486271;1.729142806658226;0.026320485367594473;0.0739267869888854;1.2040831385535204;1.4498162045488965;0.9868615449213749;2.8591102884598243;0.33581473595833794;120.0
1.4154549510301455;-5.71452039708048;2.0035127183957515;2.3207434995804856;0.540674304044384;0.7267375311453961;0.29232870305387904;0.5595727308295783;0.015906644332020922;-3.690911543146381;0.022751605995717326;0.0336494340776995;1.3561854489402831;1.8392389719173572;2.1574212584031667;-5.380625785392095;0.4244218781053196;120.0
1.1730831417707417;3.857423989776155;1.3761240575067142;0.7544523363290674;0.6563101224900064;-2.5440169487751145;0.4307429768828472;0.875805108674881;0.011305683245437145;3.179639777341947;0.009113388396043653;0.0242173957377384;1.0907877338854368;1.1898178803949264;0.6612153417884326;3.5464052811667592;0.4176865320223297;120.0
0.10159342582671636;-3.555164140070799;0.010321224171208518;0.1489722569698848;0.40714270513495954;3.1881179282085625;0.1657651823446126;0.3165409663488956;0.002611115455424167;-5.207453753269819;0.004142449270929001;0.005098399102681804;0.19129671314131502;0.03659443245867056;0.1585156988647407;3.147531919284944;0.09057000924626081;120.0
0.12245584007279137;-0.012407364611812355;0.014995432767933055;0.12735893463795378;0.11025596563914497;0.1851356685400276;0.012156377959020317;0.11522090062874679;0.00242173957377334;2.5709133579271004;0.0021030896298562807;0.005353319057815897;0.11932578121031666;0.01423864206145236;0.07490930418053843;2.5930014428337245;0.052739974715345764;120.0
1.5992325000155232;3.890161663752128;2.5575445891059005;0.951847762457275;0.12600127419941795;1.042046364188554;0.015876321099876908;0.12072772059633063;0.02083116177366461;3.713831867965066;0.01446670745385955;0.043336392372794796;1.5319135011340943;2.3467589749569187;0.9457631858126563;3.87749064023998;0.5047302839987974;120.0
2.253418153355843;1.6109832972475662;5.077893373873658;1.4925127482141947;0.1675586821009516;-0.9542973707132187;0.02807591194740776;0.1943912269128707;0.039045424719877736;-1.2371371779604452;0.0495182012847964;0.0841235851942489;1.8127701391063042;3.28613557723549;1.2185269329736634;2.447214487633582;0.6562421700133814;120.0
3.8285678008140374;-1.2375347548514277;14.657931405430036;4.492274306664994;0.20453258354074863;-2.7674695702947805;0.04183357772985332;0.27710251949178033;0.043338141788156946;-1.4327251685187399;0.05442541042112775;0.09534006322014871;3.3213425542537376;11.03131636269674;4.042744181348739;-1.3422039212067105;0.76477536375264;120.0
3.809705102778991;-1.0764475393902782;14.513852970140285;4.39684653968088;0.22161419193745502;3.3722724516891454;0.04911285006809115;0.16295816592171475;0.025314634011577384;-4.68143246711335;0.03823799327011318;0.052003670847353904;3.326280285711032;11.064140539109864;4.061975614585942;-1.3711657516865987;0.7670445512978467;120.0
3.93997306588291;-2.513766100927244;15.523387759882779;5.100527355324257;0.10974768462283593;1.9623564670889504;0.012044554280073458;0.09219706185295706;0.024982155603140665;-4.74504427819776;0.037983073314979104;0.0509839910268176;3.428114946492875;11.751972086367848;4.661981577348464;-3.0598536736701867;0.7556754614453017;120.0
2.5825150155321768;1.6289411725079503;6.669383805449159;1.8263985399941012;0.16538125710924845;-1.6070421098286047;0.027350960203035336;0.2110640105791396;0.04788516030143448;1.6414181881452699;0.03364943407769963;0.11624349954114391;2.527254103196079;6.387013302121418;1.8069786801897605;1.5669493154395528;0.4424213565834012;120.0
2.8427162744103933;1.4522281131165684;8.081035816797707;1.9962036869329296;0.1895119817511438;-1.6094522779888543;0.03591479122724587;0.2301327163566227;0.032304169109304455;1.353558374083013;0.0331395941674313;0.07137758743754449;2.7745843675662365;7.698318412742933;1.9667065402582695;1.429668395979256;0.47250679419415986;120.0
1.83614154122177;-5.762501857019565;3.371415759400257;3.029962799610325;0.1229459573819697;0.8774393915262984;0.015115708436569111;0.1314993759451374;0.027430461163604352;0.392257472087584;0.02702151524421325;0.0652595085143263;1.8224454178647373;3.321307301096177;3.0018091718727797;-5.743497571089882;0.24244051743474399;120.0
3.1879678626998174;-1.3141057231298916;10.163139093606842;4.11763727353819;0.10942386063685224;0.11079821201074935;0.01197358127667326;0.12410352617060882;0.03644315326788398;0.8985381862875172;0.0326297542571632;0.08769246456612609;3.147043353232376;9.903881867124076;4.08275999539714;-1.3895826692827047;0.4756225853531743;120.0
3.150208119111884;2.601829689064683;9.923811193718434;2.864241647351893;0.3018319084899458;1.0966139167634132;0.09110250098268301;0.32610695565829173;0.0300185611173238;-4.880307692307662;0.04690527174467209;0.0591414295911083;3.1094796824304782;9.668863895447947;2.7879047715809726;2.6874329073890983;0.4411673091655359;120.0
4.975435496854545;-2.1600371639798013;24.754958383360236;6.4743776117444565;0.5928811497269231;0.26465072907601694;0.3515080577015182;0.6439961664178634;0.027751952755625888;3.263903672169562;0.022050576119098546;0.0591414295911083;3.306963753908582;10.93600926966514;5.2109470644390585;-4.991304083441639;0.6095601717332738;120.0
3.8865114509629985;1.3320043876498282;15.104971258466511;3.18944074162886;0.6687101550928259;-3.1599317123691133;0.4471732715242713;0.9077376813575642;0.009954670488160924;-1.5131010599997534;0.012682267767920846;0.021668196186397495;2.4533293130108444;6.018824718078261;1.3601238827029216;3.9792191935571957;0.6433413219665608;120.0
3.8869417776739095;1.2975233843542053;15.10831638302681;3.215300523130081;0.6380461124968161;0.37869380908174044;0.40710284167229965;0.6338145414318821;0.0213406983061249;1.2054066477388883;0.019947486489242397;0.0499643112062811;2.3200118362891273;5.382454920521648;1.918046340109866;3.1065839090353364;0.5681550864481056;120.0
2.3743190771534515;1.3938385438630618;5.637391080134818;2.2423169819477353;0.698914925601321;0.1894040213017565;0.4884820732283;0.7434857573264733;0.017271179705747534;2.882904666468061;0.01395686754359135;0.038237993270113096;1.0979522364126826;1.2054991134436113;1.2783433928612853;0.018459499648516342;0.31882830908438725;120.0
1.0950479682392393;-1.120511415970796;1.199130052744886;1.3830200859767094;0.6567564592669585;-3.7007977065435487;0.431329046788872;0.9560583328716099;0.03676765636444212;0.419179777346228;0.041360762720505595;0.08055470582237159;1.2014434149122069;1.4434662792359052;1.6325880654058862;-2.4046378543071043;0.2973354944932136;120.0
0.6698161150790046;2.4741811692697038;0.44865362801953035;0.48953082709747475;0.4142549351740968;3.2835666835249278;0.17160715131609514;0.3077852742038809;0.044150242441444706;-2.7300546358603626;0.05901396961354127;0.0968695829509534;0.7494826244873131;0.5617242044083908;0.5215612202466096;3.478549404951007;0.158999980360482;120.0
2.2278925144879524;3.828687586730993;4.963505056111452;1.2807570516133757;0.2834935382141461;2.504742540921118;0.08036858620917552;0.24061764016549114;0.04476997314348116;3.5703390105102173;0.029953094728255462;0.0968695829509534;1.051917955326952;1.1065313847392355;0.6742319617728834;3.7325320946622043;0.23063030047462116;120.0
3.5133711877231413;-3.521258367508363;12.343777102723116;5.0829371588078045;0.33348275188823806;-4.354848312952221;0.11121074580695216;0.5027648092504458;0.012217334169514758;-0.1942658930856851;0.012937187723055105;0.028805954930151992;1.0236929001389923;1.0479471537949807;1.1254264103408058;0.741619158614208;0.23209523244727195;0.0
3.7630602026357804;0.5133268090088343;14.160622088661242;4.030781861413285;0.2576006672311155;3.1811433977037424;0.06635810375791591;0.1750007235594353;0.015083242727423467;1.0930272984748601;0.01510400734169473;0.0344141939431019;1.0714685803475248;1.1480449186719401;1.2486279113140082;0.27639923140198697;0.24020172813355328;0.0
1.7982638049564592;-3.545904403901062;3.2337527122164826;2.5666213900049213;0.12573905521484596;0.018480804287491992;0.01581031000632208;0.14083332140684268;0.01475510965247365;1.400878029999065;0.013574487610890196;0.0344141939431019;1.160797212283754;1.3474501680457347;1.6140241119707057;-2.8421826210388854;0.30048328675224706;0.0
1.5917427409032419;1.0865762421603513;2.533644953218165;1.7365048434563781;0.19687494952770837;-0.6111738936083153;0.03875974575153772;0.22484430941324707;0.017308764603481474;2.381841321888775;0.015358927296828778;0.0384929132252473;1.0995312529213563;1.2089689761508076;1.1436844323323392;1.1279302539180254;0.25132381774666;0.0
1.7211245830289668;-4.564035011772781;2.9622698303066346;2.6529493610462622;0.27262184804865086;-0.8495326265596166;0.07432267203346167;0.3135118168558755;0.015967976539305314;2.1077158296818457;0.014657897420210036;0.0356887937187723;1.3139174990969251;1.7263791944331182;2.179718632214432;-5.794161003924034;0.3260653752023959;0.0
2.0826964466001465;-3.64885126634584;4.337624488680876;2.924676528419615;0.3526104363709667;-0.9645100414253331;0.12433411983772354;0.40683584373471904;0.03240960785188131;-0.09780392853986442;0.036326093606607546;0.0734169470786173;1.517396182198884;2.302491173751749;2.326107428476136;-4.537379060656109;0.36336093858163243;0.0
1.6191186883277153;1.9799477989263305;2.6215453268920617;1.555379020553409;0.4367212953462292;-1.0290469891099576;0.19072548980888837;0.504816390049776;0.07993058452132981;1.4999999999999982;0.07443662689915365;0.1845620475170796;1.3044655688363966;1.701630420279664;1.0698625217590578;2.68915016918956;0.26956871859779297;0.0
2.294964657234375;-5.056333087357466;5.266862777954893;3.598366536271312;0.5249043267591285;-1.069139216151779;0.2755245522504539;0.6074534558010483;0.06371707153004749;2.564748190533546;0.043336392372794935;0.1488732537983073;2.1260955756353677;4.5202823967362855;3.0251756284481037;-3.4067902662725658;0.5410548806374993;60.0
2.9222542285730193;-5.155603548171289;8.539569776412891;4.6233866521725275;0.6171348694773703;-1.095909527693836;0.3808554471248508;0.7147470409885353;0.05101372301894667;-0.5044218624134658;0.06143570918731513;0.11114510043846229;2.794015270744992;7.806521333156212;4.435349589464527;-5.282649253977667;0.8485514058265954;60.0
2.4094175367925126;-1.8744093028471926;5.805292866603298;3.0089001352907077;0.7133993860758796;-1.1147720865911843;0.5089386840534419;0.8266971456122366;0.08056976297789274;-0.5453993567511208;0.09024166411746715;0.18660140715815232;2.241364557528755;5.023715079746073;2.6686235630015362;-1.1027756651976777;0.8487243974456128;60.0
1.7766944351509957;-3.768598160486942;3.156643115896516;2.575122947720902;0.8136898317642427;-1.1286262078958664;0.6620911423165216;0.9433037696721527;0.08125297818471215;2.9844192789802015;0.047415111654940306;0.18660140715815232;1.5550366522849264;2.418138989949511;2.220630718979155;-3.712361640135253;0.7091331419883365;60.0
2.7492129373884087;1.4522729969113684;7.558171775103801;1.9246501466353743;0.9180011279150594;-1.1391427394512306;0.8427260708533212;1.0645669131682824;0.0750256178342201;3.7186913325472695;0.0412970327317222;0.1621290914652799;2.626561237715913;6.898823935471747;1.9324438184857136;1.3735866040139957;0.7405534683436634;60.0
1.761360947340372;3.1403054857196437;3.102392386815773;1.2325201650616306;1.0263299119980858;-1.1473422638653066;1.0533530882619984;1.1904865761006296;0.0906712690226972;2.4528373977691835;0.0672988681553992;0.21107372285102471;1.6410818534010059;2.6931496495620806;0.9068530968773407;3.7001196217512238;0.3748716047000888;0.0
1.761360947340372;3.1403054857196437;3.102392386815773;1.2325201650616306;1.0263299119980858;-1.1473422638653066;1.0533530882619984;1.1904865761006296;0.0906712690226972;2.4528373977691835;0.0672988681553992;0.21107372285102471;1.6410818534010059;2.6931496495620806;0.9068530968773407;3.7001196217512238;0.3748716047000888;0.0
