acc_X_std;acc_X_kurt;acc_X_var;acc_X_iqr;acc_Y_std;acc_Y_kurt;acc_Y_var;acc_Y_iqr;acc_Z_std;acc_Z_kurt;acc_Z_iqr;acc_Z_range;acc_std;acc_var;acc_iqr;acc_kurt;acc_cv;class
0.03669512026802216;1.2320540565106075;0.0013465318514846107;0.0298893647394717;0.03591718738925715;-3.965288206677636;0.0012900443499550128;0.05187621086978683;0.025161860795558728;-5.667069090871292;0.041042112776588174;0.047924951565208505;0.016471838573468765;0.00027132146599041345;0.022453787766555433;-3.235349392880506;0.2573443610691134;60.0
0.03669512026802216;1.2320540565106075;0.0013465318514846107;0.0298893647394717;0.03591718738925715;-3.965288206677636;0.0012900443499550128;0.05187621086978683;0.025161860795558728;-5.667069090871292;0.041042112776588174;0.047924951565208505;0.016471838573468765;0.00027132146599041345;0.022453787766555433;-3.235349392880506;0.2573443610691134;60.0
0.03669512026802216;1.2320540565106075;0.0013465318514846107;0.0298893647394717;0.03591718738925715;-3.965288206677636;0.0012900443499550128;0.05187621086978683;0.025161860795558728;-5.667069090871292;0.041042112776588174;0.047924951565208505;0.016471838573468765;0.00027132146599041345;0.022453787766555433;-3.235349392880506;0.2573443610691134;60.0
0.05433020479377126;-1.3962347086566567;0.0029517711529331255;0.06443101866014062;0.029123047608057197;-2.6825587092258587;0.0008481519019811661;0.03836545324768023;0.025381289815205207;2.189647557468602;0.01809931681452026;0.0601611094116448;0.02518939668991357;0.0006345057056018288;0.02189525000515405;1.3028088667591131;0.30981957952600686;60.0
0.07691161488365097;0.6308946243262543;0.005915396504011042;0.07322575711226675;0.036169599408096435;-1.3107686207506735;0.0013082399213421702;0.042954012440093836;0.02489877729596164;1.4534903243102928;0.019628836545324775;0.0601611094116448;0.04296973394817955;0.0018463980355773342;0.0496515087691828;-1.0374827002061124;0.4224259554884869;60.0
0.07661860872507063;1.709648767167245;0.005870411202965469;0.0596512695013766;0.051115529984711076;-0.0003637647207153094;0.002612797405617897;0.05429795044356067;0.05131178402396282;0.13017506099443032;0.05429795044356075;0.1193025390027531;0.04191372837576859;0.001756760626357709;0.03327425532777467;1.831928705691512;0.371671324305872;60.0
0.04947549115512645;-3.719767894612419;0.0024478242250409953;0.07010298766187416;0.06019494520146593;0.10630520731696969;0.0036234314278074855;0.060416029366778756;0.051068045324331617;2.0154937525065026;0.042061792597124475;0.1193025390027531;0.026819022887582603;0.0007192599886446796;0.03597469227340186;-2.87121460618353;0.18815611117953074;60.0
0.047119065053812866;2.775841051682807;0.0022202062915454485;0.03721831344957681;0.06710998808399397;-2.572392843026602;0.004503750500633813;0.09100642398286937;0.039976130894081065;1.3935316624964127;0.03823799327011322;0.0917711838482716;0.01964186193573795;0.0003858027403025914;0.013038800979589094;1.6450102150374075;0.1291846799439057;60.0
0.05039942227493585;3.634732062954818;0.0025401017656473;0.0356887937187724;0.06646651854297772;3.5996916181229324;0.004417798087224;0.043591312327928955;0.03520480575432255;2.4909463537678427;0.0326297542571633;0.07545630671969;0.021122213613680108;0.0004461479079419333;0.022408028043942457;0.6214081454967051;0.1361248921034452;60.0
0.009359416616032214;1.3457545631216057;8.75986793924599e-05;0.007902518609156695;0.017204106909817843;-0.07561331439316987;0.000295981294564442;0.017844396859386102;0.010576362382313064;3.278470205154587;0.007392678698888551;0.023452635872336102;0.010807845465412502;0.00011680952360423756;0.011368507668804678;0.7409325876040214;0.06433648413626367;60.0
0.018864076679922428;0.02817474062023706;0.00035585338898599315;0.02013867645559303;0.01772014601507374;-2.4998245690978873;0.0003140035747955337;0.022942795962068024;0.03285205199059247;2.5895415446185197;0.022942795962067872;0.0764759865402264;0.010309397501029034;0.00010628367683422369;0.010686603685585189;-0.058961571565184556;0.06259135069464548;60.0
0.018771988862787806;0.7430225309789513;0.00035238756586462947;0.01860915672478841;0.012136617430649685;1.6042629757785534;0.00014729748265794975;0.008157438564290881;0.02666280754862805;-1.1365512606092594;0.03326705414499844;0.058121749770571995;0.006939217426604056;4.815273849368542e-05;0.004682879792583777;2.0789311580935106;0.04130071846825864;60.0
0.049734005631349304;1.625310040125811;0.0024734713161390846;0.04614051187926993;0.00603250717150979;2.228571428571433;3.639114277431705e-05;0.005608239012949906;0.02169616934080043;1.3660159557239187;0.01593249719588055;0.053023350667890295;0.03866848655328915;0.0014952518523219042;0.02538408145123175;3.4235699679598817;0.258998248049077;0.0
0.07373432094286121;-1.7541302108188557;0.005436750084904861;0.09355562353421026;0.0055460959423815894;1.22213846459025;3.075918020210153e-05;0.004843479147547763;0.016375176414957886;2.0836874970230284;0.012363617824003331;0.0387478331803814;0.05278170550011161;0.0027859084355005125;0.07848784938599265;-4.042700809336722;0.44138121726566437;0.0
0.08108645413099934;-0.35941342750808225;0.006575013043538661;0.09635974304068512;0.0212263281275226;3.703384615384607;0.000450557005777257;0.014275517487508993;0.010029731606457681;-2.8345919382708704;0.013510757622106684;0.021923116141531605;0.04902160214986369;0.00240311747733952;0.04597107584107876;2.1745901208846696;0.510423470281956;0.0
0.037311318688484724;-1.5090624992966504;0.0013921345022736697;0.0461405118792698;0.021620658951426612;3.9325610419148553;0.00046745289349390374;0.011981237891302232;0.010140347120880727;-3.016281923040859;0.013893137554807838;0.021923116141531605;0.014278107581966506;0.0002038643561222094;0.012308766134695476;1.6936645649992137;0.19704502424248446;30.0
0.022017765760873883;-3.310947394144934;0.0004847820091007102;0.030335474660956326;0.023020085908972608;3.5989077101479587;0.0005299243552564793;0.014785357397777227;0.01025082556484304;-0.43255775354110426;0.01159885795860098;0.023452635872336106;0.010257308572114423;0.00010521237914357204;0.011959835954179501;-0.955521920143628;0.1666802489387497;0.0
0.021103513240576816;-0.9970960953230996;0.00044535827109520106;0.024982155603140526;0.025326610791543927;2.9421113910743912;0.0006414372141863492;0.02013867645559292;0.012758737387827276;2.0128971597647656;0.010834098093198748;0.029570714795554204;0.013888511431140728;0.0001928907497729267;0.02088461656203558;-4.662107934623672;0.2406891307341769;0.0
0.011324109478914629;-0.870197224251422;0.00012823545549044414;0.012745997756704375;0.007539197516338299;-2.716240333134687;5.683949919036157e-05;0.010196798205363455;0.020436038904941937;-3.35698765517178;0.028551034975017847;0.0438462322830631;0.01880946234920367;0.00035379587386611034;0.027498158522446317;-4.116703648300449;0.30487331724151817;0.0
0.023686074342759073;2.3890405927162828;0.0005610301177707096;0.019628836545324747;0.021313910144145774;2.004057543060176;0.00045428276563272006;0.019628836545324657;0.02078079788944329;-3.9754991252924707;0.030080554705822382;0.0438462322830631;0.023961825566276945;0.0005741690844686835;0.03759434683437016;-5.204222066379481;0.36072379138806965;0.0
0.024435111586258194;-2.3323041221452954;0.0005970746782328894;0.03186499439176095;0.019953356385997642;0.8538978238397856;0.00039813643106663285;0.018099316814520455;0.021437540574720762;1.9258717061474222;0.020903436320995186;0.0469052717446722;0.022727144522455348;0.0005165230981445721;0.01788678241502034;3.385299345348173;0.2952144768417764;0.0
0.020433918873927766;-1.4601328412243664;0.00041754504054626135;0.025746915468542825;0.013743629801268347;2.926925342984539;0.0001888873601143114;0.008667278474559226;0.0066279188334863294;0.5043240777892972;0.006882838788620366;0.015295197308045294;0.005856870158036522;3.4302928048098756e-05;0.008907186710916393;-4.28738119403708;0.06813103370385282;0.0
0.030152120802974365;-0.24542569534626502;0.0009091503889171595;0.03224737432446202;0.013060761147598207;3.402504126984038;0.00017058348175461082;0.008029978586724024;0.006345749159188588;0.7908154241584331;0.005735698990516999;0.015295197308045294;0.006839561830228566;4.677960602951952e-05;0.011659491410561815;-5.967655704266456;0.08050046894961659;0.0
0.020936053063553558;1.9303512856626366;0.00043831831787993037;0.013383297644539525;0.014901374269068547;3.423413497678812;0.00022205095510685816;0.011343938003467002;0.009358259346585488;1.5734512168681896;0.007520138676455623;0.022432956051799804;0.00876914193279476;7.68978502374994e-05;0.00573596393788306;1.5505147218473354;0.11023078581191272;30.0
0.014918807880492827;0.9156698811872648;0.00022257082857505487;0.016442337106148577;0.014901374269068547;3.423413497678812;0.00022205095510685816;0.011343938003467002;0.015382048375186703;-0.09266704589448871;0.01797185683695321;0.0336494340776996;0.015973967992748906;0.00025516765343336654;0.015603960699127811;2.1624093830278586;0.2343623821428826;0.0
0.017853498822160637;-0.16503661307958062;0.0003187474201928912;0.0195013765677576;0.013777474372256272;1.103804264319244;0.00018981880007817834;0.013638217599673763;0.014422703334165014;-2.3257332989435433;0.019246456612623565;0.031100234526358697;0.015320141991689656;0.0002347067506455327;0.020905047041702665;-3.2260936715142403;0.24909472851186035;0.0
0.015472612323333659;-1.138916888006909;0.0002394017321081766;0.018099316814520126;0.01638641651880115;-0.4856239732581926;0.00026851464632763917;0.019118996635056867;0.00951094019892812;2.7039239001019304;0.007647598654022647;0.021413276231263295;0.011265178019918864;0.0001269042358204631;0.01123664754574976;1.9572209908544504;0.21159010688843904;0.0
0.015114983555445013;-0.3727833411686703;0.00022846272788137314;0.01618741715101445;0.008825778982766727;-4.173016365978373;7.789437465264687e-05;0.0130009177118387;0.0032245107170066653;-1.7000000010257992;0.0040787192821454266;0.007137758743754399;0.003571385340006488;1.2754793246813259e-05;0.00509685104820054;-3.389802749657388;0.07376698162896232;0.0
0.015028751130428323;2.312860277303434;0.0002258633605403506;0.009304578362394202;0.008215650022277947;1.2146905037729478;6.749690528855562e-05;0.008412358519424845;0.009063112488340552;2.3512257650970696;0.006118078923218043;0.021413276231263295;0.007747118425177467;6.00178438937242e-05;0.00650737658110976;1.869417482300138;0.14593615213743574;0.0
0.012182933767052376;-4.119500308243277;0.000148423875172385;0.018354236769654197;0.009868618429664517;0.4528058155293113;9.738962971031415e-05;0.009686958295095222;0.015408078524378008;-1.9283499387278198;0.019373916590190637;0.034669113898235904;0.014583454639458792;0.00021267714922115216;0.018431892545055673;-1.633070049252451;0.2455009434070176;0.0
0.008034360935095557;3.756533489482866;6.455095563538957e-05;0.0053533190578157995;0.012133047312192965;1.3491868117554926;0.00014721083707991295;0.010961558070765626;0.012415413135399164;-0.34797198343458824;0.014530437442643082;0.027531355154481504;0.012743785355387224;0.00016240406518418186;0.015605108371483822;-0.8705889253091481;0.19072727248467303;0.0
0.012316442089466131;1.3829587609268508;0.00015169474574317285;0.009049658407260101;0.016087583460166237;-2.5938405784513723;0.00025881034158781424;0.021158356276129248;0.0059675231521972745;-2.7856572008088474;0.007902518609156736;0.013255837666972609;0.006202462107374812;3.847053619342039e-05;0.004188799011551753;3.0756737518854784;0.08504768737778272;0.0
0.012463300526770773;1.1466784833730657;0.00015533386002060463;0.010579178138064624;0.017943660941253405;-5.089266906207287;0.000321974967974663;0.02804119506474953;0.007210225157403392;-1.188000000127424;0.008667278474558976;0.016314877128581602;0.007590588783906353;5.761703808636492e-05;0.004899123544663639;3.3558257708730252;0.10510529118801723;0.0
0.008341246858915496;1.256613974059114;6.957639916136764e-05;0.007902518609156726;0.014005912632498152;1.5000000000000409;0.00019616558866917131;0.012745997756704264;0.008692234698035041;-0.7725359818944977;0.009686958295095319;0.020393596410727;0.008748674227422176;7.6539300737561e-05;0.005884639252906124;2.1786774362196084;0.11951019396344198;0.0
0.008341246858915493;-0.7532835304743859;6.957639916136756e-05;0.009432038339961249;0.014525218845614645;-1.7096973044538437;0.00021098198251299883;0.018099316814520094;0.014870087933263564;-1.6839309755384946;0.018354236769654267;0.033649434077699596;0.01437515284835024;0.000206645019413432;0.014148192543601903;0.23748145844250956;0.1837690746903495;0.0
0.03231355537369379;3.3436309922312866;0.001044165860888775;0.023707555827470125;0.009651113738146741;1.2547495943753102;9.314399638664477e-05;0.009941878250229547;0.016420750252107236;0.25258556312954994;0.01886407667992253;0.035688793718772295;0.02088967867884917;0.00043637867530556566;0.02247800796401145;-0.3455405438960746;0.23970638797542523;0.0
0.04344123259741152;-5.372878294591288;0.001887140689582409;0.06933822779647177;0.009651113738146741;1.2547495943753084;9.314399638664477e-05;0.009941878250229547;0.018930560233363036;2.2879112122022676;0.012745997756704389;0.0448659121035995;0.02611288734588417;0.0006818828855388375;0.026233806798567474;0.6780648354398764;0.24278561473057458;30.0
0.03885947933230787;3.5703725914083897;0.0015100591339780626;0.024982155603140634;0.003723344260937336;-3.299999999996448;1.3863292485454995e-05;0.005098399102681811;0.022563896306451545;-4.064784303333246;0.0336494340776996;0.04588559192413581;0.02646781550543329;0.000700545257629655;0.03835535743407206;-4.047346199390827;0.2118463674841477;30.0
0.0065025412017633835;1.4999999999146532;4.2283042080630384e-05;0.006627918833486311;0.004951837899572926;-0.9464970220619282;2.4520698583646814e-05;0.005863158968084009;0.018288026990672834;1.0128271899705865;0.01631487712858165;0.043846232283063113;0.01789492570171638;0.0003202283658699494;0.019782203673301746;-0.2450471434448538;0.13396215573202308;30.0
0.008130841041368611;0.4832205080986114;6.611057604000419e-05;0.00790251860915673;0.004086677766361155;-1.2421686929380211;1.6700935166070595e-05;0.004970939125114676;0.01043201064085039;-3.7578197900981323;0.015295197308045308;0.021413276231263406;0.009172910627696216;8.414228938370218e-05;0.008389250868978876;1.4652099072779308;0.06427176245952065;30.0
0.006731689038556619;-2.024955306516146;4.531563731182334e-05;0.008412358519424894;0.003261248948437511;-3.250011406949847;1.063574470368477e-05;0.004461099214846526;0.01043201064085039;-3.7578197900981323;0.015295197308045308;0.021413276231263406;0.010440221415814402;0.00010899822321122968;0.01582603692172807;-4.714981592862118;0.07444445165108497;0.0
0.010411225582064748;0.9488581796344029;0.00010839361812063945;0.00994187825022947;0.00927455646342935;1.62565682538116;8.601739759333914e-05;0.009304578362394234;0.011744775869733272;-3.463511022210854;0.016314877128581665;0.025491995513408805;0.009390170115690403;8.817529480160511e-05;0.015045473653553076;-5.454217365143045;0.06733177320224215;0.0
0.008908835472676553;2.0112888770006734;7.936734947922005e-05;0.008667278474559025;0.007909368327534801;1.5000000000001847;6.255810734061065e-05;0.006627918833486207;0.009655601584814861;-4.605326073445001;0.014785357397777116;0.01937391659019061;0.008178853414934179;6.689364318298048e-05;0.013373337859456519;-5.691971218719869;0.058224313715523154;0.0
0.008531253457061827;2.4142857142560903;7.278228554862937e-05;0.007137758743754503;0.008086763878167038;1.4109605709057504;6.539575002122718e-05;0.006755378811053259;0.0356292627453532;3.031105077938026;0.021158356276129248;0.08157438564290811;0.03133281299331392;0.0009817451700739816;0.018737985567754495;3.1890564889223256;0.25450134182047046;0.0
0.016762804346664106;1.4499919131282812;0.000280991609564541;0.012491077801570279;0.012060525035201565;-1.9200449754912299;0.0001454562641247237;0.014912817375344029;0.04085935630379893;-4.837043860084995;0.06322014887325379;0.08157438564290811;0.03199187026512675;0.0010234797630607013;0.04206159452785632;-2.5891412867898342;0.27737014145500954;0.0
0.012745997756704219;3.0366207999887465;0.00016246045881390897;0.009432038339961202;0.014655126289186086;0.8194598108124804;0.00021477272655199314;0.014912817375344167;0.03283490410337985;3.244772444594137;0.0221780360966657;0.0734169470786174;0.030118027098406875;0.0009070955563003709;0.03526574167490454;-0.6974061500027666;0.3177471225507503;30.0
0.02276032182705894;1.3561145301303767;0.0005180322496712955;0.016952177016416846;0.014776564439879078;-0.43015873015865935;0.0002183468566458989;0.01682471703884969;0.012691498318377199;0.7908154244777101;0.011471397981033998;0.030590394616090602;0.014894913869882533;0.00022185845919121905;0.013843003567799828;0.8012910285568893;0.18111171070945195;30.0
0.03172874579594261;-1.4789907314517894;0.001006713309783546;0.03836545324768028;0.013743629801268272;1.472502314620014;0.00018888736011430935;0.009177118384827015;0.026875221645451655;0.6383486650860153;0.02651167533394512;0.0632201488732538;0.021229389297708203;0.00045068696995364757;0.025508481018621784;-1.5163803518903016;0.23170090158219192;30.0
0.02361234069834751;-0.12198253459657238;0.0005575426332548383;0.026129295401243924;0.008043791730083166;3.2648245062385826;6.470258539695432e-05;0.006245538900785136;0.030492163525884554;-1.6000141108487043;0.0404048128887529;0.063729988783522;0.024382483820848802;0.0005945055172739535;0.03561785094157638;-3.4996762421769656;0.25626872299128806;0.0
0.018175751089004853;0.00996695511054746;0.000330357927649461;0.018481696747221325;0.004586198215055126;1.7470644573179364;2.103321406777482e-05;0.004461099214846526;0.01575493318529642;3.4388599486609053;0.012108697868869131;0.033139594167431397;0.015328457591478025;0.0002349616121337403;0.00948209963696127;3.8682991628670393;0.14348754637009914;0.0
0.020057303378377266;-1.1308482743021422;0.0004022954188122641;0.023707555827470146;0.008646009047468784;-0.07659125761206376;7.475347244891206e-05;0.00981441827266244;0.005465442619519052;1.7218833592628862;0.003696339349444272;0.013255837666972498;0.008664902154972745;7.508052935525132e-05;0.005378782019170705;3.6306152108353515;0.0729637309092904;0.0
0.017798208710221957;-0.878752112770945;0.0003167762332926208;0.021923116141531546;0.011835718748205057;-1.611580043263924;0.0001400842382866127;0.014402977465076267;0.011478948679881012;0.05100672004103046;0.01236361782400322;0.026511675333945106;0.011856900000901139;0.0001405860776313694;0.017971552470264093;-4.696867303508979;0.09537999408483917;0.0
0.023846486714770174;-1.4121962198612934;0.0005686549286377104;0.028296115019883748;0.009271052443483257;-0.7476586888661121;8.595241340981687e-05;0.011216478025900256;0.01111949818358033;0.7599734621222396;0.010451718160497545;0.026511675333945106;0.011463889718952167;0.00013142076748829718;0.01666890362878512;-4.169656634237434;0.09189752358209517;0.0
0.03452260021868086;0.5649154644668108;0.0011918099258588636;0.032884674212297224;0.008464980391837447;-0.0322314158344863;7.165589303419244e-05;0.009941878250229796;0.013071537013038068;0.7586371472213269;0.01172631793616799;0.03161007443662692;0.012619082741658457;0.0001592412492408223;0.01746374025558442;-3.4002341237321794;0.10180652370707355;0.0
0.01858644451265224;-0.5062027209198874;0.00034545591962190065;0.020138676455592898;0.01296504613898963;1.591540014879401;0.0001680924213861299;0.008667278474559031;0.024451063135070523;0.2532476370485437;0.024472315692872462;0.05812174977057201;0.023219393140210536;0.000539140217799656;0.019880055467199884;1.1291742078177869;0.20858397252857122;0.0
0.014211644605655407;-2.478138370031676;0.0002019708423974544;0.01911899663505662;0.006984372586939398;3.9010628799664673;4.878146043319054e-05;0.004333639237279502;0.0224078362343966;-3.771719543417781;0.03186499439176094;0.0479249515652085;0.01964863642339134;0.00038606891329862086;0.03104153687077052;-5.162094147419596;0.20300917412810246;0.0
0.012978405283325915;1.2561347355542996;0.000168439003698262;0.010196798205363553;0.006763790742031992;-0.04958677685910118;4.574886520199768e-05;0.008157438564290714;0.014808779760813377;1.8598933087522713;0.012491077801570244;0.03466911389823589;0.014464127903919259;0.00020921099602093572;0.019781387525413405;-2.587457931739806;0.15768935297247139;0.0
0.042473061282060735;2.1841988555672778;0.0018039609346696868;0.03772815335984503;0.006003712223464774;1.500000000000611;3.6044560462180344e-05;0.005098399102681811;0.0172041069098179;2.329270165460585;0.013765677577240704;0.0397675130009177;0.01808556978565043;0.0003270878344716317;0.021880615518111754;-0.4506534441859351;0.1927591855198203;0.0
0.04249345651074256;0.6049369844643948;0.0018056938462303691;0.045375752013867655;0.003369060807178424;-3.869005302716875;1.1350570722465733e-05;0.004843479147547514;0.01725188570988958;-1.5275223584678557;0.02064851636586118;0.0397675130009177;0.015974617295258106;0.00025518839772995937;0.009829952529896713;1.528502694225903;0.16320694768955413;0.0
0.039792561347228396;1.5917054425753516;0.0015834479385729353;0.03084531457122463;0.008692234698035055;1.500000000000112;7.555494404572456e-05;0.008667278474558893;0.01738446939607017;-0.7725359818334088;0.01937391659019068;0.0407871928214541;0.014455395990749093;0.00020895847324936494;0.022598162526933988;-4.718115399117284;0.13199661334190974;0.0
0.02814143889767456;-0.44128150003107436;0.0007919405832315508;0.03262975425716312;0.008981482792375435;1.25026852846411;8.066703314973603e-05;0.008922198429692996;0.013360010881366225;-2.170157413528427;0.01784439685938613;0.028551034975017806;0.013501213838369793;0.00018228277510938802;0.012830435352964797;2.3087917403698537;0.11561209015835205;0.0
0.013705751098640917;-1.4411364224344805;0.0001878476131778967;0.01631487712858155;0.014138293692119943;-0.06492819107111103;0.00019989134852463854;0.014530437442643013;0.014596625513652992;3.6093327893780973;0.009432038339961257;0.0316100744366269;0.015114979202696874;0.00022846259629795903;0.008808581381175101;3.6854110911663973;0.12618240057536656;0.0
0.01333079444549007;2.196967100041036;0.0001777100805479089;0.009432038339961226;0.013965643420721064;0.5782047408319517;0.00019503919615472952;0.013000917711838395;0.005669701001874104;1.8192544349428026;0.00484347914754768;0.013255837666972595;0.006313042725222072;3.9854508450479326e-05;0.0043121189364328655;2.547891651061555;0.0507956206635635;0.0
0.008999552992641295;1.2820378307157174;8.09919540673589e-05;0.007010298766187376;0.008707174098398676;2.238720000000118;7.581488077982481e-05;0.007902518609156667;0.011964050104889976;-0.6468584561201141;0.014275517487508937;0.026511675333945203;0.012447191615683553;0.00015493257911754294;0.01517537151875159;-1.0900189807373621;0.10503261072477521;0.0
0.008735736537551877;-3.8215794363468714;7.631309285351885e-05;0.012618537779137275;0.008707174098398676;0.6588342857145069;7.581488077982481e-05;0.009432038339961119;0.01522422153153285;-1.6380372084767636;0.018609156724788453;0.034669113898236;0.015298980933364155;0.00023405881759943993;0.018382174974421822;-1.2633841258400018;0.13812989804281608;0.0
0.0096106288131596;1.0332448634035583;9.23641861843335e-05;0.009686958295095374;0.006738121614356932;1.1656663364609479;4.540228288986407e-05;0.005608239012949934;0.0088306862831086;1.6942222223430914;0.006118078923218154;0.021413276231263406;0.008281620714131244;6.85852416527277e-05;0.006809104475648725;1.2986188911335717;0.07929509603196691;0.0
0.01443846462578379;2.6218835703756334;0.0002084692607500098;0.01223615784643625;0.008494357251016025;-3.447965902760675;7.215410510788853e-05;0.012108697868869478;0.006285728564259474;1.4999999999362768;0.004588559192413633;0.015295197308045308;0.006255600280515408;3.9132534869584445e-05;0.005584794404111276;0.8442683557549433;0.06060676468860831;0.0
0.016011327365598127;-5.051525651343569;0.0002563626040083514;0.024854695625573523;0.01190870059440976;-4.6506112969749935;0.00014181714984729538;0.018226776792087535;0.009134532918919814;-2.6769538340771692;0.011981237891302177;0.020393596410727105;0.009061151631115746;8.210446888207155e-05;0.012127524175299317;-2.967662415910805;0.09042371930642414;0.0
0.014204784047878958;3.1965667550908528;0.0002017758898468765;0.008794738452126048;0.014344392159880882;-5.718210263454807;0.0002057615864364521;0.023580095849903393;0.013173879185808583;0.5321712887024166;0.012491077801570313;0.0316100744366269;0.013106196557942859;0.00017177238821543326;0.012095280815508452;0.6784050974449922;0.122658634360771;0.0
0.008193208259400375;0.7378915910425228;6.712866158190651e-05;0.009049658407260125;0.015432661229392592;2.335560936479327;0.00023816703262119729;0.011343938003466864;0.01723429840465971;0.21102350198971287;0.01835423676965431;0.0397675130009178;0.018461170769585308;0.0003408148261837909;0.019444637957337196;-0.03213107487748168;0.16183198763181933;0.0
0.010165948711269137;-5.93724003502406;0.00010334651320015462;0.01720709697155092;0.013765677577240806;2.029809517895762;0.00018949387916055032;0.010451718160497586;0.017153669665811035;1.7274032638791503;0.015295197308045252;0.0397675130009178;0.018302728440343374;0.0003349898683609542;0.015136252013097748;1.7191028905391832;0.1584483311639174;0.0
0.008883268553552922;-3.0203758459293617;7.891246019454222e-05;0.012618537779137348;0.01532914895316907;-3.8253974469417713;0.0002349828076284444;0.021923116141531473;0.010823346132416294;-0.46631770579447007;0.011726317936168004;0.025491995513408805;0.012355075485628399;0.0001526478902555758;0.011727709220338223;0.4635521982320192;0.10389328717571482;0.0
0.010020008161024406;1.5673819922213799;0.00010040056354699569;0.00650045885591918;0.01895571713513785;1.9098861940633327;0.00035931921210735873;0.015040277352911385;0.019246034555090247;0.2573099415200204;0.019118996635056604;0.045885591924135896;0.017469623071897512;0.0003051877302741738;0.01932107342846616;-0.5336560033692308;0.15642323774374747;0.0
0.011551371787475798;-1.8177095631695774;0.0001334341901724918;0.015295197308045325;0.007281970458389843;1.0434448289118734;5.302709375686239e-05;0.006627918833486124;0.012854303454913767;0.11510486720537116;0.01300091771183852;0.030590394616090602;0.009497875527352718;9.020963953308567e-05;0.006269438511965986;1.520643406485684;0.0912392080685406;0.0
0.012471119138681331;3.8019630511825078;0.0001555288125711838;0.007392678698888502;0.010114680729699307;-1.9507496594414366;0.0001023067662637505;0.012618537779137462;0.009868618429664642;-3.513709299538297;0.014275517487508924;0.02039359641072709;0.00548627019887349;3.0099160695047368e-05;0.008359784813239915;-4.531748341121382;0.05539708713728476;0.0
0.015517347110789441;3.8706382793570526;0.00024078806135672542;0.00892219842969303;0.013140128447904511;0.0030647416039624176;0.00017266297562742943;0.014402977465076072;0.008464980391837382;1.8627021226625367;0.005863158968084037;0.020393596410726994;0.011466623897865383;0.0001314834636150975;0.009016397668735479;1.93441857498712;0.12451153401962269;0.0
0.01690691461900872;-5.552072922793953;0.0002858437619344508;0.027276435199347405;0.01727635247767665;-1.7426514823032786;0.00029847235493292413;0.021285816253696382;0.009722670704862471;-2.7512125287758273;0.01351075762210667;0.020393596410726994;0.011737085986368793;0.0001377591874514147;0.0075792028021148955;2.80845803939064;0.126070506968136;0.0
0.020005397395189275;-5.177893712637545;0.00040021592493944577;0.03135515448149277;0.01958022015724869;2.3217005007374567;0.0003833850214063279;0.01771693688181908;0.01034443274771988;-2.8132111656002294;0.014020597532374848;0.022432956051799693;0.014240921235783513;0.0002028038376437898;0.009447215581489657;1.676692696646768;0.14995590462018096;0.0
0.018401383615293983;-2.2921189403365467;0.0003386109189572098;0.024472315692872375;0.00668648773763838;-4.226068144942612;4.470911826558842e-05;0.010196798205363455;0.011013800853825367;3.4748571428270303;0.008157438564290784;0.02345263587233609;0.01498420087295141;0.0002245262758009578;0.013991874597661061;1.4665327210228458;0.1544608064267376;0.0
0.015292364601787357;-0.25304831383486714;0.00023385641511399898;0.0165697970837157;0.00800735460343951;-3.629802775748532;6.411772774522392e-05;0.011216478025899812;0.001766137256622588;2.8888888763575693;0.0010196798205363566;0.004078719282145399;0.0059618365967022266;3.554349560577799e-05;0.006334901096760909;0.0514039926343095;0.05787097160272516;0.0
0.017570378326474647;-0.0847677532736828;0.00030871819453544996;0.018099316814520226;0.007469923175906911;2.6848501215234286;5.57997522539512e-05;0.0050983991026817554;0.0029288073042414713;3.4123048540487915;0.00229427959620683;0.006118078923218098;0.004385778059358861;1.9235049185953573e-05;0.002961900508281004;1.8523115768450058;0.04180782731613861;0.0
0.017434238949365508;-1.7691882636074272;0.0003039526877435733;0.0214132762312633;0.006263288709211218;2.2786828513773063;3.922878545493273e-05;0.004461099214846553;0.006522497896875152;0.3338463012629287;0.007392678698888502;0.01427551748750891;0.005770309213843864;3.329646842337139e-05;0.0037102469921535264;2.487828306371769;0.05461638035669577;0.0
0.014764832350343813;-1.8140839801742352;0.00021800027433375923;0.0193739165901906;0.007226729700220289;0.9908691344680562;5.222562216004603e-05;0.007775058631589726;0.005967523152197601;0.28323299187737305;0.005863158968084051;0.01427551748750891;0.0059267505726982575;3.5126372350979126e-05;0.007246694516383809;-1.7848462904786278;0.055369060607155934;0.0
0.01528386333293696;-2.1136621789399204;0.00023359647837989484;0.020903436320995127;0.010501340840239756;-0.09782732118689275;0.00011027815944288743;0.010834098093198907;0.011060902141513387;2.457174040330848;0.008667278474559031;0.025491995513408805;0.01033593486732741;0.00010683154958163448;0.009782702030822404;1.482141751977748;0.09890389708708971;0.0
0.021475903051453804;1.8293468675399165;0.00046121441187544276;0.013000917711838476;0.011126314287139458;1.601030579838918;0.00012379486961620363;0.01083409809319874;0.01571983424064069;-4.521861089086393;0.02345263587233612;0.032629754257163204;0.012368423638638153;0.00015297790330482305;0.019950119850875747;-5.409953900523929;0.12231952977585513;0.0
0.011774248377477781;-6.0000000000069775;0.00013863292485453817;0.020393596410727098;0.004588559192413752;-3.9012345679004294;2.1054875462284747e-05;0.0068828387886203934;0.01527252094671222;1.2440492880745673;0.014275517487508868;0.0356887937187723;0.011140127377784036;0.00012410243799325344;0.007079092225970085;2.7809676872991815;0.11900912671898278;0.0
0.009615135556109931;1.2454718490759902;9.245083176236943e-05;0.010451718160497649;0.006367898438256836;0.390532544378285;4.055013051995384e-05;0.006118078923218417;0.007370670079943299;-1.8606716878644143;0.009941878250229394;0.015295197308045197;0.004686078681498269;2.195933340919256e-05;0.007114230017064516;-4.6074937745311;0.05414112172730829;0.0
0.011060902141513094;1.9198131756028527;0.00012234355618412896;0.011216478025899895;0.009899300417532213;-2.1645406637633258;9.799614875655345e-05;0.012491077801570383;0.007958512269445576;1.681267906931243;0.00484347914754768;0.0193739165901907;0.010124051017433881;0.00010249640900360399;0.007817874664261856;1.8687564902855964;0.1254041561231565;0.0
0.011843951656317443;1.3041564405916084;0.0001402791908371847;0.011981237891302149;0.012193597168452544;-4.092816274634481;0.0001486838119064939;0.017844396859386158;0.005290228889661356;1.0309309969268892;0.005863158968084023;0.011216478025899902;0.007884057173007981;6.21583575072586e-05;0.0048217629706235055;3.702481042704676;0.10037906673756879;0.0
0.014939846351813845;-3.148258169053891;0.00022319900901580548;0.020393596410727004;0.010823346132416072;2.445345050943512;0.00011714482150208595;0.0071377587437544965;0.008088103078950816;0.3038814086664807;0.007902518609156722;0.0193739165901907;0.0074921778972089365;5.613272964342613e-05;0.004119268170387103;3.9648572284929777;0.09600496094406753;0.0
0.01601470920687899;2.996932067201545;0.0002564709109808947;0.013255837666972553;0.017391943908516897;-2.502833615366935;0.000302479712916998;0.022687876006933755;0.008028966935874043;0.8756503642389344;0.007137758743754427;0.0193739165901907;0.007332487847259491;5.376537803020813e-05;0.009925822288421371;-2.104778172457223;0.09634829762146668;0.0
0.01622634432800805;3.580801457114063;0.0002632942502510791;0.011343938003466874;0.015427747822013355;-2.5890406438688096;0.00023801540285963785;0.021158356276129248;0.005224304459039106;0.3428571424455864;0.005353319057815872;0.012236157846436196;0.004080873663535693;1.6653529857739232e-05;0.005746827058855375;-2.9807991049575886;0.05189419992036711;0.0
0.005833528158231921;1.6464572508921194;3.403005077288471e-05;0.004970939125114699;0.01566461863540045;3.9281815570238336;0.000245380276992535;0.008157438564290825;0.003949202963400935;-1.199999998931757;0.004588559192413549;0.009177118384827196;0.0033331053438993645;1.11095912335305e-05;0.0025207441070434766;1.394807820058153;0.043009699067278286;0.0
0.01218204472893936;0.1128375089407605;0.00014840221377787922;0.0131283776894055;0.016692878090899286;-5.26932501670751;0.00027865217895762536;0.02651167533394516;0.002928807304240651;-1.2892561971652512;0.003823799327011268;0.006118078923218098;0.0019946021751925426;3.978437837282822e-06;0.0015947872796554935;2.9371315262816893;0.026049176990317644;0.0
0.017259417640267793;-1.509176770860952;0.00029788749728118703;0.020648516365861076;0.012471119138681512;3.801963051186746;0.00015552881257118828;0.007392678698888461;0.0021021238021908563;-4.858131495108077;0.0033139594167431036;0.004078719282145399;0.0006884972649441847;4.7402848383562285e-07;0.0008805380116421735;-2.3512044395720366;0.008908562386362773;0.0
0.012484139277051115;-0.5269271910613185;0.0001558537334888103;0.015422657285612276;0.012934937618087772;3.4926357575613416;0.00016731261118382217;0.007902518609156556;0.004204247604382174;1.78546712670496;0.0025491995513408777;0.010196798205363497;0.004937236047280067;2.4376299786561703e-05;0.0030158658496348273;3.677887712234366;0.061835992231179075;0.0
0.01480219596727773;0.7330002548543426;0.0002191050054536931;0.0166972570612827;0.013856644648815133;-4.707301020474745;0.00019200660092353708;0.02090343632099531;0.012133047312193055;1.6784321767934518;0.011471397981033957;0.02753135515448149;0.011047974369491634;0.00012205773766894408;0.012852909295307635;0.03833213490662679;0.12908293179295116;0.0
0.020373936854883933;-5.392761874403616;0.0004150973029667979;0.033012134189864276;0.010243426916773475;-0.9702390896550419;0.00010492779499927935;0.011981237891302121;0.012749396236369314;1.1145339401188767;0.013765677577240704;0.02753135515448149;0.011745911888606629;0.00013796644609491052;0.014326249724152612;-0.5286047760973993;0.13836376031690523;0.0
0.022407836234396454;1.718646210286618;0.0005021111247075306;0.018609156724788422;0.009722670704862362;0.6604188422732751;9.453032563518878e-05;0.008922198429693218;0.01768282301360594;0.22391224039721003;0.017462016926684976;0.04231671255225859;0.015103804944128937;0.0002281249237902937;0.017658720114509294;-1.1903543751437873;0.18379894732664268;0.0
0.029096631127521616;2.489358410769068;0.0008466139429710598;0.022178036096665646;0.023715320934350862;2.9377506002942795;0.0005624164470192602;0.01656979708371592;0.027431645663932296;-0.044519920162864324;0.028168655042316755;0.06525950851432649;0.01579077160573304;0.00024934846790442477;0.013350211462895806;2.697788944919971;0.2033300493417947;0.0
0.033401324266664936;2.6219751261368742;0.0011156484627669;0.029060874885285977;0.02521174251133908;2.419027362707771;0.0006356319604580623;0.017844396859386324;0.016097678792466964;1.8110780132661866;0.011598857958601029;0.03874783318038141;0.004048278473809725;1.6388558601511197e-05;0.0041723134430399905;-0.08477628345069554;0.05751612805427447;0.0
0.0333234111111821;2.2829047959713566;0.0011104497280848549;0.0305903946160905;0.02471715943870465;0.6868724593622826;0.0006109379707183465;0.023197715917201656;0.017205995430313276;1.5740481442485894;0.012363617824003283;0.04180687264199041;0.0061133489278850095;3.73730351140728e-05;0.005352423846929286;1.6005318302800369;0.08542347350709036;0.0
0.03182724387685033;2.601673355783408;0.0010129734527965066;0.0237075558274701;0.02655575944346985;-0.30752316901512167;0.0007052083596194381;0.030845314571224913;0.01732455720386735;1.8974633178486577;0.011216478025899833;0.04180687264199041;0.0048601628156956615;2.3621182595070777e-05;0.0062656614241412;-2.3419311668972025;0.06549757957933994;0.0
0.011873177984914435;-4.149871048978564;0.0001409723554614568;0.017589476904252083;0.033637844811270995;-2.0519397492448697;0.001131504603547151;0.04206179259712445;0.011696724657604726;1.5470321561484646;0.00790251860915668;0.028551034975017806;0.004101655159567718;1.682357504800848e-05;0.005603267026658032;-2.172978412583877;0.05482274243274513;0.0
0.010298261383054891;2.0382545174871485;0.00010605418751371962;0.007647598654022626;0.04171973599567418;-4.512255752110038;0.001740536371548752;0.06271030896298566;0.015055392128309569;-1.1866425385051844;0.01835423676965428;0.0336494340776996;0.005720833195549336;3.2727932451299225e-05;0.00677404610658959;-1.3717899309206327;0.07768027433973011;0.0
0.008908835472676626;-5.485135676300002;7.936734947922135e-05;0.014275517487508955;0.03936347128980869;-1.9529771901861288;0.0015494828719835928;0.05123891098195185;0.01226444957864667;0.697264753978839;0.011216478025899895;0.029570714795554204;0.012109317976903334;0.00014663558186575425;0.010498312169859622;2.1517248710367856;0.18407443493703277;0.0
0.009247658380349114;-5.229774299956162;8.55191855196412e-05;0.01453043744264303;0.03164295023795845;-4.192219062746345;0.0010012762997619145;0.046395431834404116;0.019578560652478733;1.5000000000003642;0.0193739165901907;0.0438462322830631;0.019237544854921542;0.00037008313204511833;0.024235663091378964;-1.4550145959044354;0.3557969690085645;0.0
0.010930885239037269;1.2130175990065961;0.00011948425210900283;0.008922198429693027;0.029001183182361515;2.9485416045442214;0.0008410686259768884;0.019628836545324962;0.017707917633232467;-3.2389917173646214;0.024217395737738272;0.0387478331803813;0.021649763150016283;0.000468712244451803;0.026716059823201983;-1.7821400515877688;0.5336416000118713;0.0
0.0320010013403467;2.1131034586240283;0.0010240640867848715;0.026256755378811024;0.018847993790845768;1.9445282569898943;0.00035524686993976067;0.014275517487509132;0.015979503073200844;0.6846755063938588;0.015550117263179324;0.0377281533598449;0.01441757032576887;0.00020786633409849105;0.019652479445705636;-2.7573070918861475;0.4098695605357469;0.0
0.027067970146581653;-3.676464691398218;0.0007326750078562356;0.038237993270113096;0.020314844035245708;2.4392534499766114;0.0004126928881763581;0.018099316814519845;0.015087012079783302;0.40870356140408504;0.01504027735291115;0.0356887937187722;0.012261644824352727;0.00015034793379857604;0.014988705625417435;-1.4130082771519117;0.3708364478443494;60.0
0.020212221560994132;2.2871803060783638;0.00040853390043071603;0.013510757622106653;0.02437297854185452;1.238579533773029;0.0005940420830017009;0.021413276231262962;0.042512822915127736;1.9182747617196938;0.03747323340471085;0.0978892627714897;0.03526593967913276;0.0012436865014522306;0.024589250077740238;2.371124257642837;0.6930544171115627;60.0
0.009492702521171036;2.123076923068737;9.011140115544695e-05;0.007137758743754476;0.024963072671871846;2.6432799513982026;0.000623154997221155;0.01682471703884994;0.046335631841020984;-3.137677056299207;0.06500458855919244;0.0978892627714897;0.030171340575206818;0.0009103097921051212;0.046649086755821856;-4.910889933199833;0.44173529097241193;60.0
0.00688441218875229;-1.1100067177282398;4.73951311846411e-05;0.008412358519424873;0.012554214688462321;1.214473937525062;0.0001576083064440031;0.009941878250229519;0.027979328039428982;3.190607760694629;0.020138676455592947;0.0622004690527175;0.025971628203983417;0.0006745254715659469;0.022066850699585944;1.9150616188477496;0.3395164468364189;60.0
0.015272520946712019;1.2440492880781395;0.00023324989606775736;0.014275517487508849;0.02068677137473012;-1.254624335500095;0.00042794250991035353;0.024217395737738207;0.017651557965533155;2.1343254957621625;0.014785357397777102;0.0407871928214541;0.01953090630512688;0.0003814563010996449;0.018530362815327023;0.7855101514313176;0.24403742245448387;0.0
0.014138293692119793;-4.766218942405898;0.00019989134852463437;0.022178036096665597;0.013866020974224676;1.1358343414985619;0.00019226653765763864;0.01147139798103411;0.01696830150036439;-5.343478173850974;0.02727643519934743;0.0326297542571633;0.0170425725120728;0.00029044927782925935;0.026256942925109356;-4.569910122481554;0.2497670132958762;0.0
0.009864227497998826;-2.140529636541041;9.730298413227618e-05;0.013510757622106675;0.007675870834190664;3.1442906574392815;5.891899306317888e-05;0.005098399102681811;0.01662005122653546;2.1136759712178126;0.010706638115631724;0.0397675130009177;0.01660030657926089;0.00027557017852545244;0.010687516880017678;1.7730012569121278;0.2971915287782139;0.0
0.007958512269445502;1.6812679068964709;6.333791754291459e-05;0.004843479147547675;0.007186150882657213;3.734696635286614;5.164076450831504e-05;0.004588559192413605;0.01430886092232842;-0.5444859914493279;0.017589476904252027;0.0305903946160906;0.01211673772192563;0.00014681533302193548;0.017929181496024488;-3.850245268294918;0.2769017301341977;0.0
0.015017937262577899;0.2534792075510577;0.00022553843962272574;0.015040277352911175;0.018373110025817815;3.959006025239354;0.00033757117202080716;0.010196798205363622;0.017021833419052654;-1.2583503124923165;0.020393596410727022;0.0387478331803814;0.022019242574223507;0.0004848470435424971;0.02426518371175372;0.08731483780441884;0.439556186389442;0.0
0.014729580014289317;0.9377813389943075;0.00021696052739735128;0.012745997756704425;0.019710879531488444;3.42378929224812;0.0003885187719048501;0.011726317936168129;0.01595779915408675;1.0035799952335527;0.013510757622106628;0.0387478331803814;0.021957930914179087;0.0004821507300318616;0.018683389587138576;2.2904618022053906;0.45524078640130483;0.0
0.029814375476465947;2.575870812037092;0.000888896985051694;0.0211583562761293;0.020920009910374748;3.2578663382851296;0.0004376468146501777;0.01707963699398396;0.028587428915827585;-0.8567650162835658;0.03262975425716325;0.0662791883348628;0.02264451787908457;0.0005127741899761806;0.021570236573396316;1.9981181804337016;0.47903228773941176;0.0
0.02929842558199493;-0.012715040020534474;0.0008583977415836951;0.030335474660956374;0.024928339007251853;3.028007225222737;0.0006214220856604743;0.01427551748750891;0.03519865225132056;-4.763851911588857;0.05429795044356065;0.0703579076170082;0.02464132014031704;0.0006071946582575943;0.02331542410035107;1.3489391328581863;0.541255882696107;0.0
0.03616151357023704;0.46312757327110887;0.0013076550636904373;0.03466911389823587;0.010343385687365035;-3.4534327911675753;0.00010698562747758784;0.015167737330478048;0.026295089136794965;3.8075187969926674;0.016824717038849774;0.0550627103089629;0.01685879343282179;0.00028421891601055504;0.018905371688434702;-0.7386958858601211;0.4100285901649228;30.0
0.038752305202230136;-2.3280933378620716;0.001501741158486793;0.049964311206281205;0.03334258163911219;2.631600937796673;0.0011117277503608614;0.02842357499745063;0.004110460766948531;-2.5136094671390357;0.00535331905781585;0.0091771183848272;0.019066884070072822;0.00036354606814159677;0.028255140730543644;-4.183975990347937;0.43105826083233123;0.0
0.02451476553517135;-1.81892577914555;0.000600973729244425;0.03008055470582238;0.0331967384786675;1.3237677257333544;0.0011020234456210433;0.03377689405526646;0.0045123952439903485;-4.772838388192955;0.006882838788620376;0.0091771183848272;0.02419662482606832;0.0005854766529735058;0.038653362312669075;-5.39055382623582;0.6130119899961434;0.0
0.01774945975887544;-1.0475443583971504;0.00031504332173193866;0.02141327623126348;0.03048399292113131;1.329453763020231;0.000929273824415584;0.024217395737738096;0.014528201130594703;2.8058433837288703;0.009177118384827173;0.0336494340776995;0.022618239049353315;0.0005115847376936911;0.032651871541892384;-3.620846213366084;0.5453832014487352;0.0
0.022293475180050364;0.6351692022194939;0.0004969990356035216;0.02396247578260435;0.02015157966143749;2.4876824971143385;0.0004060861628512611;0.016442337106149063;0.020820370479521066;1.4910116892092216;0.01351075762210665;0.0509839910268174;0.02603328209014997;0.0006777317763853232;0.03521236960490434;-3.1155290269608766;0.5912261926816075;0.0
0.024201737696091727;-4.479790623577978;0.0005857241075104272;0.03619863362904055;0.01182106830935649;-0.014375351086977517;0.00013973765597447233;0.012618537779137101;0.02103771880689755;1.1906736189770033;0.017334556949117924;0.0509839910268174;0.025378098903002605;0.0006440479039305821;0.032287886756610276;-2.2783855629956324;0.5893951784306283;0.0
0.018626027339410944;0.05939515030315867;0.0003469288944484839;0.01937391659019072;0.012449388647980772;3.073679399109338;0.0001549872777084725;0.009559498317528697;0.022361387050777753;-1.6260797171160437;0.027276435199347297;0.0509839910268174;0.01763767719797699;0.0003110876569400374;0.018786949542665868;-0.26789624430042736;0.35144055173752287;0.0
0.011457227008383817;-1.0893833937988742;0.00013126805072163957;0.01453043744264302;0.013756232857379518;-5.093406593406687;0.00018923394242644788;0.021413276231263573;0.01602282271370975;1.1315296122092633;0.013510757622106573;0.0387478331803812;0.013628534160051777;0.0001857369433516982;0.015611143135842158;0.6298352970801471;0.2553948298766212;0.0
0.008382694303482771;1.5907109549183769;7.02695637856425e-05;0.005863158968084002;0.0151471941505436;-4.414513376110241;0.00022943749063426225;0.022432956051799874;0.011566363840231152;-4.1828371231392225;0.01682471703884975;0.024472315692872303;0.007325522977062957;5.366328688747733e-05;0.0044356906247427635;2.006839757221874;0.16445532741681979;0.0
0.021136333654249245;3.1727519543837737;0.0004467446003437493;0.017334556949118028;0.011920517940756764;2.8106484235574136;0.0001420987479759039;0.009686958295095194;0.012275042166984726;-5.028421812483032;0.0191189966350565;0.024472315692872303;0.010606500257429707;0.00011249784771085644;0.010416808226345282;2.177142313773629;0.29360976922240994;0.0
0.02644623046657399;-4.82990891687399;0.0006994031058911464;0.0402773529111858;0.011902332548107238;0.02888645736894091;0.00014166552008573296;0.013510757622106573;0.008825778982765167;3.3102705886432204;0.006372998878352173;0.0193739165901906;0.011891792465151953;0.00014141472803424476;0.018060433610693965;-4.526477687932818;0.3951083769269173;0.0
0.02178037051421807;2.919121786451541;0.00047438453973661993;0.01911899663505648;0.005683057206487155;2.784821605689231;3.229713921220558e-05;0.004970939125114704;0.021019177015187393;2.2335618645701185;0.0140205975323748;0.0499643112062811;0.015116835989730343;0.00022851873034040654;0.020071312189270083;-1.9248633347546633;0.4708059111805929;0.0
0.0048098200938389265;1.9800530235548663;2.3134369335096702e-05;0.004843479147547625;0.00995058964576732;-1.2568174820754976;9.901423429845181e-05;0.012363617824003137;0.01741434819679671;3.8186057142866723;0.010706638115631677;0.0367084735393086;0.016686215992565583;0.00027842980415055145;0.010310731820120888;3.5958417872148054;0.6268519192530724;30.0
0.0015295197308030982;-3.901234574198421;2.339430606915982e-06;0.0022942795962067244;0.00924648712350452;0.25850730951233913;8.54975241251349e-05;0.009304578362394234;0.019264034123723035;-5.598522990157103;0.0313551544814928;0.0367084735393086;0.018012542959049742;0.0003244517038516125;0.02774063771810067;-4.944004007745113;0.5554448402973599;30.0
0.03639080948087004;3.9759254100725165;0.0013242910146729807;0.019373916590190676;0.014039124924048494;0.5131155922069901;0.00019709702863303965;0.013383297644539494;0.021177287642764876;2.081927287755935;0.016314877128581567;0.0499643112062812;0.030676983351651796;0.0009410773075575214;0.024070811139601585;1.331218072542347;0.6136775596194894;30.0
0.037837083474512354;-5.29751342122567;0.0014316448858572159;0.06092586927704693;0.01712333600871494;-0.9344851868618775;0.0002932086360673538;0.020903436320995283;0.034679109318335975;-1.9421081480619655;0.04333639237279491;0.07851534618129889;0.030666451443370307;0.0009404312441285888;0.023361798245921953;1.421214318785907;0.6163810094699106;30.0
0.03131263899823402;1.3683299053470606;0.000980481361033726;0.0295707147955542;0.0261032723170882;-0.7328723601324203;0.0006813808256600631;0.029060874885286025;0.03374200491031723;0.11853797877446048;0.035688793718772274;0.07851534618129889;0.02013277655140153;0.00040532869166866325;0.02187354007763692;0.4061794164189152;0.32407588529707;30.0
0.012691498318376978;0.010788565919941817;0.00016107412956536566;0.01351075762210665;0.025278241169173283;0.9872611449816553;0.0006389894766068871;0.021795656163964672;0.032431322386787614;1.1162558832877973;0.02727643519934735;0.07851534618129889;0.01796858461670289;0.00032287003312761177;0.018799954082004966;1.3630964403351111;0.27988619374379203;30.0
0.021492035187476177;2.4726238382076122;0.0004619075764997142;0.017589476904252076;0.02545245225054676;1.1999465772926126;0.000647827325566363;0.021795656163964505;0.02372445310032246;2.886104977068399;0.020393596410726973;0.0509839910268174;0.012463228672279088;0.00015533206893751956;0.009075346678473185;1.5159727180500262;0.24747497530822196;30.0
0.018921403976366113;3.519805751909807;0.0003580195284368434;0.013255837666972546;0.018785254268663197;3.246456891448375;0.0003528857779383288;0.014402977465075961;0.006529136573295272;-5.518143961879451;0.010706638115631675;0.0122361578464362;0.013040072642795199;0.00017004349452937574;0.014890463165940844;-0.9271581912929925;0.2692939089442122;30.0
0.020195067115670696;-4.66371674585808;0.00040784073580644385;0.030845314571224622;0.008834364969492947;1.594677208348564;7.804600441420413e-05;0.007520138676455568;0.005363425389365221;2.234867179669866;0.004588559192413574;0.0122361578464362;0.01045361139709008;0.00010927799124137161;0.01238743393997107;-1.2312181592739755;0.2651926789862859;0.0
0.025614064825288906;-2.990262732914662;0.0006560803168741024;0.034669113898235925;0.013460159867894514;1.4231848318988245;0.00018117590366927805;0.010451718160497614;0.005419672587299576;-2.215052079156294;0.006882838788620324;0.0122361578464362;0.01667935332369797;0.0002782008272967544;0.01586498881407318;1.6158767724782273;0.38882798305494265;0.0
0.03337018083400329;-1.3138902619871544;0.0011135689688940803;0.03976751300091767;0.02016071443570151;-1.0675665757999315;0.00040645440655790317;0.023197715917202016;0.009139274436454585;1.8841617740865377;0.0076475986540226505;0.021413276231263302;0.01799203033594332;0.0003237131556095047;0.020258095796160957;0.7779503491085116;0.43507249062452485;0.0
0.039521637557425195;-3.1071071320572354;0.0015619598352204819;0.05531763026409702;0.019868499025424695;2.4529349328346726;0.00039475725352330204;0.011726317936168046;0.0345389102082461;2.49262587019364;0.031100234526358676;0.07545630671968989;0.025435652110535167;0.0006469723982881721;0.04064948373151234;-5.150700735381136;0.5095690453076626;0.0
0.04525433550958048;2.9867337245911045;0.002047954882413677;0.031100234526358725;0.019868499025424695;2.4529349328346672;0.00039475725352330204;0.011726317936168046;0.03671791380525821;1.951353083841692;0.0331395941674314;0.0836137452839808;0.02585694944880713;0.0006685818347981675;0.022741657882362258;2.0253946919901633;0.4002677704613257;0.0
0.04562046453488573;3.2236242210037105;0.0020812267843787666;0.028041195064749676;0.013372975475276766;1.6149269875608105;0.00017883647306235384;0.00815743856429077;0.035347266305211116;2.2088577084147456;0.025491995513408777;0.0836137452839808;0.025866891586390228;0.0006690960803420656;0.026507650026870958;0.8060365370830294;0.4083571268884163;30.0
0.027200488797686537;1.0484145400884088;0.0007398665908330708;0.02931579484042013;0.042692814143893754;3.323347246949165;0.0018226763795250545;0.023962475782604242;0.035512341351790856;2.4620612819024945;0.023197715917202023;0.0836137452839808;0.03405636246509991;0.0011598358243542662;0.027326919511798345;2.358690816755031;0.37297580063481905;30.0
0.02766791791825255;0.8665696224779467;0.0007655136819311605;0.030845314571224657;0.0466561556169212;-4.74568873718623;0.0021767968569503674;0.07061282757214227;0.019076462663270056;-3.6291428571422824;0.0275313551544815;0.0397675130009177;0.0326904942797517;0.0010686684162544786;0.027753743405988657;1.2617413571288072;0.3384761578465838;30.0
0.05255309505477792;1.554741857439426;0.002761827799836523;0.03288467421229736;0.04318517594737444;3.4520807534104385;0.0018649594216056879;0.025491995513408777;0.019620558177723204;3.8377649643635046;0.012491077801570325;0.040787192821454;0.03730812095203395;0.0013918958889715947;0.04690903194553407;-0.7007807481911819;0.41363257493138045;30.0
0.06130811671482571;-2.003291954339627;0.0037586851751186916;0.08259406546344439;0.02582797524554401;2.6903962457716446;0.000667084305284434;0.016569797083715698;0.019754788874232508;3.9153781600099293;0.011726317936168023;0.040787192821454;0.05021141645634662;0.0025211863425526762;0.05664563616202477;-0.8898700868106229;0.6240568812330061;30.0
0.04567266459459793;-5.187915800506575;0.0020859922911706393;0.07265218721321495;0.04154491442329637;-1.3858034547829448;0.001725979914439019;0.05404303048842657;0.026214234289567134;1.8414353365297522;0.018099316814520174;0.0632201488732537;0.03267239491597554;0.0010674853895454642;0.03415623847381559;0.3631637763038462;0.4951071709333419;30.0
0.041230889403804774;2.454237858766149;0.0016999862410287808;0.03823799327011302;0.03730638361684277;-0.06357570081822672;0.0013917662585670348;0.04091465279902112;0.021950271024591562;1.4846662730374351;0.01567757724074635;0.053533190578158404;0.02560818758701884;0.0006557792714919458;0.02956093718371424;-1.1295594483331897;0.492353994939607;30.0
0.03753474522138454;3.019746463147353;0.0014088570988342493;0.024472315692872323;0.031619324210691496;-1.255347901320361;0.0009997816635408214;0.03760069338227795;0.021863752057092862;1.5081469969290566;0.013765677577240749;0.053533190578158404;0.024791506851608133;0.000614618811973333;0.019889166881343755;1.509990188748045;0.5081495544333199;30.0
0.03207368526696308;-2.0345885980940377;0.0010287212866042048;0.0426990924849598;0.03709910168288398;2.096975320413746;0.0013763433456769648;0.03352197410013272;0.022334247082501174;0.7633258485063301;0.020648516365861073;0.053533190578158404;0.017657419580382396;0.0003117844662376716;0.020736094517476204;-0.7469317378959577;0.2994220692438089;30.0
0.06460213538090957;2.4339940998802163;0.004173435895773369;0.060288569389211885;0.034754918241576956;1.3266188044302112;0.0012079043419786985;0.028933414907718863;0.01587614520282338;0.11411036811605513;0.01656979708371567;0.0372183134495768;0.048572841458263676;0.0023593209273296187;0.03695996928328637;3.319153061618781;0.6459537110326334;30.0
0.0743869940822749;-4.602508853819771;0.0055334248885964;0.11305700010196795;0.03629067078627954;0.5235124653739387;0.0013170127861181233;0.037728153359845;0.009018787966211084;-1.0304364708440108;0.0113439380034669;0.0193739165901906;0.05699918476342519;0.0032489070636950827;0.09074675803672874;-5.4109351232613605;0.5439703994331926;30.0
0.05385894211371681;3.816565683425118;0.0029007856456086975;0.034286733965534805;0.015892509555427845;1.362564837343788;0.00025257185996936535;0.011981237891302121;0.018436664628606193;1.6687507785131501;0.011981237891302048;0.044865912103599304;0.04633272771169523;0.002146721657206091;0.03250117372132258;3.659238709375529;0.3509124962168294;30.0
0.05208275253395476;3.8037128710480914;0.002712613111513171;0.0333945141225655;0.010674218243732197;-4.074646156515765;0.00011393893511482526;0.015550117263179453;0.02292957408044947;-2.1084939788089194;0.031100234526358628;0.0479249515652084;0.04425108074671992;0.0019581581472527267;0.03145148802420897;3.6256798248502804;0.33250320309760195;0.0
0.06823225189694077;-5.541133001113666;0.0046556401989275775;0.11114510043846235;0.012136617430649622;1.1857162629753848;0.00014729748265794823;0.009686958295095305;0.019894647532934375;1.500000000000579;0.015805037218313445;0.0479249515652084;0.057330353436147716;0.003286769425113614;0.09461883746992561;-5.694150466780194;0.5226150736684514;0.0
0.05498318709557805;1.9135731526464799;0.0030231508631873402;0.04970939125114713;0.013790831874285887;-0.21510473689967569;0.0001901870437848196;0.016569797083715587;0.013943911829485883;0.9570190740391116;0.012236157846436245;0.0336494340776996;0.04708941623041865;0.0022174131209216157;0.03223921293898595;3.3144384568178253;0.5323449102403276;0.0
0.022432956051799777;-0.8521275869160494;0.0005032375172219802;0.027531355154481546;0.014042981720616915;3.6797328893842227;0.00019720533560558078;0.009686958295095138;0.030162535857548398;0.5411657142858228;0.030590394616090522;0.07035790761700811;0.016861640758118534;0.0002843149290558441;0.020094361671444502;-1.1960661183292736;0.28933057127501915;0.0
0.0235116734380494;3.90012676762041;0.0005527987878574777;0.013765677577240749;0.022937130374634383;1.4212610726616415;0.0005261119498229752;0.0163148771285814;0.02353377434229074;2.4304496703485565;0.0188640766799225;0.0540430304884265;0.01754962008061746;0.00030798916497401155;0.019742616475750346;0.4227145266232224;0.3413944161210683;60.0
0.03137345639975342;1.979904780797023;0.0009842937664672287;0.020393596410727;0.013765677577240761;1.9828428743736133;0.00018949387916054905;0.013000917711838617;0.03164842621796569;-3.248276481363863;0.04435607219333115;0.0672988681553991;0.017526061978546694;0.0003071628484758601;0.016495361794287136;2.164456541092676;0.34826943303897817;60.0
0.015351741668381314;-5.824567474055252;0.00023567597225271507;0.025491995513408725;0.013005082403527367;2.370733673743665;0.00016913216832253715;0.009177118384827071;0.028213701022714643;0.147160822288809;0.028296115019883675;0.0672988681553991;0.01664755623774729;0.0002771411286889588;0.011763963764823401;2.5764754325997785;0.48936537507058375;60.0
0.01562862388305795;2.977918173197093;0.0002442538844780894;0.010451718160497503;0.026015161156991925;2.1159187428920436;0.0006767886100242614;0.017079636993983877;0.032665582705498394;-0.18397812595961227;0.03900275313551538;0.0703579076170081;0.017785482170978903;0.0003163233760542084;0.014451139582455162;3.0212624348630044;0.4899391148265556;60.0
0.05503359138000642;3.902366180552807;0.003028696180181517;0.030335474660956374;0.054177537794576285;2.3425191757047426;0.002935205601482742;0.033649434077699575;0.028917407795425672;1.108986114623363;0.02370755582747013;0.0703579076170081;0.05534495992464139;0.0030630645890601612;0.03456878680991338;2.5755655058820786;0.9019102422955643;60.0
0.054876713733174064;3.8941692005616737;0.0030114537101527347;0.02957071479555415;0.0550815900318936;2.563475457337173;0.0030339815604416005;0.03823799327011326;0.04159806292267388;0.353880318891461;0.046650351789538;0.0917711838482716;0.05488771230974693;0.003012660962597544;0.05325670370927765;0.6745783771788787;0.812026959077585;60.0
0.11033097436163126;1.6846176733142606;0.012172923903586935;0.07316202712348319;0.05640897275898421;3.0499954081562812;0.0031819722077238224;0.03670847353930881;0.04976622552018926;-2.6261039097456926;0.0662791883348629;0.1091057407973896;0.06317107073692559;0.003990584178049656;0.08444551761134163;-2.8481523266467867;0.5670568029070834;60.0
0.11429666264312088;-0.6078982001442466;0.013063727091355384;0.12593045783623935;0.04729526659749358;2.418766347124011;0.002236842242527992;0.04333639237279491;0.05316043804522099;3.342782507373254;0.04129703273172225;0.113184460079535;0.04604081120654374;0.002119756296556604;0.03991917581608814;0.9195130268133997;0.35181304629099336;60.0
0.0706080725873702;0.006145775681895671;0.0049854999145033385;0.07775058631589678;0.012762981105685469;0.8350837483022922;0.00016289368670408425;0.012745997756704402;0.011607492142707013;-5.35560219598916;0.018609156724788453;0.02243295605179979;0.05202366104454202;0.002706461308477399;0.06253771370125046;-0.22708929296941704;0.45115586132430835;60.0
0.06840473518809091;0.14738553878222227;0.004679207796152843;0.07596614662995818;0.01649445710009985;-2.3689885999432043;0.00027206711502703436;0.02141327623126338;0.009762691014136227;1.909685950578634;0.008667278474559073;0.02243295605179979;0.04829112147690517;0.0023320324134972117;0.05262825377422567;0.5555275358490839;0.4048877160728749;60.0
0.04989402872586415;0.607869679769113;0.0024894141024973566;0.046140511879269895;0.015488703760543645;-2.9312865186574317;0.00023989994418187886;0.02077597634342815;0.01455203740770712;-2.5076435560713772;0.0188640766799225;0.032629754257163295;0.02228864069567335;0.0004967835040608262;0.020956548257812638;2.332807406699544;0.24259675716977827;0.0
0.05072074385702638;-2.1463728112196243;0.002572593857410079;0.06500458855919233;0.01610642296209985;1.7915650941159917;0.0002594168606340573;0.01656979708371578;0.020177898086326272;0.5513692313040242;0.019628836545324747;0.0479249515652085;0.008815873545978747;7.771962637868788e-05;0.01341443891867354;-4.721662024066314;0.10453627354733266;0.0
0.03816654893894748;0.7080514020522521;0.0014566854579090727;0.03517895380850415;0.022150671479946822;-5.412880228669813;0.0004906522470125295;0.0360711736514735;0.05619968514590206;1.8533829534054647;0.049964311206281205;0.12949933720811652;0.016161935327654815;0.00026120815353529675;0.01932446793611492;-0.6745007502326068;0.20358061698487318;0.0
0.03243265819099355;1.1240654744613767;0.0010518773173338212;0.031100234526358773;0.019738883023737285;2.2409187878933157;0.00038962350302478396;0.01924645661262378;0.07391741002802701;-3.0372813790505493;0.10120322218823277;0.1600897318242071;0.018407296598944994;0.00033882856808153196;0.023529574541837087;-1.6748221530054241;0.2257625537200156;0.0
0.046723890935439626;1.1943162305413608;0.002183121984146857;0.040277352911185824;0.020607037097677642;1.8325428258126948;0.0004246499779450626;0.020138676455593058;0.05787600021787731;1.7035098174218994;0.04868971143061077;0.136637095951871;0.019265015053498608;0.000371140805011528;0.028117440557425877;-4.006786173887125;0.24079887319616688;30.0
0.022791231654176795;-1.0867321322131538;0.0005194402403143503;0.026256755378810948;0.020927774262157056;1.6687749483429855;0.0004379717355678034;0.021285816253696438;0.025122229009390186;-2.7566746008267398;0.033649434077699575;0.055062710308962995;0.018441141949271083;0.0003400757163931657;0.025309862024816887;-3.280251850492972;0.23322926651338058;30.0
0.01573085410476341;-0.08180919427189792;0.0002474597708653518;0.016824717038849753;0.013252569059435155;-1.5544573516530473;0.000175630586675098;0.017079636993984043;0.02218975345904419;-3.91499193472257;0.03173753441419393;0.047415111654940396;0.01952942067188239;0.00038139827177934715;0.026012109947024492;-2.760929883065165;0.24920629462522373;30.0
0.019364969964643052;1.0682671577562974;0.00037500206173152754;0.01886407667992245;0.01969108838288389;1.6085999812739988;0.0003877389617025449;0.013510757622106656;0.01626900671521113;2.5224622406378217;0.01032425818293059;0.0382379932701132;0.014305516040580729;0.00020464778918731255;0.010805671856454674;1.3669578541720977;0.19888117120456003;30.0
0.017332057553683004;-4.21158645331548;0.0003004002190441801;0.025746915468542825;0.02043603890494204;-0.23307449940605451;0.0004176316861243047;0.021923116141531723;0.01634869862834983;2.648593002601423;0.009559498317528295;0.0382379932701132;0.015056950412445853;0.00022671175572285332;0.016027447979830994;0.14437919428747747;0.21451894201341862;30.0
0.03656065278864504;-0.3010703929034655;0.0013366813323318584;0.044101152238197126;0.020263597763071184;0.6879936215500049;0.0004106133943035434;0.019628836545324962;0.01634869862834983;2.6485930025984814;0.009559498317528295;0.0382379932701132;0.02346038675511436;0.0005503897466995453;0.020567736721337007;2.23856072040806;0.31393673754546214;30.0
0.03933704841635628;3.919652824441453;0.0015474033781107583;0.02268787600693375;0.014611457979133734;2.208382526564389;0.00021349470427599085;0.010196798205363455;0.01619494256578691;-5.980188216852713;0.0277862751096156;0.028551034975017896;0.02038629831743648;0.00041560115908751354;0.026585726916862992;-2.510740733135208;0.24230269718595807;30.0
0.04101914772205701;-5.024348582302409;0.0016825704798439348;0.063984908738656;0.006082570330095289;3.090874188967227;3.699766182055551e-05;0.004843479147547625;0.01510996684707725;-5.616925852175862;0.024727235648006468;0.028551034975017896;0.019313761546851393;0.00037302138508863553;0.02117868210343267;-0.6111734763208698;0.22474061286477723;30.0
0.04050046219197134;-4.918686130664776;0.0016402874377633003;0.06245538900785147;0.004597990978711962;2.4170921795266302;2.1141521040316588e-05;0.0040787192821453155;0.011385156333531241;-0.3530698618901962;0.013765677577240731;0.024472315692872393;0.013614412587256874;0.0001853522300960584;0.017001340080124827;-0.6231846622862722;0.15107761261562955;30.0
0.04965031057957054;1.3661702645417435;0.0024651533406478145;0.03645355358417455;0.006608280512295146;-4.849206349205872;4.366937132917979e-05;0.010196798205363455;0.022409769527719933;0.5484442043986224;0.022942795962067858;0.0520036708473539;0.0063196484424415484;3.9937956436053885e-05;0.008141523271847098;-1.1911433422022029;0.07470482941275235;30.0
0.049846249565092496;1.15912175998543;0.0024846485957054835;0.040277352911185824;0.00809345766615048;1.1252204585534678;6.550405699376998e-05;0.0071377587437546075;0.019640420397937414;-3.754157554798523;0.02855103497501789;0.040787192821454;0.016976139967424614;0.0002881893281935914;0.009622010207692794;3.4427082531430386;0.23100179074790622;30.0
0.06936508915737727;0.4548923892985144;0.004811515593810898;0.07724074640562867;0.007647598654022613;0.9279999999996207;5.848576517300849e-05;0.0068828387886205045;0.026214234289566984;1.8414353365295462;0.0180993168145202;0.0632201488732538;0.05025662890840562;0.0025257287492371915;0.034473392115883045;2.4698771037755147;0.5282626904758503;30.0
0.057672787773546584;1.309970361361371;0.0033261504495725445;0.04639543183440402;0.024178455595756845;2.4093636992163265;0.0005845977149959854;0.018609156724788356;0.029627796932328695;0.738809250579326;0.03288467421229735;0.06423982869379;0.049227393795252025;0.002423336299872818;0.04369629795223269;1.0672674763227459;0.4848131620943888;30.0
0.06943999613461245;-1.2448287244250462;0.004821913063174993;0.08794738452126039;0.02364396898737457;2.334744552648587;0.0005590372694759305;0.014785357397777144;0.03520849733989877;-3.087782672050924;0.04817987152034248;0.0764759865402263;0.05881146325230212;0.0034587882098768823;0.0743356310473383;-1.2472449817953795;0.6551233641228946;0.0
0.08666028776841503;-1.8296575847317005;0.007510005476104502;0.10732130111145102;0.025566662681882305;2.19226954430086;0.0006536542406891532;0.023962475782604187;0.025816231061837332;-4.880040693047166;0.040277352911185754;0.0509839910268175;0.062161118636072474;0.003864004670087877;0.08228365577891704;-1.7269162900789947;0.7187406300467809;0.0
0.0513590433331046;1.176014639106235;0.002637751332091716;0.042571632507392675;0.02225262857427877;-0.06553275328773367;0.000495179478464808;0.023707555827470222;0.020953117760817833;2.5381535733784304;0.014530437442642952;0.0489446313857448;0.03336139225342219;0.001112982493086698;0.019179796846206847;3.8889974650718244;0.6038474534222245;30.0
0.02922736310100628;2.7313301340354386;0.0008542387538380634;0.026256755378811;0.01953425518575301;-0.5631788787503247;0.00038158712566211837;0.021413276231263295;0.029239218841520257;-3.658153841346728;0.04104211277658805;0.0632201488732537;0.005544727449188488;3.074400248578428e-05;0.005016286974833917;1.1077145507331956;0.13495898673862258;0.0
0.02955752633962623;-1.3582046756642683;0.0008736473633176985;0.03849291322524712;0.02119977861353297;0.668594563331375;0.00044943061326280996;0.023707555827470222;0.03435781359656603;-2.2491091159291745;0.044356072193331174;0.07647598654022619;0.00849323309324875;7.213500837625573e-05;0.010198665374319335;-1.5686455581881553;0.18865050369883493;0.0
0.01739194390851695;-5.914288745602903;0.00030247971291699977;0.02931579484042005;0.021169103183467614;1.7215346601278227;0.0004481309295922987;0.021413276231263295;0.032207465908141046;-0.20011210030212467;0.033649434077699575;0.07647598654022619;0.01912957282367274;0.00036594055641619863;0.016122199390090325;2.4400907291261937;0.4892791781257818;0.0
0.014986171567960735;3.9142661179628853;0.00022458533826435472;0.009177118384827048;0.006833883709895243;2.874298243507649;4.6701966560371575e-05;0.005353319057816053;0.03155383236929662;1.531709821281817;0.023707555827470125;0.07647598654022619;0.02039357432754887;0.00041589787385326046;0.029293005408640285;-3.8700054239860613;0.5875893114453135;0.0
0.006613195559841528;3.5421798999732985;4.3734355512707704e-05;0.004970939125114625;0.013553177687622268;-0.022534709860940083;0.00018368862543226207;0.01580503721831311;0.023223846836122223;3.638737067898049;0.016697257061282725;0.0484347914754766;0.019984240046638707;0.0003993698502416782;0.018485017091117398;2.4166713671866855;0.7689028271277067;30.0
0.00886007300753694;1.4999999999422542;7.850089369888467e-05;0.006882838788620275;0.014667684556828809;-3.0011576099678585;0.00021514097025863432;0.02013867645559292;0.015005672124768634;3.332452956696379;0.00879473845212595;0.0336494340776995;0.00838807568830439;7.035981375272316e-05;0.012085149035338841;-3.7888351353613263;0.428165671726838;30.0
0.044232836191993405;3.1732767219356717;0.0019565437975877214;0.0344141939431018;0.014104547038677247;2.6217812526556585;0.0001989382471662591;0.011726317936167852;0.015285989093395267;3.4106588872969184;0.010324258182930476;0.0336494340776995;0.03338418838155303;0.0011145040338950201;0.022590866393712463;3.321215204782323;0.8643325293844892;30.0
0.04701044685319878;2.666410206053275;0.0022099821133374268;0.041551952686856256;0.026103272317088172;3.5858356040480537;0.0006813808256600618;0.017844396859386047;0.016668854410570047;-5.864881606049391;0.027913735087182576;0.0305903946160904;0.03254847678192616;0.0010594033408235866;0.0389424095855583;-1.242049520151534;0.6957468334698906;30.0
0.06489252712477886;1.96732062501896;0.00421104007664016;0.043208932395227925;0.02849483658064093;2.916413535033005;0.0008119557117574325;0.022687876006933755;0.023467409187735874;-3.45064499047678;0.03415927398796768;0.0479249515652084;0.025077716812814496;0.0006288918805437188;0.02705929521374823;-0.17932143631226438;0.40681824566468167;30.0
0.07140914198099635;-2.866263148808617;0.0050992655584620955;0.09635974304068516;0.029897086530289965;2.5204806140688554;0.0008938357829996456;0.02804119506474967;0.04321726599523346;1.1233991043314067;0.03874783318038135;0.10298766187417141;0.01845793948204225;0.00034069552992273413;0.02165630701021573;-1.2060379812662454;0.2333531361312867;0.0
0.06751738406906323;-2.9127483811417996;0.0045585971515293925;0.0933007035790761;0.031233676746194802;-3.3796019583658055;0.0009755425630857899;0.04563067196900178;0.04713653102985073;-1.36738251702916;0.05939634954624248;0.10298766187417141;0.02192838062928331;0.00048085387702272744;0.031029599908481392;-3.2493364881410294;0.2648349591875933;0.0
0.07136969662181478;3.711636308459969;0.00509363359588988;0.04767003161007442;0.01885718569277754;-0.1757292842242606;0.00035559345225189394;0.02294279596206794;0.026275310954879328;3.2651328204389642;0.02141327623126337;0.055062710308963;0.016619677026136478;0.0002762136644530886;0.012298408474716097;2.40444326693148;0.1719595600654795;0.0
0.02397151379287654;1.4999999999970193;0.0005746334735220701;0.0234526358723361;0.016504959779992504;0.6142707301438861;0.0002724136973391702;0.015295197308045266;0.010662035377015022;-0.4988102319658001;0.013255837666972574;0.022432956051799804;0.022504889818044937;0.0005064700657223427;0.01536322574686698;3.038957493712669;0.24047812983980996;0.0
0.025854799061934063;-4.204745114034642;0.0006684706345329866;0.037983073314979125;0.00943318655815772;0.25306595343483096;8.898500864100747e-05;0.009432038339961313;0.025975163448021598;1.870102840380527;0.02268787600693383;0.060161109411644806;0.026802390321602927;0.0007183681269515543;0.02223614552535802;2.4310904038828003;0.27003630497681286;0.0
0.023117740488946;-0.25627185877397984;0.0005344299253142532;0.024982155603140634;0.005157537441111256;-0.10147587772588373;2.6600192456464447e-05;0.005353319057815664;0.02703433836285856;1.4139130819769683;0.027276435199347485;0.060161109411644806;0.027753009897364088;0.000770229558363189;0.03682770741113486;-2.5817961329791217;0.2940220539584206;0.0
0.012691498318377226;0.010788565899700231;0.00016107412956537198;0.01351075762210665;0.023524568155520155;3.615235356164302;0.0005534053069037129;0.015040277352910969;0.027680441588880642;3.567223213792829;0.018099316814520247;0.060161109411644806;0.02518869122458281;0.000634470165607375;0.01998521368230448;1.387712022937528;0.2837307277198178;0.0
0.030057502260857086;3.1539548421551693;0.0009034534421614288;0.022687876006933796;0.022793132428264144;-1.3714973869616252;0.0005195268858923864;0.028041195064749808;0.02459239993733695;0.9014605791428707;0.026511675333945182;0.05404303048842671;0.018681398841872185;0.00034899466268910345;0.014602936181363796;3.371262242942386;0.1984026364488925;0.0
0.039815417814103846;-5.452396666468598;0.001585267495711658;0.06372998878352187;0.01751110221152955;1.5210996093183855;0.00030663870066263514;0.011471397981034026;0.0190673764695364;-0.9797210289678322;0.023452635872336126;0.0418068726419905;0.009912946168446742;9.826650173852292e-05;0.010093471248126179;1.7104430697865265;0.11057439814283086;0.0
0.03229880430496475;3.6090628138759655;0.0010432127595304092;0.019883756500458774;0.017113212841404487;1.5528447883477483;0.00029286205375521145;0.011216478025899868;0.016991264402909555;-1.223097642419388;0.020903436320995242;0.0377281533598451;0.009212445296453759;8.486914834015298e-05;0.010733198137728509;-1.229586833295567;0.09903057197575528;30.0
0.01186222655016171;0.6846441311163343;0.00014071241872736138;0.012745997756704373;0.01061316406376122;-5.907976331360994;0.00011263925144431256;0.017844396859386158;0.01249887903755621;-4.106289849647226;0.01809931681452026;0.02651167533394519;0.010740798044460452;0.00011536474263188546;0.01608385117019963;-3.916049276972407;0.11775101512155335;30.0
0.010008111120856374;-0.8276481364391302;0.00010016228820740901;0.011216478025899899;0.013756232857379406;1.4999999999999396;0.00018923394242644477;0.009177118384827015;0.011978525669899919;-2.6167821886176252;0.015805037218313445;0.02651167533394519;0.009216395002989796;8.49419368511353e-05;0.01041815814342098;-0.90820504581718;0.09898952899351622;30.0
0.009815797612721503;0.27024998701494773;9.634988277390916e-05;0.009686958295095374;0.007782368472761127;-3.0850448525473606;6.056525904582635e-05;0.01096155807076582;0.01306822230853096;-0.6838055920294934;0.01453043744264304;0.030590394616090602;0.011414288071237932;0.00013028597217320455;0.012433775469941968;-0.2873394675992813;0.13480417848859597;0.0
0.006258098854397525;0.6912052624588583;3.916380127141161e-05;0.0071377587437545;0.015170057852840734;0.2806648279866497;0.00023013065525853484;0.016314877128581567;0.010706638115631587;-1.5976676384703605;0.013000917711838533;0.024472315692872504;0.011459356244928012;0.00013131684554817063;0.01543988750883328;-3.0087968162820182;0.14942979211480473;0.0
0.00289533412144472;3.0385193137192026;8.382959674802069e-06;0.0016569797083715726;0.015382752471878747;-1.2181759504535457;0.00023662907361109172;0.018609156724788495;0.020873882018898865;1.2463943065635679;0.017207096971550928;0.0504741511165494;0.02110989406903813;0.00044562762760601125;0.016823819724461675;1.288754271009024;0.32080203116718775;0.0
0.003891184236381105;3.245519348375801;1.5141314761460802e-05;0.0031864994391760763;0.013856644648815164;-0.8224595654838449;0.00019200660092353792;0.01733455694911809;0.018706678708021847;-5.048013111146117;0.02893341490771892;0.037728153359844994;0.018182927821687386;0.00033061886416869317;0.028546722026397728;-5.240375521263035;0.3510650697681385;0.0
0.015616838373097472;2.879989356053244;0.0002438856407714497;0.013383297644539594;0.013385927512671416;-0.4199723894363121;0.00017918305537449356;0.01580503721831364;0.019896280673613858;1.4033707400059985;0.016187417151014627;0.0479249515652085;0.018598718549089177;0.0003459123316682338;0.014706711278092754;1.705735519803195;0.4727329290152115;0.0
0.01665845506188;2.287082061485476;0.00027750412504867544;0.014402977465075947;0.018228707901569018;2.3730662990469273;0.0003322857917607247;0.013000917711838478;0.03075529408091549;2.044305282557662;0.029188334862853025;0.0678087080656673;0.01692343412120595;0.00028640262245479783;0.013773663107731544;1.427693684464316;0.44060056061901604;0.0
0.017786033998687136;1.6337411188622522;0.0003163430054024547;0.018609156724788373;0.021780370514218245;1.535021204728853;0.0004743845397366275;0.015550117263179342;0.02868878431976096;-3.553207128889113;0.040022432956051644;0.0622004690527173;0.0170181524800422;0.0002896175138339664;0.010835241079530718;2.1206966184263116;0.4546606414964127;30.0
0.02149203518747631;-5.988748242805262;0.00046190757649971977;0.0369633934944426;0.022017765760874032;1.8392657174276952;0.00048478200910071677;0.015550117263179175;0.01932914205242828;0.7771606871789416;0.018354236769654246;0.045885591924135695;0.019591721728380977;0.00038383556028231524;0.021466887527205325;0.9501638185309016;0.5826670742052601;30.0
0.018190642168768544;-3.521099591556455;0.0003308994625121804;0.026766595289079126;0.022392363878859713;2.260959769053793;0.0005014179600832611;0.015550117263179508;0.012190043737756848;-2.947200571194143;0.016569797083715723;0.026511675333945103;0.017438745867675572;0.00030410985743737186;0.013908105139569762;1.31108148649564;0.4545291320928265;30.0
0.015238443133448902;0.8092448206662226;0.00023221014913135597;0.0137656775772407;0.011814653029730249;1.401107608654149;0.00013958602621291417;0.009432038339961368;0.033627539888056536;1.8275930300160521;0.031864994391761006;0.07545630671969;0.030878005413179598;0.0009534512182963486;0.02118269739764539;2.7402938602593245;0.6765378221063856;30.0
0.0084290790711652;-1.6568709102433647;7.104937398795518e-05;0.010196798205363448;0.006285728564258991;2.829639889198024;3.9510383583541394e-05;0.005608239012949989;0.0319861061310448;2.2270804415360708;0.023452635872336078;0.07545630671969;0.031033150572181336;0.0009630564344356788;0.02213179850298489;2.7508945130613753;0.6846830112020861;30.0
0.009233593492543702;-1.1174895895791366;8.52592487855454e-05;0.010706638115631623;0.006251172345518173;1.8729701427247463;3.907715569337118e-05;0.006372998878351965;0.026477336948298975;3.784520049948785;0.017589476904252027;0.055062710308963;0.026781223144455964;0.0007172339131131439;0.01548065448359743;3.8483723400849534;0.5354745055247092;30.0
0.028264327861710885;2.3797685875743415;0.0007988722294742863;0.0224329560517997;0.03527733602900866;3.48377341660364;0.0012444904373035926;0.02574691546854274;0.042083673972417156;1.523419027960193;0.02651167533394515;0.1029876618741714;0.034734461078142355;0.001206482786388986;0.056152984456271184;-5.517078605225487;0.5322371453333778;30.0
0.023436004761009994;-1.8755469767880086;0.0005492463191580832;0.029825634750688328;0.03518511075655491;3.3864811417407203;0.0012379920189510357;0.02651167533394505;0.027675745876512513;-5.98643148174694;0.04741511165494028;0.0489446313857448;0.031331686869366854;0.0009816746020800554;0.021020636678448078;3.6705151709100114;0.5850870915056695;30.0
0.03442206094376312;-0.1976132001379476;0.0011848782796161424;0.03696339349444275;0.03378146306619144;-3.958163943356407;0.0011411872468924562;0.04881717140817793;0.027869175830970178;2.913978089959155;0.016824717038849753;0.06423982869379011;0.02894362191337277;0.0008377332494642723;0.03741067678231656;-1.7402456373314283;0.45783191878224294;30.0
0.03631453837898544;-2.9259812716170153;0.0013187456976788065;0.04843479147547665;0.030120494454779788;-3.9210201332339736;0.0009072441862004199;0.044738452126032446;0.015360205369291176;-1.1429742071476188;0.01962883654532478;0.032629754257163204;0.025341605797185737;0.0006421969843799578;0.029551972628693426;-0.5486260753369976;0.3793418327485424;30.0
0.027264123201644227;-2.8259921321748926;0.000743332413954435;0.03696339349444265;0.03522295232480652;1.5148723330680571;0.0012406563704755926;0.023070255939635104;0.013360010881365436;1.4132151946490144;0.009686958295095326;0.032629754257163204;0.012526129345826267;0.00015690391638836998;0.008860116184795347;2.6886262378196726;0.23130158759726627;30.0
0.026411806995213997;-0.49234996602355885;0.000697583548752435;0.030845314571224525;0.03562652679151929;1.484410024334597;0.001269249411226842;0.027658815132048625;0.007692784268213083;3.7681402991665145;0.004843479147547701;0.0163148771285816;0.010367703080856105;0.00010748926717279318;0.00717117708353688;3.4691768258270343;0.18252605861812304;30.0
0.024907475559037776;0.658677943883573;0.0006203823387240641;0.0239624757826042;0.02426609462438614;1.6784321768058525;0.0005888433483196619;0.022942795962068024;0.016968301500363964;1.9989728616137175;0.0109615580707658;0.040787192821454;0.018319993198701652;0.00033562215080047475;0.011260840685727934;3.8255260696871147;0.430360090892983;30.0
0.026129813526097098;2.6532170372845094;0.0006827671549086068;0.02090343632099515;0.023583425650248756;-0.9333367084461841;0.0005561779654008109;0.026766595289079403;0.012306765229074819;2.5515450151626133;0.011216478025899847;0.0265116753339451;0.017636799711620712;0.0003110567040678245;0.022531961367645292;-1.6535081510282765;0.4674337094492662;0.0
0.025854799061933997;2.749789171845155;0.0006684706345329831;0.020648516365861076;0.016407553472468472;0.5475551795010816;0.00026920781095191227;0.01707963699398407;0.020314844035245055;-1.6929559151214644;0.025746915468542776;0.0448659121035993;0.015907800872141536;0.00025305812858770696;0.011686312915215328;1.5888002649677855;0.48571304065806464;0.0
0.03130710428515545;3.130617446468346;0.0009801347787215988;0.02345263587233607;0.01328195756947749;0.2533338994367842;0.0001764103968774004;0.013255837666972553;0.02828884159386519;-0.5427321226503583;0.031100234526358628;0.06627918833486271;0.03401255803465622;0.0011568541040608575;0.02126469513690116;3.196260836535817;0.8035129207246088;0.0
0.029897086530290006;3.5363030748691777;0.0008938357829996481;0.021923116141531546;0.011847608890203185;0.4241426611795891;0.00014036583641522152;0.012236157846436252;0.027221186295741787;1.6653889133422783;0.0173345569491179;0.06627918833486271;0.03254331618822535;0.00105906742852681;0.019792726843158664;3.606597613068402;0.7429677366705894;0.0
0.027881609102091563;-0.04845987387623829;0.000777384126121835;0.0311002345263587;0.015598101907594947;-4.928519249031954;0.0002433007831197171;0.023962475782604187;0.014717810471846192;3.74315519999886;0.008667278474558952;0.0316100744366269;0.031827133594464034;0.001012966432839861;0.036389478933165215;-0.09726033707079829;0.6451353600373662;0.0
0.026036800927508413;1.349919078624069;0.0006779150025387029;0.020393596410727022;0.020886849580576437;-4.443224341230172;0.0004362604854016261;0.0313551544814929;0.014357222229354113;-0.48209347554164594;0.017079636993983873;0.0316100744366269;0.02912631856563888;0.0008483424331870803;0.02083720838973087;1.501022592315561;0.5342501388265126;60.0
0.019083274469473856;-4.41931505028108;0.00036417136447727274;0.028296115019883723;0.025380863091883386;-4.249795616700421;0.0006441882112889283;0.03709085347200991;0.006608280512292797;1.4999999999774865;0.006118078923218074;0.0152951973080453;0.014890294147226191;0.00022172085979091857;0.015700638393180227;0.8380532168872126;0.3575544974334029;60.0
0.01807596400656262;3.5588997556357533;0.00032674047476654737;0.009941878250229422;0.02315144802639477;1.9937151974531098;0.0005359895457188583;0.01988375650045887;0.011547620733052662;-1.0364594614141627;0.013510757622106698;0.026511675333945203;0.0072121496643652964;5.2015102781204455e-05;0.007185062066931952;1.2243173863592105;0.14250045487727006;60.0
0.02003352983010973;-5.9482536443957565;0.0004013423174538964;0.034159273987967774;0.03707135704554998;0.19758132128261785;0.0013742855131986481;0.0367084735393087;0.009210104282544155;0.13305357345000246;0.010451718160497649;0.0203935964107271;0.014199473630706092;0.00020162505138911766;0.013366692869599593;0.8324606391043776;0.25554777233401876;60.0
0.024086900807622633;-4.7193445613507325;0.000580178790516252;0.03721831344957682;0.0253659232530797;1.308375940031917;0.0006434300624811295;0.027021515244213368;0.018126224976680146;-1.4943118090058256;0.023452635872336154;0.0387478331803814;0.017253895919830994;0.0002976969244123606;0.02238967923771301;-1.856816679357138;0.2761191649131478;60.0
0.020880626156021542;-1.419313215771366;0.00043600054866753103;0.024982155603140627;0.042887962351819985;1.4980581504226134;0.001839377314691128;0.027403895176914522;0.027831842691864606;-0.3275888473494817;0.03008055470582235;0.0652595085143265;0.014403818762663457;0.00020746999494765587;0.011564290900427071;1.2380296568358702;0.19120975983998195;60.0
0.054039823852977856;1.893985836904946;0.0029203025620608745;0.04537575201386761;0.04593749071314403;-0.07203578458494952;0.0021102530530201936;0.050729071071683535;0.03147822787892888;-0.34719321213532517;0.03823799327011315;0.0672988681553992;0.017439284009780422;0.00030412862677378313;0.020047425524756426;-0.017211251799261973;0.19528150392422913;60.0
0.0544710122376965;2.6557085446055204;0.0029670911741992816;0.037728153359844974;0.025178642399480363;0.649680999912654;0.0006339640330809103;0.028168655042316776;0.02485698326348208;-2.610426062839373;0.034414193943101835;0.052003670847353904;0.02612050044731308;0.0006822805436180828;0.025984011580194075;0.24051573411665395;0.31332047476843133;60.0
0.04427003873448744;-0.5661726887512373;0.001959836329553018;0.05327827062302423;0.013952453277043564;-4.908878666759298;0.00019467095244808368;0.021540736208830402;0.024337402725865643;-0.9290867438115793;0.03059039461609056;0.052003670847353904;0.027944094844163343;0.0007808724366595962;0.0364984667259389;-2.540499995624419;0.3499052001345532;60.0
0.038265175070787825;1.0080397560858483;0.0014642236231980422;0.03747323340471088;0.012913987622772016;3.193276054275202;0.00016677107632110882;0.010069338227796432;0.021796277305100867;0.6784738689090535;0.020648516365861097;0.052003670847353904;0.029720020641103136;0.0008832796269075965;0.025837863480498782;2.9374697862220813;0.4284945432100689;60.0
0.06089404041075609;2.707119343583134;0.003708084157546796;0.049454471296013;0.013000917711838473;3.4725951231902314;0.0001690238613499953;0.009304578362394123;0.024949185008669876;1.223773691597854;0.02243295605179972;0.0591414295911084;0.04932804479603745;0.0024332560033998776;0.035786911781108224;3.6252536034545635;0.621979076545111;60.0
0.05819326225504348;-4.929611844741716;0.0033864557718842683;0.08922198429693082;0.025239221257927366;3.865726099121307;0.0006370182897066127;0.014785357397776866;0.030673837905813316;0.9590715423385952;0.026256755378811045;0.0744366268991537;0.046903861265065405;0.0021999722015725027;0.06164003132819464;-2.2919777476184855;0.495464929464981;60.0
0.05320849802676075;-1.7095665842626815;0.002831144262263803;0.06704394820026517;0.02917989196931638;-5.920829081276429;0.0008514660953409745;0.049199551340878944;0.030821779922089024;1.7049774919235237;0.022432956051799707;0.0744366268991537;0.0441955106285111;0.001953243159714837;0.05057087555951542;-0.9504869552297528;0.44934193561407626;60.0
0.05193030878719028;-1.9342977245906496;0.0026967569707329318;0.0662791883348629;0.030035874525155996;-5.976962956392553;0.0009021537584909149;0.051493830937085705;0.04753192029824563;-2.7025556377769675;0.062455389007851525;0.1060467013357806;0.03058087242899337;0.0009351897585183668;0.02758003180990569;0.7613081328759055;0.2615741639734571;60.0
0.03963547622189038;1.4876625239519132;0.0015709709753360375;0.0272764351993474;0.030332975342751527;-5.97177296227089;0.000920089393143972;0.05174875089221981;0.047372148685517854;-2.573346968590215;0.0616906291424493;0.1060467013357806;0.019174078439941206;0.00036764528402101823;0.01734634249070756;1.229484627975923;0.1830518372787793;60.0
0.02157251491182899;3.3963097363820935;0.00046537339962108404;0.01555011726317937;0.02646588091916763;-4.778359143882893;0.0007004428528275614;0.04129703273172233;0.033689322146170514;-0.3206353727996607;0.035943713673906474;0.0795350260018354;0.020306453387365427;0.0004123520491732448;0.024972880925690208;-1.3336202492948868;0.2067884177564767;60.0
0.019567493690624594;-1.8725121893121948;0.0003828868093326333;0.025237075558274622;0.03594883581395115;1.6162191180798704;0.0012923187963784168;0.02268787600693392;0.02437831043644635;1.0058709284253364;0.025746915468542936;0.05404303048842671;0.01581921861699762;0.0002502476776523641;0.012410113099701081;1.3855199017272142;0.15276315136133486;60.0
0.031553832369297014;1.5742413947457745;0.0009956443371896958;0.0318649943917609;0.03588249280061994;1.4718997770125366;0.001287553289586542;0.024982155603140682;0.012532628279065747;-4.576842182398057;0.01873661670235552;0.02600183542367701;0.007926110026072544;6.282322014540769e-05;0.005410101802370615;2.8801750105306674;0.08147571569206837;60.0
0.028454898793248872;-2.3265655431526717;0.0008096812653340361;0.03632609360660741;0.03829799400701078;0.052749597092617506;0.0014667363449610336;0.041806872641990483;0.02981982404323136;2.1044323345320564;0.02154073620883045;0.0708677475272764;0.03505976304148304;0.0012291869845249403;0.02846643126384181;3.2369599313612483;0.4505153843761914;60.0
0.060735002529436755;2.4347805507493536;0.003688740532250689;0.048307331497909674;0.06289793675040845;1.0041283734789097;0.003956150447458381;0.05735698990516977;0.03309217127023055;-3.633776985264749;0.04677781176710507;0.0708677475272764;0.05061837527226327;0.0025622199152036734;0.031564404418256656;1.7751415644750317;0.540765400592957;60.0
0.052044267249420455;-3.209906351079095;0.0027086057535290983;0.07175996737024572;0.04698186991189651;3.008360167610295;0.002207296100418367;0.03543387376363824;0.03532121199390347;3.147663180971602;0.027658815132048552;0.07698582645049451;0.05070778359501441;0.0025712793171188126;0.044482308098682075;0.868714282021811;0.5715339686396239;60.0
0.060905955956530804;-4.018303978274661;0.0037095354709788704;0.08883960436422962;0.04455876367956263;3.486861352200034;0.0019854834206511096;0.03288467421229743;0.026319790963882955;2.7426588146673403;0.019628836545324747;0.0601611094116447;0.057735702788602926;0.0033334113764938913;0.06995936691717873;-0.2305375223492554;0.8127080272978218;60.0
0.05413914123568183;-0.11011354185692923;0.0029310466137371046;0.05710206995003567;0.05531625970972535;2.5949462623448305;0.003059888588273784;0.03543387376363835;0.02534200119147308;2.053881499029284;0.01886407667992253;0.0601611094116447;0.05070382229940885;0.0025708775957700297;0.0434665980708083;1.44235035221236;0.6319118134294447;60.0
0.0412046126250198;1.326687884366038;0.0016978201015779414;0.042571632507392695;0.02455008433397137;-5.028421812486879;0.0006027066408051065;0.0382379932701129;0.04954549294621748;2.1219936753627753;0.03339451412256553;0.1182828591822167;0.041894013288941136;0.0017551083494539762;0.038469419587414816;0.7679592372077231;0.5567933410898291;60.0
0.08919090292674234;0.894041765639896;0.007955017164887574;0.093045783623942;0.03273579858695354;-2.642773823529815;0.0010716325091255894;0.043846232283062864;0.050591603800698985;2.4898824631714813;0.035688793718772274;0.1182828591822167;0.05070042881390586;0.0025705334819139353;0.07517294839230274;-3.801624241531348;0.5773567479519945;60.0
0.08947012549695402;2.5563107508248386;0.0080049033564407;0.07507392678698885;0.0390862486291154;-5.649383565930275;0.0015277348318970257;0.06423982869379014;0.05703146810158024;1.7699288959413533;0.04053227286631995;0.1376567757724074;0.04275607779000847;0.0018280821879852556;0.06974799419810629;-5.5398262126623905;0.45856093000827064;60.0
0.09771950085916425;1.7267191079944002;0.009549100848164203;0.09801672274905679;0.034307339331621785;2.731286443831241;0.001176993532015043;0.030590394616090533;0.05816868975496272;2.193788328721185;0.0420617925971244;0.1376567757724074;0.03892934038945667;0.0015154935431581822;0.05409651978040003;-2.584022742460366;0.395394958645257;0.0
0.08857468878216834;1.232491322623126;0.00784547549285798;0.07507392678698878;0.010662035377015043;-5.6386079714456585;0.00011367899838072032;0.017334556949117896;0.034140244810407006;-3.250312539539829;0.04741511165494035;0.0734169470786172;0.03436714121173138;0.0011811003950670852;0.030230366087612606;1.50479100973679;0.40992399495119963;0.0
0.0463316580147959;2.4143279710521863;0.002146622534400001;0.042444172529825526;0.021588574854430595;1.9059171985993615;0.000466066564245353;0.014530437442642902;0.02840956809575794;-2.1107527467252556;0.03645355358417457;0.0632201488732538;0.020966766612103244;0.00043960530216640743;0.02710356286328746;-2.4966354065513237;0.34792099364242723;30.0
0.06300598228112736;-5.437994078941799;0.003969753803209734;0.10145814214336688;0.01784439685938614;3.346192419825055;0.00031842249927527;0.01147139798103386;0.03027722271940787;-4.444928370038447;0.04486591210359943;0.0632201488732538;0.03364261321406488;0.001131825423871173;0.030325911780889142;0.7360772898079961;0.43548283911474606;30.0
0.05590831089900402;0.6447813071347284;0.003125739227579692;0.06245538900785138;0.017163768971758392;1.0110311418685054;0.0002945949653158961;0.016824717038849857;0.04312092420868885;-1.2351371328264609;0.0530233506678902;0.09584990313041691;0.03706148671412846;0.0013735537974615207;0.04112238540676286;0.574724759079869;0.553229652218654;30.0
0.048496469666948566;2.065839640201599;0.0023519075701572624;0.035688793718772226;0.021877618084706944;-0.8530197502990173;0.0004786301730602964;0.02549199551340872;0.034231488389098244;0.842989964011613;0.03059039461609052;0.0825940654634443;0.04118486085649246;0.0016961927637686445;0.026655939335203493;3.668056318416351;0.7254752642061199;0.0
0.04196408855157934;3.256151506778796;0.0017609847279647921;0.030080554705822327;0.01259899595040997;-2.6189145897294814;0.00015873469895844681;0.016824717038849718;0.03483367156630676;2.072522797379314;0.02600183542367688;0.0825940654634443;0.04648530408658784;0.00216088349602254;0.03619868102908182;2.7394010917324003;0.9155275870631923;0.0
0.008942810996854745;-0.8710162467205151;7.997386852546617e-05;0.010451718160497624;0.01322639111968279;3.5421799001607894;0.0001749374220508238;0.009941878250229547;0.030628608740441255;1.7150931359758061;0.023707555827470105;0.0734169470786172;0.016088151655744398;0.00025882862369823125;0.018969942171666847;-0.8457745326902035;0.47959057741462846;30.0
0.00506429571590104;-2.444485026152007;2.5647091098093624e-05;0.006627918833486249;0.013176139861020642;3.5669259328206344;0.00017361066163717705;0.009750688283879011;0.027091567509692462;-5.6542153466642135;0.044738452126032426;0.0504741511165493;0.01816369409210216;0.0003299197830714669;0.024282893628056235;-2.0973412032191465;0.5089363643716278;30.0
0.004896852429973499;-2.4911391668052083;2.397916372093736e-05;0.006500458855919201;0.002439563104577812;-5.729284873815578;5.9514681412173335e-06;0.004014989293362081;0.024678569002306076;3.939338562447837;0.014530437442642999;0.0504741511165493;0.01853908395916337;0.00034369763404490866;0.009942882858643816;3.925711662894212;0.4580998917532547;30.0
0.0029837615760992535;-2.785657205626322;8.902833143006301e-06;0.0039512593045783265;0.0023212651472840407;-5.003085780535468;5.388271883995599e-06;0.0036326093606608434;0.0014039896368081858;-3.0329669783790916;0.0019118996635056965;0.0030590394616090005;0.001479245754684842;2.1881680027531277e-06;0.0011531653262570052;2.177860283060866;0.03002981264625899;0.0
0.02327602066618441;3.870638279357273;0.0005417731380526438;0.013383297644539681;0.001889104217686037;-1.174161429786917;3.568714745279174e-06;0.0022305496074233044;0.0027730479711887066;1.2221384678126306;0.0024217395737737707;0.0066279188334862;0.014201447981655256;0.00020168112477566015;0.009386511374644121;3.7741569738156677;0.2519158915595787;0.0
0.022596033500602977;3.5813261838987884;0.000510580729960372;0.014912817375344126;0.0030731690493228624;2.0902280952956964;9.444368005715986e-06;0.0025491995513411414;0.01122033978467296;3.34151000683811;0.008667278474558948;0.0239624757826042;0.01875331111795881;0.0003516866778869576;0.011861734992413268;2.1061163804015752;0.36271858144644875;0.0
0.02916169897331193;-5.0864565653356415;0.000850404687010062;0.04524829203630063;0.008279667763313065;2.1293621569381465;6.855289827084557e-05;0.006054348934434628;0.012947491343941285;-5.352506317142485;0.020775976343428173;0.024982155603140602;0.02330352093632841;0.0005430540880298965;0.03426355737529465;-3.9088715975260175;0.39044962081910006;0.0
0.02950140962662464;-5.011931146684322;0.0008703331699579011;0.04550321199143471;0.01810634669219202;1.2039832295283173;0.00032783979053785297;0.016123687162231254;0.030053177958866736;1.8116958385780606;0.030590394616090578;0.0642398286937902;0.025228153128242753;0.0006364597102620647;0.01628959437804381;3.4047147224917538;0.36115886102881245;30.0
0.029738354924229122;3.187059006289914;0.0008843697535994224;0.023070255939634902;0.04036995074667587;0.9893005609292356;0.0016297329232890353;0.038429183236463965;0.036796880953943276;-5.9961608600025285;0.0634750688283879;0.0642398286937902;0.032668512310364356;0.0010672316965724276;0.02527700062814428;1.9809405311848618;0.41896112900920013;0.0
0.0304836376277681;3.816640655044658;0.000929252163021079;0.0177169368818191;0.0484765334022286;-0.9490606704600619;0.002349974290697385;0.059077699602325034;0.03043705833914402;-0.04958677685924684;0.03670847353930867;0.0642398286937902;0.01718467943021192;0.00029531320711914866;0.016106770917364455;0.9299529582040353;0.19719577176162914;90.0
0.06176362087917735;3.9517752361542975;0.003814744864106752;0.03543387376363822;0.04926488898102606;-2.2273012613769563;0.0024270292863128227;0.06500458855919247;0.01650495977999257;2.5721985898237634;0.009686958295095346;0.03874783318038139;0.032978567486292416;0.0010875859134479434;0.03535521174776882;-0.10549650181748937;0.3184776673020373;90.0
0.0634882059137422;3.8327129336839647;0.00403075229014573;0.038747833180381344;0.04406601921347029;1.7357842782959114;0.0019418140493219326;0.026766595289079265;0.01682471703884987;2.736644346466136;0.011981237891302107;0.03874783318038139;0.032230392824108466;0.0010387982215963425;0.031089106177243864;0.5095722241151162;0.3070360129222343;90.0
0.07367613027758371;3.0224894965004303;0.005428172172679488;0.04741511165494027;0.030035874525155996;-0.4478599635840812;0.0009021537584909149;0.03721831344957677;0.01849297424700911;-4.380163079216214;0.027276435199347346;0.03874783318038139;0.033034815123690844;0.0010912990102564335;0.024447850508796984;2.452910929163373;0.33273468102578074;0.0
0.0848455924595147;2.5418453331727413;0.007198774559806058;0.07316202712348321;0.013485884038265651;0.5549419957916477;0.00018186906829354828;0.015550117263179342;0.026129813526097077;-1.2427864670557298;0.032119914346895026;0.05812174977057209;0.028045342556279843;0.0007865412390990811;0.01800884855546711;3.7864277286139405;0.26857872450306663;0.0
0.033275273728364835;-0.10271270173526759;0.0011072438416976072;0.03492403385337002;0.012609307502497885;-1.6805470379911398;0.00015899463569254947;0.015550117263179342;0.025203149258929646;-2.0557922464417633;0.03339451412256555;0.054043030488426604;0.009742550120849054;9.491728285725593e-05;0.008715103439377078;2.2534044153313477;0.10241563542836837;0.0
0.01794366094125373;1.3553863605330587;0.0003219749679746748;0.013255837666972609;0.02002487790578893;2.0130639174271696;0.0004009957351417536;0.01631487712858154;0.013578725641846055;2.120300751886356;0.012236157846436224;0.03059039461609061;0.009889612509662835;9.780443559127963e-05;0.012301403706963046;-1.2929338086148388;0.10267135125299348;0.0
0.013990438191100745;-5.350398318261833;0.0001957323607790103;0.022178036096665632;0.03005317795886695;0.968208732548808;0.0009031935054273263;0.02651167533394516;0.007698413822035104;0.25730994157046894;0.007647598654022626;0.0183542367696543;0.012265893851577572;0.0001504521519781685;0.014630632275810157;-1.4924417753717876;0.11788473427095406;0.0
0.023864193324383613;1.7019961993518447;0.0005694997230235554;0.01746201692668503;0.029652644500784725;1.3767430052565128;0.0008792793258899186;0.02192311614153164;0.00751041086094336;1.4312472127867881;0.005353319057815879;0.0183542367696543;0.01995942762710591;0.00039837875120167873;0.01844281607745618;1.4048022030775638;0.16921960629624966;60.0
0.04853107340978658;-0.11845330217688321;0.002355265086306094;0.05289589069032331;0.029849229117759814;1.6489128924413698;0.0008909764789245203;0.02115835627612933;0.024135414252155443;2.2348671795620696;0.02064851636586113;0.0550627103089629;0.04239294487138002;0.0017971617748678652;0.044871606869648695;0.3291336582073061;0.30316708156793215;60.0
0.05207089793758305;-0.1849532822388955;0.002711378412026191;0.05544509024166419;0.015246969727308364;3.6582393888495695;0.00023247008586545768;0.01096155807076582;0.045349966264784165;-0.07730996471805263;0.052513510757622055;0.09992862241256241;0.042283825478960174;0.0017879218971351618;0.04478643941967092;0.3392978425740534;0.30220266942588386;60.0
0.056920263861248245;-1.8547896026904596;0.003239916438034123;0.07456408687672078;0.005132275881357399;2.2271468144042252;2.6340255722362867e-05;0.00305903946160907;0.04283464439504306;-0.2396261158571793;0.046395431834403957;0.09992862241256241;0.048325749772787696;0.0023353780911020898;0.060720270234210214;-1.1249594122219708;0.3622583343782163;60.0
0.06869229603207598;2.7295297851258375;0.004718631534158362;0.04665035178953804;0.006415344851696758;-3.9764210526322152;4.11566495661921e-05;0.009432038339961313;0.04371164932609661;0.19139386221944044;0.044865912103599484;0.10298766187417151;0.04783578375506515;0.002288262207461355;0.04230162528822183;2.5963141569646844;0.3758848628931965;60.0
0.026001835423677018;-5.12632751044918;0.0006760954453999849;0.04053227286632;0.00722822824449773;-2.669141852924918;5.224728355455473e-05;0.009941878250229463;0.0584517615905634;-1.130699820593117;0.0698480677067401;0.1325583766697257;0.038294405416400806;0.0014664614861956673;0.03732294214825428;1.8155784794658913;0.31316183956965865;60.0
0.024599445461027512;-3.6714079899890084;0.000605132716990067;0.03517895380850413;0.007692784268214064;3.768140299127463;5.91789297972818e-05;0.004843479147547736;0.05474313297085678;1.626390576115444;0.04002243295605182;0.1325583766697257;0.03554446763053533;0.0012634091791381738;0.036167557892485866;0.04929564779444284;0.26789240224659455;60.0
0.01774945975887558;3.0392009497882064;0.0003150433217319435;0.014275517487508927;0.008942810996854516;3.023392794469551;7.997386852546207e-05;0.005863158968084037;0.026633951028058076;3.608047918745921;0.01605995717344759;0.05812174977057201;0.025286085566431356;0.0006393861232728881;0.02552999768611254;1.5257515001568684;0.17929768701678667;60.0
0.019998899674865827;3.4755563498468725;0.0003999559882053485;0.013255837666972609;0.008869846946534685;2.6461992276189577;7.867418485495068e-05;0.006627918833486346;0.02818912194713659;3.0795066027658002;0.01758947690425211;0.06423982869379011;0.028104463319029684;0.0007898608584506851;0.02791358220746959;0.8266758679559079;0.20270820091281147;60.0
0.019998899674865827;3.4755563498468725;0.0003999559882053485;0.013255837666972609;0.008869846946534685;2.6461992276189577;7.867418485495068e-05;0.006627918833486346;0.02818912194713659;3.0795066027658002;0.01758947690425211;0.06423982869379011;0.028104463319029684;0.0007898608584506851;0.02791358220746959;0.8266758679559079;0.20270820091281147;60.0
0.011491207983669465;0.7133734267471041;0.00013204786092394885;0.010706638115631651;0.009722670704862322;2.8380558876433426;9.453032563518802e-05;0.006372998878352049;0.014832165136235063;2.6310507636589655;0.009432038339961278;0.034669113898235904;0.010629357720204225;0.00011298324554406515;0.00584289739233098;3.918752244097181;0.1592449480746473;60.0
0.011491207983669465;0.7133734267471041;0.00013204786092394885;0.010706638115631651;0.009722670704862322;2.8380558876433426;9.453032563518802e-05;0.006372998878352049;0.014832165136235063;2.6310507636589655;0.009432038339961278;0.034669113898235904;0.010629357720204225;0.00011298324554406515;0.00584289739233098;3.918752244097181;0.1592449480746473;60.0
0.011491207983669465;0.7133734267471041;0.00013204786092394885;0.010706638115631651;0.009722670704862322;2.8380558876433426;9.453032563518802e-05;0.006372998878352049;0.014832165136235063;2.6310507636589655;0.009432038339961278;0.034669113898235904;0.010629357720204225;0.00011298324554406515;0.00584289739233098;3.918752244097181;0.1592449480746473;60.0
0.01992945884132968;0.49125572215672797;0.00039718332970825376;0.018864076679922504;0.011960428476199225;1.3231208000877626;0.0001430518493342773;0.011471397981033887;0.016022146745067942;2.2643477839610533;0.015167737330478229;0.034669113898235904;0.013620961001584065;0.000185530578606674;0.00935386227811666;2.079327731114459;0.21333299406607076;60.0
0.02407970531804966;-0.43106988423069303;0.000579832208204109;0.028551034975017722;0.012018243573119277;0.1609981542982979;0.0001444381785828228;0.013000917711838506;0.016183569476556664;3.226307714562733;0.012873457734271405;0.034669113898235904;0.014431591963788754;0.00020827084660929218;0.013901256817370367;1.6275860691915423;0.2315257453615499;60.0
0.013124458431941644;2.4200980531073455;0.00017225140913176414;0.011216478025899873;0.011304964732376582;1.4298511921861277;0.00012780222760027833;0.008412358519424984;0.014482654557297718;1.5732208478514345;0.013638217599673728;0.0331395941674314;0.01443090641675436;0.00020825106000912217;0.01412916577808443;1.4900617553841489;0.23123292515935043;60.0
0.006400132577971753;-1.2513604339742024;4.096169701561536e-05;0.007520138676455649;0.00602532133552086;3.558899755640443;3.630449719628289e-05;0.003313959416743173;0.005435636311382852;-0.30242257983474197;0.005863158968084002;0.012745997756704402;0.005125810194809735;2.627393015321541e-05;0.0047866648682402535;0.6415694049219045;0.09165994836613302;60.0
0.04016937811734575;3.492326473748534;0.0016135789383342955;0.029443254817987232;0.0019525382028273588;-1.2892561983456066;3.8124054335002926e-06;0.0025491995513410304;0.006095021868879124;0.342857142809585;0.006245538900785122;0.014275517487508903;0.013085267706517842;0.00017122423095123872;0.011463036433010075;2.602033021369614;0.20388400246876454;60.0
0.03754484315644498;2.5172041468154447;0.001409615247642054;0.0302080146833893;0.007720890990517325;2.615467820443314;5.9612157687451595e-05;0.007137758743754635;0.010929894359713522;1.001670051754548;0.009304578362394254;0.026511675333945106;0.011858842797792831;0.0001406321525027629;0.015477869994609206;-2.5282497977900587;0.1715337576007071;60.0
0.031041324261741367;1.992507554144563;0.0009635638119225732;0.027658815132048452;0.013476243228713457;1.1656663364605322;0.0001816091315594453;0.011216478025900006;0.032550992494612824;2.1432916928441177;0.02689405526664617;0.0754563067196899;0.023081708778827138;0.0005327652801505857;0.026248036092168976;-0.3422482716250368;0.37702890269881695;60.0
0.03032297600991259;2.1879129217980964;0.0009194828740977344;0.027021515244213277;0.015917024538891343;0.5494487808804234;0.00025335167017166916;0.017844396859385936;0.036332428784067214;1.0240890527130198;0.039512593045783584;0.078515346181299;0.02396358759571289;0.0005742535304574047;0.015110968429364324;3.5593013014371486;0.3615717506360097;60.0
0.022531232582832954;1.419501658141952;0.0005076564417017133;0.020138676455592926;0.016049163283512018;-0.7350335474056351;0.00025757564210083026;0.01975629652289146;0.04726227884601804;-5.79176381159193;0.07851534618129899;0.0876924645661262;0.02553754084665984;0.0006521659924948199;0.04318850353814165;-5.932065324507986;0.47731400372719035;60.0
0.03336888256019445;-0.5560396991548249;0.0011134823233160493;0.0364535535841745;0.015666692732547616;-0.8916560801065412;0.00024544526117606033;0.018991536657489733;0.04005840867023171;3.3999911367781657;0.028041195064749575;0.0876924645661262;0.02161474326843699;0.0004671971265604421;0.026218592341033166;-0.31022395929831603;0.451756874473422;60.0
0.03895301480672489;0.19775389677321975;0.0015173373625329287;0.044356072193331146;0.01663242824329414;-2.3963098212568408;0.00027663766926832857;0.021795656163964228;0.06367558263655786;1.1369799191767473;0.05174875089221978;0.1549913327215254;0.025919959792670984;0.0006718443156536804;0.033498055556535206;-2.4110048755294464;0.4135277583389354;60.0
0.0521492546232052;2.0852181992535055;0.002719544757755889;0.03645355358417457;0.019957155629703086;-0.036561935997324824;0.00039828806082818955;0.0217956561639647;0.03991431125940619;-4.1329418268632026;0.05786682981543788;0.0846334251045171;0.032083705396991694;0.001029364152000954;0.04591059951568972;-3.810029795277739;0.4683135236259322;60.0
0.05251103574827662;0.03199952680921392;0.002757408875356785;0.054043030488426576;0.021845911375169287;3.134948096885797;0.0004772438438117508;0.018354236769654392;0.03784738691190619;3.2758766419410144;0.02498215560314062;0.0846334251045171;0.02149324872438746;0.00046195974072838316;0.02646844303047595;-1.6360356848927822;0.2746700985233897;60.0
0.03146170820952688;0.2147800296589537;0.0009898390834614111;0.035688793718772274;0.021726599115593447;2.6791418424576356;0.0004720451091297059;0.019883756500458843;0.02117728764276576;2.081927287755404;0.01631487712858168;0.0499643112062813;0.028852695423100986;0.0008324780331782326;0.030684936734682026;0.5412431613391835;0.3897188183086803;60.0
0.03730202859965398;3.022197092272286;0.0013914413376494037;0.025746915468542853;0.0130184004637542;0.3111144566976982;0.00016947875063467554;0.015295197308045294;0.018325890441125252;3.309779639410106;0.0137656775772408;0.039767513000917805;0.026798079187968192;0.0007181370481646139;0.01714371159615248;1.5551732222710601;0.38833437763927203;60.0
0.023700702149830607;0.9998978569444876;0.0005617232823949851;0.024727235648006447;0.035658433191185356;2.032732695048006;0.0012715238576502296;0.032374834302029226;0.03685335039971694;-1.2179435452485183;0.04716019169980627;0.078515346181299;0.017751302181174527;0.0003151087291273715;0.009285328422298782;3.9801042560646493;0.2892468381343995;60.0
0.027942142073669955;-0.32507348291962934;0.0007807633036651567;0.031864994391760895;0.03331821042272114;2.6532139076219288;0.0011101031457727234;0.03008055470582241;0.03216978060290648;1.4203247663016807;0.023452635872336022;0.078515346181299;0.019722025325402893;0.00038895828293583303;0.03357786157363867;-5.951376602304838;0.37362737313192423;60.0
0.08361789022116432;2.2534175091691893;0.006991951565038688;0.07137758743754449;0.031828605033437256;2.9756469184142382;0.0010130600983745475;0.023962475782604437;0.039905627155684305;-2.6784700391096177;0.0548077903538289;0.0846334251045171;0.056750008226614426;0.0032205634337208054;0.033023713399309464;2.8667561819178005;0.6593379205138169;60.0
0.08394675784488863;-2.041835084073748;0.00704705815266837;0.1050270215152442;0.034064021797675266;-4.212253182770011;0.0011603575810324954;0.04996431120628128;0.06074516632405965;0.07556183490842017;0.061435709187315106;0.14479453451616192;0.058416198154244675;0.003412452206795979;0.0753681329236428;-2.442623061186568;0.5830774001534252;60.0
0.07792757513409843;-2.5390426768806194;0.006072706966280555;0.10107576221066585;0.024865696146523706;3.324287639003426;0.0006183028448512438;0.0193739165901905;0.06030549879928225;0.6205941096014573;0.056464770062200374;0.14479453451616192;0.06835641386967425;0.004672599317122195;0.10217143130023393;-4.1865001150061865;0.7604057022980609;60.0
0.077428972739654;-2.3216168720324415;0.0059952458195180825;0.0987814826144591;0.022835265154033505;3.3393214344332556;0.0005214493346550169;0.014466707453859695;0.06236879492392257;0.6863365893255491;0.0629652289181197;0.14479453451616192;0.06604418046468233;0.004361833773251528;0.09513639567374396;-3.8368682055191154;0.7160062197464416;60.0
0.051476791388177845;1.8142283857816768;0.002649860051621981;0.03709085347200978;0.022283149036216025;2.953088482861528;0.0004965387309702152;0.0148490873865606;0.027287947845613985;1.499999999999913;0.01784439685938615;0.06678902824513111;0.04463280314746629;0.001992087116800477;0.028577658366193547;3.5115505527024595;0.7387873973013888;60.0
0.024504159968793512;3.3478814115177613;0.0006004538557762225;0.019118996635056555;0.005739474339940482;2.5844305291946377;3.294156569883522e-05;0.004269909248496018;0.017196550753867536;3.9270940490628163;0.009686958295095305;0.0356887937187723;0.008025161037809437;6.440320968277464e-05;0.007666827920550109;2.1066983312142256;0.20040767251310365;60.0
0.004293465584670837;2.9386372015532167;1.843384672675289e-05;0.003186499439176052;0.0019231960670535357;1.804878571627622;3.698683112330188e-06;0.0019756296522892014;0.0012047047074170971;0.4357317697584939;0.001402059753237428;0.0025491995513408014;0.0023703990853774894;5.618791823958439e-06;0.0024789625307969285;0.4441603603220745;0.054139797351719185;60.0
0.004170623429457986;2.7841360775209623;1.739409979034389e-05;0.002421739573773826;0.002260992946475415;3.264579143923857;5.112089104011579e-06;0.0012745997756705152;0.0009762691014146613;-1.2892562477288294;0.0012745997756704042;0.0020393596410726994;0.0021447260206295614;4.599849703565515e-06;0.0022870084886307124;1.071814852997937;0.04920114444423616;60.0
0.008161420716621915;3.6192742415232146;6.660878811370537e-05;0.004461099214846526;0.0005098399102683695;4.000000000022347;2.5993673410245906e-07;0.00025491995513415855;0.030775360493268105;3.9800694237582093;0.017079636993983877;0.062200469052717394;0.026924999905169493;0.0007249556198933772;0.013966582557634957;3.983350674029598;0.463857394601383;60.0
0.0078323093177003;-4.690031600114345;6.134506924813494e-05;0.01223615784643625;0.013604225618564631;3.9744350460800035;0.00018507495468081023;0.007647598654022869;0.03593075441328639;2.727831719291892;0.022432956051799728;0.0836137452839808;0.02838027034958492;0.000805439745115529;0.016605170623521286;3.7383688946888576;0.5054446353892653;60.0
0.008130841041368936;-4.711147450310458;6.611057604000949e-05;0.012491077801570325;0.015805037218313434;2.7588371027837795;0.0002497992014722728;0.00994187825022963;0.0436231036145773;1.374295192458634;0.04244417252982563;0.09941878250229419;0.03209094268712069;0.0010298286025480648;0.02403462415168748;2.908607174578357;0.6198597838740098;60.0
0.039195825595621715;3.448985199550684;0.0015363127441223943;0.02472723564800647;0.015805037218313445;-0.5155876260529038;0.0002497992014722732;0.017589476904252055;0.044134539517137875;3.0365538999166475;0.03173753441419387;0.09941878250229419;0.03249961057358139;0.001056224687434443;0.04057960164733567;-1.5818746331028883;0.5673192127959156;60.0
0.04031283246817734;-3.290182560646489;0.0016251244616073328;0.0560823901294992;0.018344792860220442;-2.3949700957000832;0.00033653142508439487;0.024982155603140543;0.01727133647917425;0.15595578582323988;0.01720709697155088;0.0412970327317222;0.017934894281824793;0.00032166043290023165;0.021218104486545132;-1.33510526799218;0.39283223546922963;0.0
0.03613155026067366;0.9704305525626733;0.001305488924239587;0.032374834302029094;0.017921918361948883;1.4394595661762821;0.0003211951577723605;0.012491077801570383;0.01838901926891521;1.1842458396372422;0.018736616702355473;0.0412970327317222;0.01706784448256608;0.00029131131528106134;0.013007967297038306;1.487488247240604;0.35269923759151817;0.0
0.06928572439832441;2.6303614036870506;0.004800511605400566;0.05965126950137653;0.018133393743018977;1.0432157977784424;0.0003288199686393598;0.015550117263179286;0.03134029790213256;3.1781804173438175;0.021413276231263427;0.0703579076170083;0.0702121128092367;0.00492974078513698;0.0483391945162525;3.707212768444009;0.7739077609976893;30.0
0.0689849384137161;1.5670813529417078;0.004758921727944203;0.06882838788620375;0.024898777295961634;1.4534903243103283;0.0006199491108338945;0.019628836545324713;0.0267637626952527;1.2326154803585183;0.027786275109615517;0.0591414295911084;0.06846168133183815;0.004687001810782157;0.07157352461599818;1.51869094573434;0.6952618810375885;30.0
0.0660060572999782;-1.2534443131345956;0.004356799600288005;0.07724074640562859;0.026555759443469808;0.3367923537529567;0.0007052083596194359;0.02880595493015184;0.02690583216469619;-2.42151562132282;0.035433873763638234;0.0591414295911084;0.06398079074361204;0.004093541584177872;0.07737000489432184;-1.6363472207616034;0.5175552079413576;30.0
0.057485439031480415;-1.210911503363075;0.0033045757006420523;0.06755378811053328;0.021085029307375942;1.4463118146312812;0.0004445784608929024;0.01656979708371578;0.015631395652856074;0.752014486204585;0.01529519730804528;0.0367084735393087;0.05325813156748146;0.002836428578059165;0.06246409202567607;-0.9247555325368921;0.31991459614063916;30.0
0.05604220652846918;1.8418340638836206;0.003140728912579594;0.04537575201386762;0.021917186968700632;0.7391446936901467;0.0004803630846209807;0.021923116141531612;0.011607492142707102;0.4329235636771074;0.011471397981033957;0.027531355154481504;0.05144384230178907;0.002646468910771343;0.04718656707237763;1.17723658554897;0.3425856680520141;30.0
0.043124942746902865;3.239465046068304;0.00185976068692365;0.028041195064749697;0.018190642168768444;-0.06741255478917374;0.0003308994625121767;0.01911899663505648;0.005887124188739028;0.9119999999296589;0.005098399102681742;0.014275517487508896;0.03846139662837943;0.0014792790306055164;0.025866431208727003;2.6158616065903324;0.23330713373803305;30.0
0.05210271207323078;1.839540695045482;0.0027146926053859886;0.046140511879269916;0.02149203518747625;1.6061783642611083;0.0004619075764997173;0.02115835627612933;0.010930885239037486;2.485182008615361;0.007902518609156722;0.02549199551340879;0.042579420477956716;0.0018130070482386396;0.042988548848542474;1.8983543717515499;0.2678774938398461;30.0
0.0280535520974371;-1.1125286662067104;0.0007870017852836175;0.032374834302029185;0.02545117563852079;0.22215809692134236;0.0006477623413828342;0.027531355154481574;0.01620831245377983;0.37218830277448944;0.01580503721831346;0.0387478331803814;0.017666269969549425;0.00031209709463700386;0.028686559660978495;-5.5073218805295685;0.12213190047345529;30.0
0.062356290459405134;0.18275317502234678;0.0038883069598577;0.06882838788620377;0.025513654508431082;2.720520328579042;0.0006509465663755858;0.01950137656775791;0.03250604288629569;-0.024268611689697295;0.034924033853370055;0.07545630671969;0.06496277166544084;0.0042201617024562035;0.05604099303456406;2.8708770270673085;0.5510995233986646;30.0
0.06038159998461327;-0.21316296981921568;0.003645937616701849;0.06538696849189354;0.007404389880406683;1.3500681630755693;5.4824989501068894e-05;0.007265218721321409;0.031034694221579097;1.2079912042734744;0.024982155603140675;0.07545630671969;0.06078459528686845;0.0036947670241883903;0.07181222020392128;-1.2052768194566266;0.6169607221083212;0.0
