acc_X_std;acc_X_kurt;acc_X_var;acc_X_iqr;acc_Y_std;acc_Y_kurt;acc_Y_var;acc_Y_iqr;acc_Z_std;acc_Z_kurt;acc_Z_iqr;acc_Z_range;acc_std;acc_var;acc_iqr;acc_kurt;acc_cv;class
1.9191162510697144;0.42445396819668607;3.6830071851198753;2.297209581248669;0.5309758256743369;0.24103417915182931;0.2819353274505437;0.7618019692571413;0.03927382172236227;3.1656209256375405;0.04180687264199025;0.1417354950545528;1.109671146940642;1.2313700543525596;1.3833809322538522;-0.44763089293236613;0.6673752978618316;60.0
1.9191162510697144;0.42445396819668607;3.6830071851198753;2.297209581248669;0.5309758256743369;0.24103417915182931;0.2819353274505437;0.7618019692571413;0.03927382172236227;3.1656209256375405;0.04180687264199025;0.1417354950545528;1.109671146940642;1.2313700543525596;1.3833809322538522;-0.44763089293236613;0.6673752978618316;60.0
1.9191162510697144;0.42445396819668607;3.6830071851198753;2.297209581248669;0.5309758256743369;0.24103417915182931;0.2819353274505437;0.7618019692571413;0.03927382172236227;3.1656209256375405;0.04180687264199025;0.1417354950545528;1.109671146940642;1.2313700543525596;1.3833809322538522;-0.44763089293236613;0.6673752978618316;60.0
1.9191162510697144;0.42445396819668607;3.6830071851198753;2.297209581248669;0.5309758256743369;0.24103417915182931;0.2819353274505437;0.7618019692571413;0.03927382172236227;3.1656209256375405;0.04180687264199025;0.1417354950545528;1.109671146940642;1.2313700543525596;1.3833809322538522;-0.44763089293236613;0.6673752978618316;60.0
1.9191162510697144;0.42445396819668607;3.6830071851198753;2.297209581248669;0.5309758256743369;0.24103417915182931;0.2819353274505437;0.7618019692571413;0.03927382172236227;3.1656209256375405;0.04180687264199025;0.1417354950545528;1.109671146940642;1.2313700543525596;1.3833809322538522;-0.44763089293236613;0.6673752978618316;60.0
1.9191162510697144;0.42445396819668607;3.6830071851198753;2.297209581248669;0.5309758256743369;0.24103417915182931;0.2819353274505437;0.7618019692571413;0.03927382172236227;3.1656209256375405;0.04180687264199025;0.1417354950545528;1.109671146940642;1.2313700543525596;1.3833809322538522;-0.44763089293236613;0.6673752978618316;60.0
1.9191162510697144;0.42445396819668607;3.6830071851198753;2.297209581248669;0.5309758256743369;0.24103417915182931;0.2819353274505437;0.7618019692571413;0.03927382172236227;3.1656209256375405;0.04180687264199025;0.1417354950545528;1.109671146940642;1.2313700543525596;1.3833809322538522;-0.44763089293236613;0.6673752978618316;60.0
2.1161556445373573;-0.08989075521119881;4.478114711907319;2.5375679140419876;0.48523474170690256;-0.7983317248105146;0.23545275455936443;0.7618019692571413;0.03921950683520996;3.156235084436009;0.04180687264199025;0.1417354950545528;1.2753935669942216;1.6266287507302442;2.0864458240423165;-1.1571346926525419;0.7027068610883146;60.0
1.669956232430069;-1.0077438261188756;2.788753818232031;2.2713455782244374;0.5896208449688137;-0.09645864817001919;0.34765274082173786;0.7711704201661527;0.038877794155051826;2.87704927703682;0.04180687264199025;0.1417354950545528;1.1636891029967624;1.3541723284334095;1.5204867102418458;-0.35468318449403946;0.6834173831107188;60.0
2.1139805869123225;0.6247406794564483;4.468913921842167;2.477050970307329;0.7658473810913319;-0.24779994735498764;0.5865222111244518;1.0887121737201084;0.041157726682876566;2.1837489225790554;0.04817987152034245;0.1498929336188436;1.767977887065354;3.1257458091520736;1.8543845572887818;2.2290280315084754;0.8126575529516848;60.0
2.921675372523758;0.9402916224836657;8.53618698241184;3.1865467335901054;0.9437648353169905;-0.6236764816902363;0.8906920643809062;1.4226805167187428;0.045561268185935984;1.9396389950360156;0.05251351075762203;0.174365249311716;2.6422402220662624;6.981433391104772;2.6001706171504653;1.8732752525978602;0.9784912216853634;60.0
3.3373104292716955;-0.2570499227639857;11.137640901325629;3.490535408548638;1.0638957796455166;-1.1647866532898516;1.1318742299475415;1.6635989721180842;0.04236580200773294;1.0243397868452733;0.05251351075762203;0.1590700520036707;3.27435843053323;10.721423131604036;3.477832952767355;-0.1066216946392539;0.9675496328488615;60.0
3.3925000145765316;-0.6839375736382655;11.509056348901767;4.606000014137548;1.105649519060456;-1.562030279974415;1.222460858998618;1.9318061788841057;0.04775973307056606;0.43971792382556346;0.05531763026409702;0.17487508922198408;3.344319053202467;11.184469929613044;4.8960535197337185;-0.6893640096170732;0.9379310780054481;60.0
3.3506680285670147;-0.7272746660129061;11.226976237661164;4.606000014137548;1.051087776178644;-1.6323200098028419;1.1047855132321671;1.8292395987353585;0.048468362597518674;0.2677785553424801;0.06220046905271737;0.17487508922198408;3.2910827292369467;10.83122553068171;4.8960535197337185;-0.7630963375915137;0.8759539999077773;60.0
3.323658472306443;-0.6918652117188395;11.046705640534396;4.51446010606516;0.9683858762129738;-1.486140213090216;0.9377712052487689;1.594642711241259;0.04827808950225422;0.5198267728940373;0.06220046905271737;0.17487508922198408;3.191959786125148;10.188607276240099;4.436994454771179;-0.6410525177499847;0.8222596107785344;60.0
3.281937394831783;-0.6433427059024085;10.77111306359523;4.51446010606516;0.8504117133524247;-1.0923391946297303;0.7232000822070066;1.267221457499749;0.04659514767725664;1.6570042330600663;0.047160191699806224;0.17487508922198408;3.118821372761705;9.727046755195206;3.991361911256336;-0.5505054367211364;0.7753338704744019;60.0
3.527926472036334;-0.5649725728975694;12.446265192094733;4.51446010606516;0.7096343904862862;-0.5494704123555506;0.503580968160843;0.9300384361744196;0.04551802635600094;3.01200896317899;0.03989497297848467;0.17487508922198408;2.9096605954227357;8.466124780555788;3.7175430777473975;-0.33416386300433615;0.6875715135261836;60.0
3.6608815985513887;-0.6138393259025785;13.402054078612172;4.51446010606516;0.6158833582455128;-1.0229975556202602;0.37931231096377066;0.9272618889896986;0.04565711866972657;2.7801275428125236;0.03989497297848467;0.17487508922198408;2.785947609478432;7.761504082758589;3.7175430777473975;-0.21320930062503674;0.6416624706095054;60.0
3.8916189992628234;-0.9167383558757257;15.144698435423377;5.242278319772895;0.6722184757194649;-0.14682408923162535;0.4518776790986008;0.9272618889896986;0.04902969172572034;0.9564540135505474;0.04945447129601297;0.17487508922198408;2.7275904487579474;7.439749656155581;3.7175430777473975;-0.15970800899720655;0.6210284172255489;60.0
4.122802867948866;-1.1390618825987942;16.99750348796739;7.230327923130967;0.8248840425499078;0.16454281184179725;0.6804336836534781;0.9272618889896986;0.05390745698468787;0.7653643445638288;0.0479249515652085;0.19068012644029758;2.826456157928937;7.988854412694407;3.7720603684042215;-0.2333992952289312;0.6694019684418145;60.0
4.256264561619719;-1.268292185095928;18.115788018499895;7.230327923130967;1.0373265659635231;-0.40195344144849954;1.0760464044536755;1.3398199281690406;0.05373622652407689;1.737996143163673;0.04588559192413583;0.19068012644029758;2.8967177367423895;8.390973646357951;3.9643228639646937;-0.31726356081706514;0.6985407823414745;60.0
4.105681522010564;-0.4889476104315204;16.856620760178984;5.649416413331196;1.2249756096639433;-1.1969415671839962;1.5005652442715496;1.9372437114429173;0.06266840493786283;-0.34978546935559823;0.07163250739267868;0.19068012644029758;2.926709066482999;8.565625959833786;2.618559257562503;0.6444696643896969;0.79348500504073;60.0
3.691918851234193;1.120390487419267;13.630264804098404;4.687370816896305;1.389601051829166;-1.418229268801882;1.9309910832447246;2.2457095545503005;0.06928924859879662;-1.2592249892865195;0.10349750178443953;0.1927194860813703;2.411760666925751;5.816589514530143;1.6831047020170495;4.371280065429528;0.7494959040417083;60.0
2.709292366530933;-0.3160832828186674;7.340265127342784;3.2369772418557003;1.490977358574912;-1.5523655911685073;2.2230134837830215;2.6415785697282668;0.07282240877108258;-1.0454885308530348;0.10349750178443953;0.21515244213317009;1.3395975814310315;1.794521680175869;1.6004066798076497;0.9128215109937653;0.49315867369184235;60.0
2.166530773806253;-0.02970699074747927;4.693855593849522;2.5523256967697217;1.5115304814630588;-1.6626997226760178;2.284724396391946;2.738451379330938;0.0709366124795776;-1.3355090976860782;0.10936066075252354;0.21515244213317009;0.9626296472775705;0.9266558378177397;1.5069039419223067;-1.2576777135621398;0.3856805603646565;60.0
1.7810923984617055;0.03512170598890773;3.172290131858071;2.4977518391725226;1.5666397795313616;-1.3867477796292125;2.454360198810073;2.6343516294752467;0.07083160102946538;-1.385192110699382;0.10591924135821343;0.21515244213317009;0.8464487292718392;0.7164754512859114;1.3503563845427653;-1.0963577537106555;0.3556059431726826;60.0
1.682055442574608;1.6970866899086874;2.8293105118948603;1.4101129670085162;1.511317508867035;-1.0997172947770613;2.28408061260806;2.237379548242433;0.07086061974692724;-1.232377847424893;0.10591924135821343;0.21515244213317009;0.8690600556155645;0.7552653802665282;1.362046114989127;-1.222232859604517;0.35400821978322705;60.0
1.1305876019560042;0.4876916887078879;1.2782283256966283;1.0146088140163296;1.3589321376367927;-0.7786280400209957;1.8466965547021026;1.9509123716292054;0.07357786597304784;-0.7766768190211079;0.1022229020087691;0.2182114815947791;0.8319162012755937;0.6920845659448142;1.303374285971259;-0.9880556840451984;0.3463945434268211;60.0
1.141100280008409;-0.03086649021038852;1.3021098490352694;0.9840911937179135;1.1329676214342317;-0.6972165455595764;1.2836156312183407;1.6443926451757425;0.06978031556691443;0.4738519744693797;0.05506271030896297;0.2182114815947791;0.8296213128924994;0.6882715228054743;1.303374285971259;-0.9970240379800847;0.3496270286528821;60.0
1.1433775978888976;-0.04342171731448477;1.3073123313541857;1.000003775380729;0.9122011739374497;-0.5711740322336754;0.8321109817328615;1.2944721759222528;0.06793138151295688;1.6669685955629499;0.02931579484042013;0.2182114815947791;0.8253581657543984;0.6812161017774649;1.303374285971259;-0.8374338494183083;0.33989871985912423;60.0
1.177488295070218;-0.24657185571568271;1.3864786850273687;1.4124760451909069;0.7360755932759466;-0.19752785012803112;0.5418072790165368;0.8995223544834787;0.06966932172508199;0.7480226193048768;0.040532272866319954;0.2182114815947791;0.802785257656114;0.6444641699099933;0.933845652158078;-0.1806378505424915;0.31842829157158165;60.0
1.1872507179039047;-0.2764963066365195;1.4095642671633373;1.4124760451909069;0.585185291657734;-0.6724852190310401;0.3424418255725472;0.8075301196916369;0.057228562162959525;0.891339357813269;0.040532272866319954;0.1937391659019067;0.7708374054106647;0.5941903055802454;0.6383432994247551;0.7751350891467091;0.2987740873768467;60.0
1.1949781442509915;-0.4086736470060973;1.4279727652375434;1.5456009856790867;0.4817438345672893;-0.8405518144985991;0.23207712214359583;0.7131113345015292;0.04311252060021902;-0.2948303591467733;0.035178953808504124;0.1376567757724073;0.6997973268662196;0.48971629868910665;0.6383432994247551;1.7832260392703334;0.2664539523674786;60.0
1.0648240876690833;0.9826896644153692;1.1338503376802955;1.302530136633656;0.44599587891205106;-1.3322026613683098;0.1989123240065329;0.7131113345015292;0.04768694478562798;-1.0659930584677986;0.06500458855919235;0.1376567757724073;0.5479647323854357;0.30026534793824217;0.6383432994247551;-0.3758791483912546;0.20327582535816494;60.0
1.0131713269408753;0.891635971919923;1.026516137735134;1.2923119661930584;0.5722973932422146;0.072101429811135;0.32752430631183405;0.8075301196916369;0.04585871875325023;-0.7652284026181772;0.055572550219231076;0.1376567757724073;0.6915124077027966;0.47818941000691884;0.7412132071462882;0.7785749192035534;0.2759176383830182;60.0
0.903119756360375;0.8165386500137686;0.815625294328423;1.1121552890449269;0.6774288890075186;-0.7554843430217336;0.458909899661961;0.8815093267505687;0.04289813140597745;-0.7062462834554329;0.06704394820026499;0.1376567757724073;0.7474242780152932;0.5586430513666824;0.8763972535043538;-0.06580012274462206;0.3289055583273399;60.0
0.8433543520680065;1.1107669573071348;0.7112465631520469;1.0725202924389916;0.7490046009497889;-1.34894878131069;0.5610078922439526;1.1323260640215103;0.045700508973276766;-0.8472194288658632;0.07086774752727631;0.1417354950545527;0.789522236290897;0.623345361597779;1.0308087279044702;-1.1005696060706118;0.37704519071085885;0.0
0.6134403155262379;-0.8640280545691124;0.37630902071293026;1.0314029394693915;0.7425443551826185;-1.4242512942933288;0.5513721194135708;1.3896190683213916;0.04552027594363398;-0.42758440466341896;0.07086774752727631;0.1417354950545527;0.824289038155646;0.6794524184235601;1.5934129871780267;-1.640634144517431;0.4186916877078514;0.0
0.8540414346473131;1.9251755432757691;0.7293867720944408;0.6896327298641515;0.6979140654880361;-1.3598436470684052;0.4870840428060388;1.1697205693431605;0.04481714444735259;0.41372956600593447;0.06016110941164465;0.1417354950545527;0.7858599166532644;0.6175758086022757;1.528216549078223;-1.9087400945240771;0.4386646367158406;0.0
0.9000044930167436;0.7519725250916578;0.8100080874503256;0.7391918085771048;0.6296504593287309;-1.3341001448816021;0.3964597009328818;0.9581136913563177;0.03313813829887855;-0.2883797582817263;0.037728153359844925;0.0938105434893442;0.8289404415799017;0.6871422556866824;1.3657529029232403;-1.5024151675814308;0.5167794265361974;0.0
0.9578218205929658;-0.11919595500166022;0.9174226400040236;0.9741307650036979;0.5550329003120706;-1.2927748659786422;0.30806152042882895;0.8791348750605424;0.027801649680216492;0.5149377833645127;0.03313959416743132;0.08871214438666239;0.8706226955873905;0.757983878071854;1.0971617985585898;-1.1889700285165459;0.6025507999947031;0.0
1.0022211875353302;-0.2883009484261095;1.0044473087447277;1.0186891180022841;0.4603578933166085;-1.1659088149906116;0.2119293899389059;0.7730961571884328;0.029449365507739085;1.1895880079570715;0.03313959416743132;0.0968695829509533;0.791097670740199;0.6258355246505682;0.969681904037496;-0.12293827425235943;0.611055228311497;0.0
1.186943402024806;1.2670309991368254;1.4088346396102203;1.1886717783206253;0.4178008002157333;0.20444729745769588;0.1745575086609071;0.39784690916679744;0.033427814607951134;-0.6783811258004517;0.04614051187926978;0.0968695829509533;0.7304460206165104;0.5335513890344955;0.969681904037496;-0.6305374681555419;0.5778072434623559;0.0
1.2164234337978046;-0.21653755550762527;1.4796859702924416;1.553440754639372;0.37518402170423465;2.2641154440983517;0.14076305014216361;0.31019305244882533;0.04734626484811682;1.3583523031845484;0.0588865096359742;0.1590700520036707;0.6871807529748096;0.4722173872590263;0.969681904037496;-0.7264937979368464;0.5547017475071633;0.0
1.1788357263153773;-0.18443951925898622;1.3896536696375033;1.5008676255823667;0.24892053726553404;1.7403749684140508;0.06196143387256212;0.29348299133356814;0.04730631984330892;1.1853233517978714;0.0588865096359742;0.1590700520036707;0.6684273259040202;0.4467950900151992;0.4367199220267909;0.17213050038238736;0.579866786477488;0.0
1.0910396349721225;0.1065416437553981;1.1903674850801023;1.3758459790044344;0.16545355704485454;-0.7290879077065717;0.027374879538794937;0.19237576119811728;0.04906155133280482;0.9343318345779191;0.0588865096359742;0.1702865300295706;0.645641185315489;0.41685254017558965;0.2657260660500358;1.736884021758888;0.6111276908710949;0.0
1.054656455071464;0.2952256444399192;1.1123002382239073;1.099897625355293;0.16739107367285824;-0.7311098111868034;0.028019771545352255;0.19237576119811728;0.05029387535092457;1.2771092838710874;0.05506271030896282;0.1702865300295706;0.6593370976597638;0.4347254083504009;0.35017468458682977;1.7867833087895924;0.6464808901800325;0.0
1.0369237858402858;0.40009003123040987;1.0752109376413508;1.0358866753222906;0.2017582306819642;-0.42198293928249897;0.04070638364791668;0.23276534585382264;0.049705152308141466;1.0760231661266864;0.05506271030896282;0.1702865300295706;0.6789762831233274;0.4610087930439688;0.4454867970026072;1.6341315178436255;0.6876919234991846;30.0
1.015194330969326;0.5185579902543124;1.0306195296322576;1.0358866753222906;0.24001080586713247;-0.6509279913375653;0.05760518693299035;0.29148985812329264;0.04915298009087614;1.172049688041441;0.05353319057815829;0.1702865300295706;0.6900525081469052;0.47617246399983465;0.4699541454987739;1.7152876920138775;0.7223220228848495;30.0
1.1348276900811511;0.676627948485173;1.2878338861749214;1.0358866753222906;0.29548899906965415;-0.6119066634804666;0.08731374857118607;0.370006134716514;0.050058103713165006;1.0244405351356471;0.0560823901294992;0.1702865300295706;0.7336535754481547;0.5382475687678612;0.6556443244087564;0.09418455146218448;0.7212324856786022;30.0
1.4222286570633216;0.8221453907158945;2.0227343529721393;0.6994648473727609;0.40489728661152774;0.4740995297290788;0.16394181270537764;0.5115989083873718;0.04944507316631241;1.0255932168394621;0.0560823901294992;0.1702865300295706;0.9158710232118971;0.8388197311592074;1.3840203912903313;-0.7082916947791698;0.776676662438069;0.0
1.5919966703797315;-0.2053643896078357;2.534453398500151;1.130570243148572;0.5329467171274181;0.12289513794164009;0.28403220329689227;0.6210676460181355;0.04980577916157447;0.961604299453082;0.05710206995003553;0.1702865300295706;0.9753223864650463;0.9512537575398732;1.6911711907018425;-1.6242785021274393;0.7121423281650906;0.0
1.7439010268542199;-0.7386666723712128;3.041190791463203;2.2624575670511673;0.6788295459335948;-0.3585272781435764;0.46080955243241045;0.8585598998211155;0.05070513392540513;1.0390154195501782;0.05710206995003553;0.1702865300295706;1.0331511680439052;1.0674013360304857;1.8842868457506916;-1.9119757432362194;0.6477280223189605;0.0
1.7183222797908202;-0.39775505432585306;2.952631457225522;1.8891872251007933;0.8196166818116112;-0.740228976203735;0.671771505103876;1.2468394990630185;0.048227954115238364;3.124013755823247;0.04843479147547658;0.1702865300295706;1.0145745311781538;1.0293614793153707;1.8842868457506916;-1.86148371629054;0.5986180806895973;0.0
1.4336428523692315;0.38941879435041893;2.055331828149386;1.6985446804688893;0.8954951761316661;-1.2897219491319811;0.8019116104750836;1.4362154208692408;0.04706577053095502;5.6871588680926175;0.040787192821454;0.1702865300295706;1.0022732173863522;1.0045516022899899;1.738177304213035;-1.7984452955883898;0.5970792559957406;0.0
1.1598395078707648;-1.7288075054225718;1.345227684017898;2.2438602311148363;0.9212069113361878;-1.575137891311893;0.848622173493559;1.5311926867777568;0.02379817037435355;-0.48343569840626516;0.023325175894768995;0.06627918833486271;1.1129562250699745;1.2386715589220076;2.0945864205451614;-1.7758759858536934;0.6258939087211125;0.0
1.048056316162433;-1.5922842670329578;1.0984220418479695;2.112665828311793;0.9174349960892694;-1.6872598648049704;0.8416869720493177;1.6823113486660604;0.0199406705534744;1.2839293387671085;0.014657897420210071;0.06525950851432641;1.0910580671603456;1.190407705915669;2.0945864205451614;-1.5859690677606917;0.5664184410033614;0.0
0.9557111770882032;-1.2133525261529645;0.9133838540113188;1.4639992318974953;0.8560502325952811;-1.6410327895203356;0.7328220007264349;1.5735315645918098;0.019751349509474703;1.3561235882323344;0.014402977465075975;0.06423982869379011;1.032952651013208;1.0669911792352147;1.2338650315997413;-0.8955477429656816;0.4935153031660949;0.0
0.8468016680772367;-0.45040371673437235;0.7170730650583905;1.0671525081002222;0.7745000356666808;-1.435821107908629;0.5998503052476899;1.2515114151163909;0.020564899639110654;1.0515314192117475;0.022305496074232704;0.06525950851432641;0.9318314534383172;0.8683098576169667;0.7979245812650415;0.6306762370903402;0.4097882190419186;0.0
0.7553523019109581;0.05853660949554309;0.5705571000021833;1.0991019420553494;0.7107242904597195;-0.6752884569301298;0.5051290170494718;0.9761405537304197;0.01493002329472729;2.4855437444421074;0.01937391659019068;0.0530233506678902;0.8055869710281981;0.6489703678903869;0.7236273762252736;2.547925936529767;0.3173300523478961;0.0
0.567071611254776;-1.3416593889144284;0.3215702122910878;1.0374617695496473;0.615456080644267;0.32197367682585676;0.3787861872020026;0.675026954480693;0.015216393984830531;1.7595362431059256;0.022305496074232704;0.0530233506678902;0.5262343139123137;0.2769225531387635;0.574639279223836;-0.3368541725156566;0.19107148639870328;0.0
0.5664407986267768;-1.0195324795505334;0.3208551783489407;0.8234409483561622;0.4782638936704687;0.8884955339370543;0.22873635198883735;0.42982945625231106;0.015218270375255591;1.7404928486730569;0.022305496074232704;0.0530233506678902;0.4721920219408631;0.22296530558460056;0.5604963325425345;-0.6732745910292913;0.1632870352589581;0.0
0.9647336459138717;4.021409938053748;0.9307110075582716;0.8366783089507974;0.3661523006350826;1.6640629233635915;0.1340675072603639;0.3437903813038792;0.012786719898016075;-0.8007831096955834;0.020138676455592974;0.0397675130009177;0.8881399360024468;0.7887925459224302;0.7686665677897122;4.680128934200093;0.2859125955101134;30.0
1.1457658406726083;0.6891100253810111;1.312779361652209;0.9253840098671979;0.2798450771523192;0.6527209088845097;0.0783132672063875;0.3676983002145806;0.014143863897084281;-0.9689639162070667;0.023070255939635;0.0458855919241358;1.059801926507011;1.1231801234279721;0.8543489991536664;0.8656330528482076;0.319635065080998;0.0
1.3212638533561007;-0.7966883164970233;1.7457381701854118;1.432107446840674;0.22264810712808117;-1.4205273564922878;0.04957217960771751;0.3564253394348662;0.013912524733398247;-0.8621240384100335;0.020775976343428176;0.0458855919241358;1.2221407611439203;1.493628040049441;1.3595039676354608;-0.7833598979574585;0.3476949084493748;0.0
1.2309796640061397;-0.8940619743690389;1.5153109331966683;1.5924962704568602;0.214725891653169;-1.4144558913583596;0.046107208546248474;0.356898518724305;0.013705391898427633;-0.78546122750134;0.020138676455592974;0.0458855919241358;1.1407166936911608;1.3012345752656935;1.6098489558906568;-0.9422855753152192;0.309838499811828;0.0
1.1681885414808768;-1.255181977141594;1.3646644684472184;1.9244562474496312;0.20678374398906804;-1.1061562165237573;0.042759516778136435;0.32436138576367046;0.013357873462397453;-0.42128936945415424;0.01937391659019068;0.0458855919241358;1.0829310460975634;1.1727396506019632;1.759026720406467;-1.3618235498574276;0.279033706737552;0.0
1.2135554215588538;-1.384592571321753;1.472716761194887;2.10241254661381;0.20803886037103028;-0.38611748589719797;0.04328016742447703;0.27198850519330353;0.02775117220878197;6.113834801024289;0.019628836545324754;0.10400734169470781;1.0971305390162718;1.203695419642135;1.7779516979070293;-1.4140247670348356;0.2844076456877567;30.0
1.1935784371224523;-1.3980698057860839;1.4246294855636759;2.10241254661381;0.22922911519165123;0.02499738635160232;0.052545987251547306;0.24925805832975767;0.027789464083689576;4.929122531775582;0.022942795962067927;0.10400734169470781;1.0515670094033662;1.1057931752655392;1.6902956756281062;-1.368955033887132;0.26954015751199517;0.0
1.139982976856922;-1.2832227239017664;1.29956118752357;1.9244562474496312;0.22496052580637205;0.5547857851550468;0.05060723817107938;0.21801777709113423;0.027831382786251618;5.1609855759592405;0.022942795962067927;0.10400734169470781;0.9777952487330878;0.956083548445001;1.6696946945274322;-1.3243672461182108;0.24333810668526212;0.0
1.1791050553916738;-1.2731463904321336;1.390288731650202;1.9348587273762519;0.2109265599812817;-0.55014897608207;0.04449001370553723;0.25815346452454246;0.028102610569510415;4.510946214484758;0.02982563475068832;0.10400734169470781;0.9392779612166384;0.8822430884272848;1.6650732842354259;-1.3502404779889279;0.23194478825793857;0.0
1.3545816124156789;-1.1793171764787669;1.8348913446946604;2.171314347688763;0.21667741848471156;-1.1468121482517044;0.046949103681198825;0.31245050669161545;0.028954939487259728;4.070436508043814;0.03364943407769962;0.10400734169470781;1.0023270213155098;1.0046594576592225;1.6747554411519747;-1.424706780792336;0.2518002303694848;0.0
1.4377156890607363;-1.4007567497598776;2.0670264025713876;2.329269429633663;0.229514061041469;-1.3650382023593228;0.05267670421574715;0.3883419607267058;0.028461057360567883;4.306842376423413;0.02982563475068832;0.10400734169470781;1.0159472757584749;1.0321488671210666;1.6902956756281062;-1.4492904129022253;0.25611368232115045;0.0
1.5186148819562644;-1.6148796358259274;2.3061911596990385;2.5726541250094277;0.21179697560703878;-1.7818857731462017;0.04485795887628858;0.3765195937874122;0.028421072106064902;3.5249731566829396;0.030590394616090547;0.10400734169470781;1.0517221738878475;1.1061195310473797;1.728923171045981;-1.5346092508855769;0.26820068598679764;0.0
1.398917579813574;-1.141154864424601;1.9569703951114674;2.09273717967516;0.18665894628792834;-1.8531374238189349;0.034841562229319716;0.35279567943612333;0.028421072106064902;3.5249731566829143;0.030590394616090547;0.10400734169470781;0.9651018767046855;0.9314216324189061;1.2589746031007119;-0.8014892036300668;0.26073522614967554;0.0
1.2854866686923878;-0.018012456398363005;1.6524759753858527;1.8707036277486542;0.18922266610794272;-1.8556016472960266;0.03580521736899797;0.35796642003100176;0.02682520317859851;3.9131218955131013;0.028041195064749672;0.10196798205363511;0.8954121349635394;0.8017628914399638;1.1630306673886293;0.7107658185959116;0.25749624650753283;0.0
0.9751278248243467;0.19039764915978277;0.9508742747466618;1.0273427980914849;0.2063767506080262;-1.321290659589367;0.04259136319152745;0.35796642003100176;0.02650989261697882;4.103792803414535;0.025237075558274674;0.10196798205363511;0.6603409744775733;0.4360502025739912;0.5344015682461336;0.57221748441077;0.20312439277564154;0.0
0.8898222368218527;1.8776685718957449;0.7917836131426452;0.8528826275413066;0.2850246016432985;1.1780483082007909;0.081239023541921;0.3591309156133571;0.025316500895441105;4.669098796964558;0.02141327623126335;0.10196798205363511;0.6102750573920612;0.37243564567488363;0.2885176499712272;3.109106002211542;0.19304852883731322;0.0
0.5911982771758044;1.4282328844429621;0.3495154029356392;0.655347433757052;0.3730977500814543;0.34133521874501427;0.13920193111584334;0.4333252539271877;0.02515356365500448;4.321508633523122;0.021668196186397454;0.10196798205363511;0.43259936948931216;0.18714221448255045;0.34060107448498744;3.9494872717647316;0.14603028300953583;0.0
0.6260876917088029;0.3260945548016113;0.3919857977092569;0.7397995436560332;0.44165849443749655;-0.9245148827482605;0.1950622257087962;0.628581411886215;0.014172237887988689;-0.2181967412773209;0.02141327623126335;0.0438462322830631;0.42966898159165673;0.18461543374201145;0.24687263767627643;4.415974613576257;0.14569204984906015;0.0
0.6508932003390686;-0.4379116706204021;0.4236619582476349;1.1019650857988785;0.48969911991224785;-1.692185577761499;0.2398052280428301;0.9286204698321407;0.014495362249100889;-1.0291783611436194;0.02447231569287245;0.0438462322830631;0.42703244809098184;0.1823567117225771;0.20744247262939108;5.082215024196076;0.14586789477157877;0.0
0.5117942250890329;-0.9535789625448122;0.26193332883448367;0.6980089379018222;0.4853897511412484;-1.8901332063775564;0.235603210512963;0.9286204698321407;0.01600978992886192;-1.507746513297935;0.027021515244213347;0.0438462322830631;0.23914595645354988;0.057190788488083184;0.26630041883898814;0.42026415341955625;0.0853402421383811;0.0
0.5575585344840368;-1.5005669310084924;0.31087151937598684;1.1019650857988785;0.46180794004336195;-1.6377289261718924;0.2132665734870934;0.7923775289710084;0.01953425518575298;-0.6017552894580768;0.02855103497501785;0.061180789232181;0.23908928784929392;0.05716368756428252;0.26630041883898814;0.4204156671982692;0.08532113628005554;0.0
0.4929978606193508;-1.521618664541528;0.24304689057525686;0.9532276741158277;0.4266291377105254;-1.0351178547129551;0.18201242114362645;0.5849041813094829;0.019961842011899447;-0.7435501830488975;0.02855103497501785;0.061180789232181;0.2501194299314114;0.06255972922921421;0.402673734399595;-0.4853088576992901;0.08989618834167863;0.0
0.48694108894699123;-1.5442250464652512;0.23711162410488162;0.7949217756593849;0.3644368758875418;-0.17647041402426694;0.13281423650667154;0.42202430385351297;0.020935441673154687;-1.268934981571626;0.03670847353930867;0.061180789232181;0.2552258565522648;0.06514023785283726;0.40558907461426763;-0.5837633177852859;0.0915606661206653;0.0
0.46021080824210014;-1.1463703459110788;0.21179398802284705;0.681706986999358;0.3032034506967735;0.07291425034028723;0.09193233251443077;0.38658121075840146;0.022063867334380684;-1.4543746835438445;0.03721831344957682;0.061180789232181;0.2531368206367168;0.0640782499620653;0.40558907461426763;-0.5346517783486477;0.09095093154063902;0.0
0.49398064819471693;-1.1343839311341621;0.24401688079087272;0.681706986999358;0.28944244196459695;0.33004859389403757;0.08377692721042908;0.3184332263231855;0.02056130846615798;-1.3161404000974863;0.0316100744366269;0.0591414295911083;0.40008998928016054;0.16007199952219897;0.43222907927184506;2.4082825733750712;0.1489019114839985;0.0
0.41884544096661874;-0.4527443958547268;0.1754315034185213;0.6488136358076411;0.3000002619508306;0.12130139728024573;0.090000157170567;0.29638399456757636;0.01880950625947865;-0.7668249839811393;0.022687876006933803;0.0591414295911083;0.40935861647407196;0.16757447688156635;0.4731815977545981;1.6615393201425819;0.15312939200230316;0.0
0.4095577287344004;0.3364844762720856;0.16773753316608067;0.5876346175876379;0.31157725393332814;-0.7364127844942275;0.09708038516863363;0.35698902260463306;0.01932812324384676;-1.0805452387835455;0.029570714795554204;0.0591414295911083;0.4118741109853031;0.16964028329993375;0.5166522933039897;1.1878247635348846;0.15530450586211975;0.0
0.48727452129433446;-0.6600653670868231;0.23743645910262282;0.681706986999358;0.3407893365618836;-1.414302212183468;0.11613737191428876;0.6350042660054125;0.020229945518146653;-1.0460036809841204;0.029570714795554204;0.0591414295911083;0.5114633945088588;0.26159480392252454;0.5623189837113345;0.194394592791318;0.20230718833053207;0.0
0.609309662178457;-0.3470111876510714;0.3712582644240254;0.7895882680906023;0.40046187342820266;-1.3648895553469045;0.1603697120696258;0.7410766380193516;0.02492012215825778;0.9671098044939292;0.029570714795554204;0.0856531049250534;0.6701646581562788;0.44912066904172204;0.7111519188746058;0.13589166452266252;0.2766419541214291;0.0
0.6240638251627395;-1.2582505779076334;0.38945565787675024;1.2010676430825722;0.46222332395316995;-1.4159702068213302;0.21365040120631712;0.7885022528002273;0.025792841173448985;0.25416006325013174;0.03275721423473028;0.0856531049250534;0.7206234724178885;0.5192981889996152;1.2087021801646056;-1.0659360436485057;0.31573839031710155;0.0
0.6101858818156961;-1.1895399100641226;0.3723268103671987;1.0877175644603487;0.5637297586291256;-0.8485811252530703;0.31779124076405213;0.863404881127037;0.027273619455527927;0.029829885047710527;0.035816253696339326;0.0856531049250534;0.697677983061268;0.48675456804843903;0.9948495307269587;-0.9763298974516702;0.3123583845789348;0.0
0.6554305664418199;-1.267984892321771;0.4295892274262449;1.2239091283715617;0.661839004607412;-0.4705328820587959;0.4380308680197299;0.8931562362726999;0.02930054269630002;-0.2516641262497577;0.04524829203630055;0.0948302233098806;0.7049804999111299;0.4969975052549465;1.0999684673817054;-1.0299735012704674;0.3139859044158091;0.0
0.639351513609742;-1.4743426318497046;0.4087703579550681;1.0877175644603487;0.721551947208905;-0.6084544231068599;0.5206372125209625;0.7861373323217438;0.03226449115726896;-0.3181703717733222;0.04524829203630055;0.11216478025899851;0.671728872108321;0.45121967762391707;1.067047334738921;-1.3925284652063843;0.3182305662692783;0.0
0.8516559042888491;-0.07328135535807657;0.7253177793100573;1.1628686727460704;0.7825043545867251;-0.7296981454491516;0.6123130649471872;1.0088566969984214;0.039980539406389716;-0.08573036993158022;0.04830733149790958;0.1437748546956254;0.7503962970481591;0.5630946026235891;1.0954091281350469;-1.4191527903956735;0.3815719268258812;0.0
0.8848731307019564;-0.8387568378033052;0.7830004574382816;1.1996108975097286;0.8517920500222083;-0.7982573872508435;0.7255496964810361;1.2573510288665541;0.04205734472269758;-0.657434914803267;0.05952380952380945;0.1437748546956254;0.6875673385069297;0.4727488449815029;1.0691372371010197;-1.3963237102192114;0.3771127607464191;0.0
0.960248955995674;-0.9533594888223206;0.9220780574907818;1.476015298677733;0.8887352126935982;-1.3732628670454958;0.7898502782815353;1.4769167281738242;0.044455916677588886;-1.0632651288536938;0.07277964719078198;0.1437748546956254;0.6144220451115482;0.3775144495190574;0.9825435329949577;-1.1313202200595767;0.3628205398520267;0.0
1.1389748293319522;-1.0578848171643687;1.2972636618517497;1.8992472261997015;0.9255192492692108;-1.656527769415979;0.8565858807678435;1.6411064038701824;0.04468019724171335;-1.083523638401847;0.07277964719078198;0.1437748546956254;0.6144959121922412;0.3776052261009746;0.9825435329949577;-1.1189249352824322;0.36360598968595886;0.0
1.1421362530752297;-1.1291511786656157;1.3044752205887253;1.7701241757916228;0.9403916094229259;-1.6723251233925192;0.8843363790730407;1.8128819116239177;0.0440917519281358;-0.8643152643407752;0.07277964719078198;0.1437748546956254;0.5789851650695852;0.3352238213706549;0.5045451677517079;-0.23037132092291332;0.3562874245337464;0.0
1.1021891862896545;-0.6834429924408748;1.2148210023738508;1.4418178401367188;0.9162788776817554;-1.4675629401680164;0.8395669816857374;1.5213049122244926;0.04365196213670329;-0.3298234620660701;0.050219231161415176;0.1437748546956254;0.5116064306754817;0.26174113990850645;0.341474096575054;1.5745979227013822;0.32908465535858406;30.0
1.1369214393949365;-0.5224377065047343;1.2925903593558543;1.5254160740041502;0.8538470326243598;-1.1956400191201355;0.7290547551214245;1.2869358287467034;0.042169031266956626;1.0616675577480894;0.03275721423473028;0.1437748546956254;0.5174983223406687;0.26780451362540664;0.39517296005753844;1.0428825192495506;0.3271364821935504;30.0
1.142315495592832;-0.3257578094960239;1.3048846914714975;1.5254160740041502;0.7999669500004816;-0.6745991206772317;0.639947121093073;1.1458279868935932;0.03577135408784696;1.0003062281973327;0.036453553584174576;0.1371469358621391;0.5024353335233287;0.2524412643726986;0.5679923706325507;0.7069395476925492;0.3012725306110556;30.0
1.2425050176150512;0.1256005405193725;1.5438187187985783;1.0274220000041416;0.6864204998210238;-0.6042205614397472;0.4711731025745442;0.9232701679185649;0.02665785871381472;-0.15281661207849312;0.036708473539308645;0.093300703579076;0.5278490433880438;0.27862461260567295;0.6344766354346028;-0.10790522376497304;0.29971276831670907;0.0
1.2354344793428331;1.6393149019285003;1.5262983527490974;0.7100161324949464;0.5631549262206612;-0.20235158144354842;0.31714347092659834;0.557823727257341;0.027422527282148116;-0.4639519597194761;0.030590394616090574;0.093300703579076;0.5703824662215643;0.3253361577729939;0.6675732124192886;-0.455816376607648;0.3181965872992312;0.0
0.872273578252789;1.5109545548121155;0.7608611953179243;0.5039262817508152;0.44820384769746946;0.8195218379547321;0.20088668909081642;0.42542184765491076;0.03294934364564333;-0.06877455497109015;0.031610074436626924;0.1131844600795349;0.49697106664620516;0.24698024108346692;0.4677004693974398;0.47172054190760443;0.29444385849900084;0.0
0.6911243894110068;0.6738588797746995;0.477652921638737;0.7781187304393824;0.3442202337988113;0.2505612092939941;0.1184875693565083;0.42542184765491076;0.037476859177953216;-0.9282673660011003;0.051876210869786825;0.1131844600795349;0.4953802150523552;0.24540155746531767;0.4677004693974398;0.49863299314259535;0.29253398934893104;30.0
0.678751408483712;0.5910710702183084;0.4607034745186228;0.7518962936730862;0.3045432908013901;-0.6877014454141728;0.09274661597214004;0.42542184765491076;0.03638266455539677;-0.7770587074862805;0.04397369226063012;0.1131844600795349;0.4374328709394946;0.19134751657836857;0.4677004693974398;0.43619562717685073;0.25282033114377817;30.0
0.6315624588226897;-0.014295568700137866;0.3988711393941616;0.8843449430864402;0.35974153598860115;-0.37769627663118144;0.129413972715438;0.444614590666365;0.03898583558553823;-1.2189873666635542;0.0600336494340776;0.1131844600795349;0.42410233974409667;0.1798627945764172;0.38264127601353537;0.6232400254552526;0.2427672555033308;30.0
0.70305212312623;-0.935753215132215;0.49428228783229966;1.0226441427662185;0.400275244035303;-0.9231424658459174;0.16022027098752137;0.5547809233175653;0.04555435225148473;-0.9047989271503329;0.07137758743754455;0.1478535739777708;0.4136100601055664;0.17107328182053025;0.5184299488551753;-0.04044124195698626;0.22795272721890203;30.0
0.9938239009572303;0.7742641515220025;0.9876859461138466;1.2604702772837135;0.44095079055071806;-1.436337781050815;0.19443759968730323;0.7052168104864034;0.046815741806533494;-1.1378856035716858;0.07596614662995813;0.1478535739777708;0.610590955015622;0.37282131434688925;0.6391852697133509;1.5139197759280743;0.31168151716779957;0.0
1.5188230020862399;2.567058593034215;2.306823311666258;1.5279061910231535;0.465478736934758;-1.6513908180431567;0.21667045453837763;0.8532711698766355;0.04609924444826173;-0.8841852738866003;0.07596614662995813;0.1478535739777708;1.1296008515375615;1.275998083794384;0.8876876436206234;4.635980619654187;0.4973313834066052;0.0
1.832058396918554;0.19273066648631748;3.356437969719782;1.7145594073084727;0.4912911397943904;-1.508510845195011;0.24136698404047124;0.8712039347838357;0.04651545737534294;-0.9343418152638334;0.07596614662995813;0.1478535739777708;1.4227732918955311;2.024283840131246;1.257203084781121;0.8253706123734901;0.5505417304283845;0.0
1.8058629458720294;-0.31356905628695003;3.261140979273604;2.2377722278065866;0.5012346175428605;-0.825521834720405;0.2512361418233376;0.6856795190140839;0.04779433459585765;-1.0488021194641868;0.08004486591210352;0.1478535739777708;1.4128924623559511;1.9962651101822628;1.6943965111815473;0.34056337519476443;0.5231551806407033;0.0
1.789117683598254;-0.29875253365744797;3.2009420857639825;2.2377722278065866;0.44692943660095685;-0.0576397244757263;0.19974592130044871;0.4695281532263236;0.04358846623870868;-0.8325082756524144;0.07086774752727637;0.1376567757724073;1.5402954739608687;2.3725101471043373;1.7642737799053563;0.042393263324705305;0.5987060530480091;0.0
1.8394995455920737;-0.4236941046032484;3.383758578233446;2.5548530566090504;0.35791016407957177;0.4816418469838614;0.12809968555146597;0.4036039683848547;0.047254544010646216;-1.2820528219531744;0.07252472723564793;0.1376567757724073;1.6207792594833437;2.6269254079713757;1.8653943938267887;-0.13925603023119557;0.6638024115556894;30.0
1.9197787451890715;-0.474594286480255;3.685550430479726;2.765132475055907;0.2691528585954955;0.5453291511857495;0.07244326129012679;0.33179907942393694;0.04295649944795654;-1.0789150810289863;0.05697460997246852;0.13357805649026191;1.6696324372077027;2.7876724753761333;2.072808546235503;-0.060541982513888745;0.7241364367381089;30.0
1.8877436905629128;-0.4164628888657647;3.5635762412600864;2.6640324886764652;0.23252457709036342;-0.8030189706280749;0.054067678951052356;0.33179907942393694;0.04170620478432667;-0.6701756352517306;0.0534057306005913;0.13357805649026191;1.6744848897264284;2.803899645922129;2.072808546235503;-0.07028380980642687;0.728863567799766;30.0
1.9828291992588543;-0.5592953326357145;3.9316116334335094;2.765132475055907;0.3097048793802553;1.753684137066634;0.09591711231193849;0.33179907942393694;0.04058557691392803;-0.2433452641026564;0.03938513306821645;0.13357805649026191;1.672640166946423;2.7977251280825577;2.072808546235503;-0.06935997586067831;0.7267441763559489;30.0
2.0504069198861212;-0.6672436387121295;4.2041685371168915;3.0575129314334673;0.3804133654137232;0.15114871421458057;0.1447143285853949;0.37888869885260124;0.04154654375702859;-0.38383673254620465;0.0500917711838482;0.13357805649026191;1.653124043003236;2.7328191015553647;2.000917081202684;-0.03318553124288491;0.707500182136038;30.0
2.1775540999176304;-0.7841210047627561;4.741741858068082;3.203258439686952;0.4419983200793682;-1.0585934016318164;0.19536251495298362;0.6527844284749751;0.040252184291444386;0.2921013119443747;0.03964005302335067;0.13357805649026191;1.6395932693065138;2.6882660887552223;2.000917081202684;-0.026931487818348563;0.6921866281428593;0.0
2.484069984217569;-0.5710106888098684;6.170603686490673;3.4707950122707563;0.4832705417868265;-1.7449194419603238;0.23355041655893283;0.9478304384724903;0.033692149656549035;1.7692951281765015;0.0393851330682166;0.1266952177016416;1.6515211299779222;2.7275220427635527;2.000917081202684;-0.40004847659634685;0.673519036852765;0.0
2.423431387490858;0.25153610132493454;5.873019689875864;1.4681208270849813;0.4970897116152643;-1.9773927948214831;0.24709818139374662;0.9478304384724903;0.03244002689466003;2.137302421850164;0.03454165392066895;0.1266952177016416;1.63832952181174;2.6841236220398845;1.88198934456401;0.21064167200127726;0.7106044705294172;0.0
2.1092040294528713;2.3515193815490747;4.44874163786023;0.947240887475308;0.48736434800731343;-1.7928183214720443;0.23752400770859372;0.9478304384724903;0.032521933692580954;2.1798537869193915;0.03454165392066895;0.1266952177016416;1.3370376243735338;1.7876696089904227;1.133608393136451;2.8465492004390587;0.6544661956584957;0.0
1.4135421108838333;2.72971839857607;1.9981012992419231;1.096691119964044;0.4623901186782518;-1.296008900262805;0.2138046218512878;0.7202504258560015;0.03177122354748524;2.4109736394117376;0.02523707555827473;0.1266952177016416;0.8195199455347321;0.6716129411292502;0.703062976454703;0.1838546074647234;0.4756874323906826;0.0
0.9523727027569588;0.3980656890628167;0.9070137649565947;1.1446121769266866;0.4129672011013791;-0.4174174240102439;0.17054190918550685;0.46349781145623736;0.029343180067098653;3.1195379517528394;0.02523707555827473;0.11038034057306001;0.6693161778454092;0.44798414592558744;0.5075267849746179;1.7575755076767678;0.4188231685560767;0.0
1.0134855080640994;-0.7137118645182006;1.0271528750559458;1.2143208052346561;0.3336633807821363;0.38990729286042236;0.1113312516749649;0.4033387750010875;0.029529956450861462;3.132326146054115;0.026001835423677032;0.11038034057306001;0.6168110254392917;0.3804558411034705;0.4647416956636472;1.2221594106443345;0.3506962759297053;0.0
0.9482260687483688;-0.7402904862029478;0.8991326774539862;1.315787372009539;0.2502739315850545;-1.4222756952580677;0.06263704083104055;0.40085250664832284;0.018894742363508427;-0.8221124065934842;0.023707555827470222;0.059141429591108303;0.5533120136798864;0.3061541844824907;0.5578132488865739;1.3875666888077571;0.2953346286391914;0.0
0.8992996159285731;-0.45606447510421994;0.8087397992092792;1.3497362536793487;0.21968458551293013;-1.9420621520278678;0.04826131711198792;0.43658226647673404;0.01888890511922037;-0.8075536139783966;0.023707555827470222;0.059141429591108303;0.4950800587006642;0.24510426452305312;0.5956338174454876;1.2193104494858131;0.24967198999662277;0.0
0.7434942183792267;-0.5222262181588336;0.5527836527633373;0.9622633387585057;0.2049881922664022;-1.27425281719326;0.04202015896864748;0.33520890541652704;0.019261171681124935;-0.8333252201362282;0.023707555827470222;0.059141429591108303;0.45391945711964804;0.206042873551796;0.5669457881081283;1.7679722412187755;0.2225930787501229;0.0
0.686478908818982;0.015177336021052826;0.4712532922533002;0.7005806398429942;0.20490114584408228;-1.273894769867811;0.041984479568217874;0.33520890541652704;0.01726694628518007;-0.8927842404682609;0.022687876006933873;0.054043030488426604;0.43829517196005235;0.19210265776349186;0.5195574506456764;1.7456086963199646;0.21007409107215955;30.0
0.6024862153814524;0.9697197368366233;0.3629896397246659;0.46923415672961344;0.2025260389405269;-1.2526058992007427;0.04101679644893982;0.30393926609249977;0.018003864535366763;-0.9825124590949795;0.02370755582747023;0.054043030488426604;0.42085920584149833;0.17712247114153665;0.4067524530190112;1.8918904003224826;0.19719133814142292;0.0
0.6058319958856554;0.9033890283736551;0.3670324072387967;0.46923415672961344;0.1924694157186348;-1.4499606501299067;0.03704447598707266;0.2792904310867206;0.017661985797673543;-0.8948379779941048;0.02268787600693388;0.054043030488426604;0.4438094799978881;0.19696685453599586;0.5636692326371848;1.2923635172078372;0.2104207558343482;0.0
0.5033774792509939;0.7558562791446617;0.25338888661708475;0.46923415672961344;0.1828212130008596;-1.4231961151801178;0.033423595923105676;0.2779182435611667;0.02035469366827046;0.6842734258252474;0.018991536657489577;0.0744366268991535;0.33389940726700684;0.1114888141732585;0.5636692326371848;-1.4517990380683146;0.1625229159097727;0.0
0.4981844685034332;1.0209068826914272;0.24818776465804818;0.5534286750497093;0.19151521555223527;-1.883663356393745;0.03667807778801914;0.382403941876319;0.02082524084676678;0.4475670653172339;0.021030896298562304;0.0744366268991535;0.3874651724509464;0.15012925986244163;0.4025413146546679;0.11586197639541196;0.17930487350989535;0.0
0.5667910157027759;-0.2132407406088109;0.3212520554813843;0.6591405245481174;0.20837588080280864;-1.4995246779301816;0.04342050770034631;0.382403941876319;0.020702757474590338;0.4945419311996059;0.021030896298562304;0.0744366268991535;0.42141112851815987;0.17758733923894904;0.4985330505271679;-0.5907560444619845;0.1908089301987477;0.0
0.6788710973059799;0.02968874337193357;0.46086596675742536;0.7067122050917385;0.2255846255404848;-1.4140397567829543;0.05088842328024075;0.382403941876319;0.022807296843165684;-0.09928987874052256;0.027913735087182628;0.07647598654022619;0.47953687770468356;0.2299556170787566;0.3731066592993315;0.40882930075291407;0.20353317455634948;0.0
0.7268967568350372;-0.7626318091141191;0.5283788950972952;1.0326602260727773;0.23093587438614455;-1.5388934592990322;0.05333137807849313;0.396905668428279;0.022924248832147102;-0.11357066127336629;0.027913735087182628;0.07647598654022619;0.48972102344516233;0.23982668080417724;0.5697615821541375;-0.12255617836558991;0.1977839181749852;0.0
0.7788025594050677;-1.3298648304232323;0.606533426535884;1.2003497889663124;0.2708891408695531;-1.5589894380867655;0.0733809266410446;0.463155397463638;0.022876093650658402;-0.0998900794192467;0.027913735087182628;0.07647598654022619;0.5172640318308676;0.26756207862592474;0.7390962823436578;-0.7497083692760794;0.20473413471081797;0.0
0.7750278637075814;-1.2511558687353077;0.6006681895231373;1.147842276131083;0.28157034786681623;-1.8385451552726326;0.0792818607978399;0.517546235267526;0.021831664412592343;0.15690722953828462;0.02179565616396445;0.07647598654022619;0.5105079867645812;0.26061840455042584;0.7053520453024982;-0.5347290937537196;0.19850618635459885;0.0
0.7574040915269352;-0.9267675537793176;0.573660957861742;1.1456008916670115;0.2823582125439733;-1.7586328420919166;0.0797261601910276;0.5359914150849705;0.021697031575785997;0.24520668247408126;0.02179565616396445;0.07647598654022619;0.5149592104832683;0.26518298846155103;0.7157617050287537;-0.6559301927658484;0.2008134417876886;30.0
0.7154244189484179;-0.35016621699202927;0.5118320992276814;0.9705593090177724;0.2973852708438826;-1.240024928451982;0.08843799931488941;0.47435398522649574;0.020925280572327416;0.8293895506644945;0.018864076679922473;0.07647598654022619;0.5235358848209895;0.2740898226952963;0.7157617050287537;-0.7541002952598793;0.20472722655733785;30.0
0.7719215990100067;-0.7264534189534105;0.5958629550181656;0.9705593090177724;0.3319580772620036;-0.077220939485386;0.11019616505948635;0.35277821578956425;0.02234676376042165;0.0033888966480427976;0.02179565616396445;0.07647598654022619;0.6661576859320744;0.44376606252637624;0.7819432564186677;-0.07006582772095397;0.2701631253545816;30.0
0.8629730432088024;-1.111975294231112;0.7447224733050615;1.1148436111146351;0.40410587837069034;1.1606419390270635;0.16330156093374718;0.323898431213144;0.022373316446756344;-0.013806386421569212;0.021923116141531498;0.07647598654022619;0.8341239998293142;0.6957628470912538;1.0872657771487821;-0.40933212950904224;0.35664515972306626;0.0
0.8849068951863067;-1.0170669332864672;0.7830602131482692;1.1148436111146351;0.47053249094204413;0.19594798730979365;0.22140082503212485;0.4186104904001957;0.025107292137210267;-0.701538460572811;0.02753135515448145;0.07647598654022619;0.9555421299570462;0.9130607621228486;1.2113625748431684;-0.7647426181537582;0.4237201577944893;0.0
1.0626340116680242;-1.1765468591474044;1.1291910427536787;1.7739420633215166;0.5066019114007267;-0.5983732558811204;0.25664549663486974;0.6942275034575092;0.022033813974179934;-0.12562789535569246;0.021923116141531498;0.0744366268991535;1.1122056889892422;1.2370014946200352;1.9315198670051883;-1.4067381853765055;0.537270479063328;0.0
1.3000463749537288;-0.7599975420967205;1.6901205770303311;1.9510410909898435;0.5658147224755008;-1.2619580358709097;0.320146300170028;0.9572489661435205;0.03628727922988712;3.5537738124344616;0.023070255939634923;0.1376567757724073;1.1209566800816166;1.2565438786196;1.9280825606536576;-1.7424287506205007;0.5878395634617946;0.0
1.5729347465589005;-0.6838174702792521;2.4741237169323127;2.184268269678701;0.6235368474103895;-1.5875735389833412;0.38879820007848737;1.0308086539978665;0.03794206801552722;2.919586877824986;0.031100234526358676;0.1376567757724073;1.0903777043708647;1.1889235381890766;1.9280825606536576;-1.5661555014965722;0.5970414163814388;0.0
1.5630022427488088;-1.1510862937967128;2.4429760108378065;2.3727416277902136;0.6391884040537679;-1.8094149748436166;0.40856181587680285;1.1873754657641276;0.03668904899263434;3.393345052759629;0.0285510349750178;0.136637095951871;1.0030226991537852;1.0060545350177448;1.4692796775546122;-1.330001077156814;0.6150282901347711;0.0
1.5754437999073259;-1.2936053403514522;2.482023166666434;2.7190127886858133;0.6203709062665256;-1.8140380074107298;0.3848600613419503;1.2045151169879804;0.03535038596157025;2.6292338245161773;0.032119914346895;0.1335780564902619;0.878641405409626;0.7720107193002028;1.1206543635100568;-0.8006882395602045;0.584386813854998;90.0
1.4779618065483895;-1.3763028184165846;2.184371101615779;2.196825192490701;0.5957795640915063;-1.3610776729024074;0.35495328898906525;1.0359307959736312;0.041660409224227084;0.28109152863503434;0.03874783318038122;0.1335780564902619;0.7307987599380995;0.534066827527064;0.9134142010370098;-0.4573152965707228;0.5327075578546451;90.0
1.8790806438216388;1.509129955467258;3.5309440659851443;2.2216249091676312;0.5166768128547397;-0.5364763299704022;0.2669549289417317;0.6745825478873402;0.0415483270636172;0.28302636699540296;0.03874783318038122;0.1335780564902619;1.1807478270947283;1.3941654311889224;0.9134142010370098;5.393958841975049;0.7656508061215428;90.0
1.7116392531197453;2.2845578271816307;2.92970893282032;2.0627774677928548;0.42565326378579776;0.8553066779981773;0.18118070097150193;0.49218549939986744;0.044112648705821066;-0.8067526250791275;0.049199551340878875;0.1335780564902619;1.173332793380231;1.3767098440214562;0.8410619777806712;6.877100851740426;0.8216981253011447;90.0
1.5305529482197162;3.392613688951433;2.342592327304065;1.60259267676757;0.32276493034788134;1.6925697935155717;0.10417720026247271;0.32000977450845486;0.04337363739517689;-0.8324486892159257;0.0504741511165493;0.1335780564902619;1.1641045167837103;1.3551393259962359;0.68331471782901;8.072006017060396;0.8556495789338051;90.0
1.4152265456252657;4.196947241812052;2.0028661754424224;0.8566664727837219;0.2473095872290933;0.2421189733921191;0.06116203193542451;0.28189470495325963;0.043270362787230995;-0.8151409601514824;0.0504741511165493;0.1335780564902619;1.1631061933143607;1.352816016926223;0.7732947762747391;7.595053573606328;0.8303291132358482;90.0
1.3803169997505886;2.9026792565736224;1.9052750198004664;0.7426721336813623;0.2518151088571409;0.8445531031708318;0.06341084904873373;0.2041478765372185;0.0448436976686036;-1.0611572435741417;0.05914142959110827;0.1335780564902619;1.2316080776224878;1.51685845686496;0.7428278414481897;3.783452895929985;0.7728862311910392;90.0
1.2506488627203427;4.1755009668481184;1.5641225778236865;0.7384517506290328;0.2516518433143439;-0.18989197592974782;0.0633286502435071;0.25755647985714675;0.049086049280542936;-1.2976179853760252;0.07418170694401945;0.1376567757724073;1.1968875970805186;1.4325399200451778;0.6989482720478932;4.1102060289775215;0.7249715414611685;90.0
1.173368425274635;3.9738695068858596;1.376793461431477;0.9796758841805566;0.3020720521526985;-0.10626840441399724;0.09124752469174262;0.3796628433512728;0.0486083303035029;-1.2446968832846528;0.07418170694401945;0.1376567757724073;1.141878230386655;1.303885893030959;0.8943288678127783;3.3656008029318767;0.6164142565560141;90.0
1.1482052546508266;3.6699713035998025;1.3183753068077693;1.2118113838206757;0.3713810056664401;-0.302237030704942;0.1379238513698164;0.49962911468987853;0.04357701223900017;-0.8524444192274605;0.059396349546242344;0.1335780564902619;1.1206010500301617;1.255746713328701;1.3267524386529206;2.6778581299293833;0.5643653519706322;90.0
1.2755849190961397;2.6081371095603596;1.6271168858255054;1.3074864489939069;0.4221389558340581;-1.1740394303543862;0.17820129803266885;0.5865754143249213;0.040299543510913416;-0.46381447912712526;0.04970939125114705;0.1335780564902619;1.1286945905307921;1.2739514786934727;1.3267524386529206;2.6848325581229333;0.5753599699356862;90.0
1.2560782138966304;2.748301759084318;1.577732479425749;1.2286355951643335;0.4904784241993173;-1.0839763622975744;0.24056908460504547;0.778373536670115;0.03828513727440098;-0.25268851445994883;0.0451208320587335;0.1335780564902619;1.0872938583477014;1.1822079344006313;1.1507424663769985;2.7222630783413995;0.5262490010338766;90.0
1.288468888252277;1.6599024069112172;1.660152075994059;1.5144670474707156;0.5864248148923769;-0.7250648254476156;0.34389406352155844;0.9004907465745963;0.041693294997448144;-0.8411175319912931;0.05378811053329253;0.1335780564902619;1.146775742663976;1.3150946039625138;1.3316027719193215;0.8014630200466146;0.5174277294316162;90.0
1.4377520379436122;-0.15099237439047405;2.06713092261101;1.8204479249212837;0.6032490421411039;-1.059096089240308;0.36390940684415934;0.821187445163488;0.03853747156972252;-0.7327555473229602;0.050474151116549376;0.1254206179259711;1.2897632662541176;1.6634892829784897;1.7105660234850153;-0.6222848319970391;0.5228468771241068;90.0
1.1907478834970204;-0.44664429054067667;1.4178805220526336;1.8204479249212837;0.56527177611724;-1.141559325989604;0.3195321808747391;0.876868596470805;0.04006814090263731;-0.7418636870762915;0.057611909860303824;0.1254206179259711;1.1216114699326452;1.258012289484469;1.7105660234850153;-0.7406219697959626;0.47526937155943494;90.0
1.5220948961051033;0.5191267285927665;2.316772872749205;1.640769432550924;0.5306079781914532;-1.2894222526760157;0.28154482652042173;0.8810914634665015;0.04994791292142442;0.5093487428102814;0.057611909860303824;0.1845620475170795;1.4037199512908962;1.9704297016521162;1.8965571583198577;0.604029281440687;0.5059913487023681;90.0
1.4928481806207736;0.7208464614819383;2.228595690382754;1.513486795268982;0.4919528865540354;-1.3487805558414774;0.24201764258884761;0.7713513313008111;0.05024281189698503;0.3661958387936585;0.057611909860303824;0.1845620475170795;1.3089177796438725;1.713265753867845;1.3865736304471792;1.0906927681570873;0.45200364662201004;90.0
1.514493651633028;0.5683060792911084;2.293691020836744;1.620590061145993;0.4974686597195352;-0.8667767979520375;0.2474750674031507;0.7254141780977486;0.05010505203254477;0.368291466317079;0.057611909860303824;0.1845620475170795;1.2451016960101609;1.5502782334073792;0.9902126921520886;1.517817547802839;0.41580620847300737;90.0
1.5337416602988754;0.7857488928268632;2.352363480536351;1.6726318999559804;0.4844800456773028;-0.7347813556763747;0.23472091465948142;0.674536378307032;0.04677578579261673;1.207270273952573;0.04333639237279492;0.1845620475170795;1.2468860239029043;1.5547247566043938;0.9902126921520886;1.6012408967074376;0.4198005260175587;90.0
1.5300471606675687;0.1990430349722317;2.3410443138668886;1.8164457278239907;0.4361561297862664;-1.0058638839327279;0.19023216955013444;0.5443436184776909;0.03930118902004477;1.8149863533970207;0.042571632507392675;0.1498929336188436;1.1859463538599981;1.4064687542338241;1.142265984659565;0.8824483058165975;0.3675252102943525;90.0
1.7700333558024846;-0.7600728755186317;3.1330180806534047;2.419997942949205;0.3823251196614321;-0.9527061091162125;0.1461724971241284;0.5433492871704582;0.040544198470212345;0.7017922761232607;0.03976751300091775;0.1498929336188436;1.3973504292680032;1.9525882221754727;1.8161079297075111;-0.4526834944722231;0.3995934522596205;90.0
1.7630613336292773;-0.7581923750326325;3.1083852661386455;2.419997942949205;0.331650090390037;-0.31637300392887496;0.10999178245571971;0.49633018053047495;0.03803534855544967;0.8925249462893539;0.03976751300091775;0.1300091771183847;1.3675913211222843;1.8703060216089953;1.6873133025076927;-0.3357050787820046;0.3841530296187441;90.0
1.575619884217998;-0.7858582550341529;2.4825780195431375;2.301514119520718;0.27388923547080135;-1.3406734027336682;0.07501531330678007;0.4928195138369966;0.035954066765190605;1.400372885067915;0.03415927398796782;0.1300091771183847;1.2525629717243016;1.568913998134814;1.6873133025076927;-0.30621009761808043;0.34354157491327997;90.0
1.531890602344683;-0.6561691071923671;2.3466888175519554;2.1166378593621102;0.2918896923272219;-0.9702666671908686;0.08519959248688026;0.4928195138369966;0.03585424611661979;1.2851136284661568;0.03415927398796782;0.1300091771183847;1.2186081858834354;1.4850059107021174;1.6835728103840832;-0.22523249850043184;0.3314041390651897;90.0
1.6686529328398354;-0.8251870585368946;2.784402610274984;2.363754476562181;0.4046484881342253;0.7150609772532227;0.16374039894931428;0.5077709019605077;0.03603634725863629;1.1592497510823332;0.034924033853370104;0.1300091771183847;1.399171129530752;1.9576798497123606;1.7940486346483402;-0.27403441135500656;0.3999473314571675;90.0
1.7922718942882396;-0.24181281963314455;3.212238543055555;2.016464868803926;0.47931490558650225;-0.3726622469488019;0.22974277871739757;0.5649027532605493;0.05483239655253462;2.6274093580469726;0.04359131232792908;0.2243295605179973;1.5064831172789386;2.269491382646468;1.152033066563753;-0.003803775240570278;0.46718038847009974;90.0
1.7807607288121605;0.019752913245631967;3.171108773279617;1.7636268197682812;0.5172155936850391;-1.2274302433420192;0.26751197035096747;0.8260258981686461;0.054755200232763195;2.647112465085551;0.04206179259712455;0.2243295605179973;1.5154042134943144;2.2964499302763217;1.034964466051501;0.1480444204204275;0.4819267721566036;90.0
1.5218721678787737;0.927398262888368;2.316094895364038;1.6987751383923348;0.5385963272030961;-1.6818580561848073;0.2900860036766646;1.0235568819247893;0.04628475386336412;4.447593117517864;0.03364943407769965;0.1784439685938615;1.2718060540602838;1.6174906391443897;0.843966265029354;1.823554120521544;0.4298754018237729;90.0
1.518990512225905;0.9422955045304143;2.307332176232318;1.6987751383923348;0.5396977052743771;-1.6902640313618735;0.2912736130784284;1.0235568819247893;0.04599506832423452;4.423338158341831;0.03364943407769965;0.1784439685938615;1.2886642271661295;1.6606554903776776;0.956991117296532;1.6989582491365607;0.4408564799907796;0.0
1.4952848124647973;0.8453257990351656;2.235876670387884;1.4986958974652675;0.48971523597014177;-1.2711532660133655;0.23982101234129163;0.742971199510694;0.046119573219343894;4.083612318653327;0.04129703273172228;0.1784439685938615;1.2929259562314195;1.6716575282969304;0.9740370580970401;1.4291966439816481;0.4354539366529888;0.0
1.455384417920365;1.1227852377133098;2.1181438039253995;1.292166381348937;0.4501793349810153;-1.1545159233037674;0.20266143364394917;0.6910502368759239;0.05117844086140774;1.1306268331298157;0.0513663709595187;0.1784439685938615;1.2944294084898396;1.6755474935633559;0.9740370580970401;1.234136333957668;0.42926164153479995;90.0
2.0689688051019304;1.952927235066583;4.28063191648491;1.292166381348937;0.44202576242524544;-1.2595280443787782;0.19538677464761953;0.6910502368759239;0.05298788993245521;1.278878126100289;0.0502192311614153;0.1784439685938615;1.8873434019528994;3.562065116895144;0.9740370580970401;2.423012350450114;0.5706629688618919;90.0
1.8883596410126324;4.718607823522261;3.565902133805358;1.2384818589922568;0.488916453151892;-0.6819799129260945;0.23903929816262626;0.6910502368759239;0.05069387004498049;1.6335319020508268;0.04410115223819715;0.168247170388498;1.726662992739958;2.981365090497708;0.9740370580970401;5.259354478936619;0.5468140737422676;90.0
1.8960800486361913;4.397761913582176;3.5951195508362215;1.45944849065448;0.5799384165291722;-0.9014765373604632;0.3363285669663637;0.8537484425142932;0.05029168266655921;2.3796795655583574;0.032502294279596194;0.168247170388498;1.7525768611145294;3.0715256541140565;1.3084229907035847;4.307232262617698;0.5423129186239906;90.0
1.8886919256545418;3.922098919516539;3.567157190032661;1.2689485690308642;0.6672194535111238;-1.4284985231181824;0.44518179914368267;1.125052294405001;0.051030994366950425;2.5153151806244436;0.02791373508718262;0.168247170388498;1.769382574115834;3.130714693584775;1.6801099546742502;3.2184164096943277;0.5214938625029718;90.0
1.9026516770628799;3.196891102486207;3.620083404230189;1.2970602705223309;0.7271163378529651;-1.7949875049579438;0.5286981687727074;1.3550500615742855;0.05103099436695042;2.5153151806244436;0.02791373508718262;0.168247170388498;1.7938938220249765;3.2180550446993776;1.80522209143053;2.184497759187511;0.5017718767023912;90.0
2.1894883076666063;1.1116632541615086;4.79385904940878;1.0090405906367073;0.7113250500988082;-1.76685628150525;0.505983326898072;1.3722949819316939;0.04925041698006845;2.7816807789713733;0.026256755378810993;0.1667176506576934;2.0475303580367776;4.192380567082214;1.4162674839013056;0.6043469826846237;0.4953410836962798;90.0
1.8832970884448665;1.6838033828506216;3.5468079233449115;0.7313434919625554;0.6455095946824578;-1.4532681117811996;0.416682636827111;1.104033976302624;0.042571146810641065;3.491176018704164;0.02077597634342817;0.1876210869786886;1.827132658972128;3.338413753482558;1.2090790774466127;1.0148989555639762;0.416193326072386;90.0
1.947646382249076;-0.027440870119127995;3.7933264302879137;1.3434144402582273;0.5644656070082127;-0.7251508851466913;0.31862142149515005;0.8039225415745488;0.04249938783038078;3.5142465997827115;0.021923116141531494;0.1876210869786886;1.8279092038890064;3.3412520576621407;1.7009236311829845;-0.10934718339042825;0.3868202135359993;90.0
2.1288212974286265;-0.23630512015641772;4.5318801163857;1.6290097818132394;0.4978311216425023;-1.0152413557642717;0.24783582567583193;0.8010781787180425;0.043345661198133024;2.9873541972814377;0.026639135311512147;0.1876210869786886;1.9578122336232175;3.8330287421247324;1.9150412386868423;-0.35099137788825174;0.42556702858744494;90.0
2.0416087100362854;-0.04733906075107181;4.168166124896026;1.5906488575841333;0.5665385854943453;0.4585570248794947;0.32096596885393364;0.8010781787180425;0.043595694038534104;2.8473825505856074;0.033521974100132544;0.1876210869786886;1.8845487640843475;3.5515240442118414;1.9150412386868423;-0.24445958355956982;0.40422034308283705;90.0
2.0257696370902436;-0.333095010165064;4.103742622556737;2.171526582172734;0.8275344596264101;2.1248016323056884;0.6848132818691746;0.8010781787180425;0.045500891232381206;2.019131146429001;0.034031814010400716;0.1876210869786886;1.8374100072746593;3.3760755348330633;1.335717972984269;-0.1951676788345695;0.3839886162271327;90.0
2.0257696370902436;-0.333095010165064;4.103742622556737;2.171526582172734;0.8275344596264101;2.1248016323056884;0.6848132818691746;0.8010781787180425;0.045500891232381206;2.019131146429001;0.034031814010400716;0.1876210869786886;1.8374100072746593;3.3760755348330633;1.335717972984269;-0.1951676788345695;0.3839886162271327;90.0
2.0257696370902436;-0.333095010165064;4.103742622556737;2.171526582172734;0.8275344596264101;2.1248016323056884;0.6848132818691746;0.8010781787180425;0.045500891232381206;2.019131146429001;0.034031814010400716;0.1876210869786886;1.8374100072746593;3.3760755348330633;1.335717972984269;-0.1951676788345695;0.3839886162271327;90.0
2.0257696370902436;-0.333095010165064;4.103742622556737;2.171526582172734;0.8275344596264101;2.1248016323056884;0.6848132818691746;0.8010781787180425;0.045500891232381206;2.019131146429001;0.034031814010400716;0.1876210869786886;1.8374100072746593;3.3760755348330633;1.335717972984269;-0.1951676788345695;0.3839886162271327;90.0
2.0257696370902436;-0.333095010165064;4.103742622556737;2.171526582172734;0.8275344596264101;2.1248016323056884;0.6848132818691746;0.8010781787180425;0.045500891232381206;2.019131146429001;0.034031814010400716;0.1876210869786886;1.8374100072746593;3.3760755348330633;1.335717972984269;-0.1951676788345695;0.3839886162271327;90.0
2.0257696370902436;-0.333095010165064;4.103742622556737;2.171526582172734;0.8275344596264101;2.1248016323056884;0.6848132818691746;0.8010781787180425;0.045500891232381206;2.019131146429001;0.034031814010400716;0.1876210869786886;1.8374100072746593;3.3760755348330633;1.335717972984269;-0.1951676788345695;0.3839886162271327;90.0
2.3504244304162896;4.997723150128406;5.52449500309774;2.1066769558210545;1.272968993994813;-1.2927814771077477;1.620450059672166;2.0099598650397046;0.033907664519980424;-1.5947881967159554;0.05620985010706628;0.0978892627714897;1.876434611695613;3.5210068519692657;1.072123656320024;8.550974680912336;0.8106500028342378;60.0
2.3504244304162896;4.997723150128406;5.52449500309774;2.1066769558210545;1.272968993994813;-1.2927814771077477;1.620450059672166;2.0099598650397046;0.033907664519980424;-1.5947881967159554;0.05620985010706628;0.0978892627714897;1.876434611695613;3.5210068519692657;1.072123656320024;8.550974680912336;0.8106500028342378;60.0
2.3504244304162896;4.997723150128406;5.52449500309774;2.1066769558210545;1.272968993994813;-1.2927814771077477;1.620450059672166;2.0099598650397046;0.033907664519980424;-1.5947881967159554;0.05620985010706628;0.0978892627714897;1.876434611695613;3.5210068519692657;1.072123656320024;8.550974680912336;0.8106500028342378;60.0
2.3504244304162896;4.997723150128406;5.52449500309774;2.1066769558210545;1.272968993994813;-1.2927814771077477;1.620450059672166;2.0099598650397046;0.033907664519980424;-1.5947881967159554;0.05620985010706628;0.0978892627714897;1.876434611695613;3.5210068519692657;1.072123656320024;8.550974680912336;0.8106500028342378;60.0
2.3504244304162896;4.997723150128406;5.52449500309774;2.1066769558210545;1.272968993994813;-1.2927814771077477;1.620450059672166;2.0099598650397046;0.033907664519980424;-1.5947881967159554;0.05620985010706628;0.0978892627714897;1.876434611695613;3.5210068519692657;1.072123656320024;8.550974680912336;0.8106500028342378;60.0
2.3504244304162896;4.997723150128406;5.52449500309774;2.1066769558210545;1.272968993994813;-1.2927814771077477;1.620450059672166;2.0099598650397046;0.033907664519980424;-1.5947881967159554;0.05620985010706628;0.0978892627714897;1.876434611695613;3.5210068519692657;1.072123656320024;8.550974680912336;0.8106500028342378;60.0
2.3504244304162896;4.997723150128406;5.52449500309774;2.1066769558210545;1.272968993994813;-1.2927814771077477;1.620450059672166;2.0099598650397046;0.033907664519980424;-1.5947881967159554;0.05620985010706628;0.0978892627714897;1.876434611695613;3.5210068519692657;1.072123656320024;8.550974680912336;0.8106500028342378;60.0
2.2923467148764374;4.723498599045812;5.254853461204794;2.0927058798060645;1.3053311056871226;-1.3077116828287685;1.703889295474366;2.0613880819531523;0.03191248226607866;-1.300977583009139;0.04907209136331182;0.0978892627714897;1.8902957119603603;3.5732178786557256;1.2369523963839444;7.503612303265587;0.7871995959690439;60.0
2.3026762440564927;3.965279891541575;5.302317884942116;2.227459593492202;1.3170798055022381;-1.3127602878831286;1.7346992140618134;2.0800318973406284;0.0342646938371903;-1.1621721031601189;0.04843479147547655;0.1014581421433669;1.9179700932284214;3.6786092785186395;1.702076459789858;5.9850681937177495;0.7584230718108589;60.0
2.2200162620149957;3.807047759421856;4.928472203611034;1.8808377366806348;1.3081913145929869;-1.3088791758847338;1.711364515576527;2.065891311202133;0.03662781046783457;-0.4627332878085743;0.046140511879269805;0.1269501376567757;1.9478198934315545;3.794002337247712;1.9929477408091274;4.220174861144228;0.7111667214294803;60.0
2.1595272246770576;4.260255865277378;4.663557834121394;1.32582311612678;1.3017216716155313;-1.2247223553873006;1.6944793103535334;2.0189663235376765;0.033203233340949365;-0.906348423848593;0.05009177118384822;0.10349750178443959;1.9004218967353155;3.6116033855910543;1.5570045044949783;4.0494579965636985;0.6515850156126788;60.0
2.519129780429163;2.431573538624078;6.346014850645083;1.9500274588002595;1.2556751352800404;-1.2493984501395394;1.5767200453605474;1.939301032127752;0.033835108184602974;-1.0760360529218853;0.05009177118384822;0.10349750178443959;1.9027593561264013;3.6204931673265577;1.620956133380075;3.3457928845780582;0.6213056877530561;60.0
2.658665333591679;1.6774109985842807;7.068501356042152;2.992113202238742;1.1720995910672016;-1.2602408362592463;1.3738174513799015;1.8706019427348215;0.03393436891217405;-1.0886243148879835;0.05009177118384822;0.10349750178443959;1.8074803358791531;3.2669851645898165;1.3136657945589403;3.9386466854793527;0.5570442525913044;60.0
2.890325614664398;0.22660239875556715;8.35398215878513;3.118869157375256;1.066827916002025;-1.195287759219644;1.138121802361224;1.8276451311771216;0.037938927896756666;-1.1923513997341062;0.055445090241664045;0.11114510043846221;1.9975943251817978;3.990383087998522;1.173699360399052;1.1893307661049353;0.5570050664870068;0.0
3.100213726205049;-0.3948260641633542;9.611325148150195;2.6277591258977013;0.9384790155754322;-1.0207377537146891;0.8807428626754323;1.5277680536723242;0.038685246948388465;-0.6509565370496849;0.0477974915876415;0.1264402977465075;2.2180407197547556;4.919704634490194;1.623429099810766;0.02643562567755756;0.5341672182913424;0.0
3.1087488860668873;-0.4918690342771299;9.664319636622112;4.012277182295754;0.8011225708274854;-0.7126981720433612;0.6417973734892394;1.1880428336060893;0.03908511503246864;-0.8446721034265477;0.05085653104925056;0.1264402977465075;2.0103479281092813;4.04149879205328;3.171838749256011;-1.02069302745667;0.4319827077625862;0.0
3.32174180655401;-1.0347610087016235;11.033968629408697;4.716599333159172;0.6461209510556722;-0.16445490199899887;0.41747228339308645;0.8678573242495968;0.03737228028306316;-0.285696994549888;0.04346385235036203;0.1264402977465075;2.000157027377765;4.000628134168658;3.171838749256011;-1.0097792785409858;0.42876217605146527;0.0
2.9938467276080187;-0.7546016470596164;8.963118228409241;3.8887024062440827;0.5005857382360329;0.12285122300060228;0.25058608132531407;0.6322215106852238;0.040894427230450905;-0.4399064077359368;0.04881717140817779;0.1305190170286529;1.7964064549822538;3.2270761515019086;1.589867058020348;0.31738914442011795;0.425581573026071;0.0
3.339384896210972;-1.0473496790151513;11.151491485041966;4.779787230857524;0.4864137992183037;-0.1887276326337649;0.23659838406998424;0.6322215106852238;0.036529938737612275;-0.823094335990427;0.04881717140817779;0.11522381972060759;1.7219806119157273;2.965217227813662;1.4111889718446253;0.5028002667873775;0.3995893994216826;90.0
3.4333818085638312;-1.1410651183313854;11.788110643377046;4.916181688324897;0.638332802432391;1.6480719433762354;0.40746876666118986;0.6322215106852238;0.03211743126433971;-1.0350864320121622;0.047415111654940306;0.0999286224125624;1.8644134654222422;3.476037570047774;1.4366323860523131;0.24764342099875875;0.445722745055591;90.0
3.4255086020274748;-1.099125421583092;11.734109182564223;4.916181688324897;0.9411397642673663;1.7278920454210278;0.8857440558852339;0.776719824616388;0.03407962673770204;-1.4563116283334585;0.05519017028652998;0.0999286224125624;1.9234566820426813;3.6996856076946405;1.7846229248636627;0.0980512239848906;0.47040828272236734;90.0
3.456630205000746;-0.8106225474754138;11.948292374123499;4.398403087804459;1.2904600420715162;0.6217488611102643;1.6652871201832193;1.5134656184011253;0.03581072079394549;-1.4968882356399535;0.06589680840216174;0.0999286224125624;2.0872137273901816;4.3564611438060155;1.974462906161972;-0.05558302566616678;0.5421713812394843;0.0
3.7660567684200066;-0.775157704702213;14.183183582962142;4.692924320702856;1.5831580136279788;-0.5143402791747002;2.5063892961144876;2.175593326495189;0.038196952307178254;-1.4710200677222554;0.06819108799836851;0.1019679820536351;2.0858567267008854;4.350798284323333;2.2598478088210054;-0.21617174729636557;0.5320313350631104;0.0
3.8595323772004204;-0.8433976000075145;14.89599017065833;4.85324793261773;1.808097900137356;-1.2634766877320376;3.2692180164811164;3.0605412864147015;0.051215904219786064;0.3513084543306251;0.07660344651779336;0.1764046089527887;2.086433594337644;4.353205143580701;2.2598478088210054;-0.19343683106453807;0.5337947064539076;0.0
4.111416321531768;-0.986974251909955;16.90374416895781;6.303586336299581;1.9790005453472226;-1.6321780734380424;3.9164431584846047;3.658152502052836;0.055703364305746315;-0.6266655473436155;0.08170184562047511;0.1764046089527887;2.098575925444394;4.404020914854795;2.7626773352982132;-0.5338686296843264;0.5193434703787605;0.0
3.873976571679668;0.24439209517620067;15.007694477922952;4.204652195561323;2.0940889103274425;-1.7069702334378742;4.385208364356376;3.8656056470971216;0.05953263785659794;-0.7840204628341484;0.05965126950137652;0.1764046089527887;1.9624506219150673;3.8512124434548345;1.8869232594237957;0.5709427968396704;0.5084655403129203;30.0
3.1157647645193114;1.4743326934350047;9.707990067820079;3.023487505267802;2.15236624981255;-1.56950795873266;4.632680473332141;3.59669035767526;0.057357590723466016;-0.5924380456325398;0.06972060772917295;0.1764046089527887;1.5456430294242258;2.3890123744076983;1.8869232594237957;-0.21685762062733904;0.4261907893253726;0.0
2.1129137354426435;0.4521018725105579;4.464404453422185;2.6100264646016087;2.0880348130353146;-1.3579912250805428;4.359889380447421;3.389589244016909;0.059551357033921004;-0.718656735777815;0.08195676557560916;0.1764046089527887;1.2324986634120283;1.5190529553124363;1.7094875391059725;-0.696969916896538;0.36386040982869583;30.0
2.097768693648207;0.6392371208917874;4.400633492050505;2.533796286399044;1.9083432568407626;-0.9804337962530086;3.6417739859296088;3.0008728546761674;0.06728135329667305;-0.2741563741302962;0.0764759865402263;0.2284082798001427;1.2338493431655377;1.522384201630029;1.7094875391059725;-0.7162238705294347;0.3647175515839126;30.0
1.9763423235245867;2.577672306148559;3.9059289797545618;2.4458078933128204;1.6418572869967907;-0.6305984862655395;2.695695350864462;2.391557187135493;0.06196414316110359;-0.10977047372821921;0.07571122667482408;0.2115835627612929;1.2282172415448802;1.5085175924281147;1.3925261455290858;-0.3875193985547829;0.348830981373108;30.0
1.9802740590323262;2.5817294764441816;3.921485348876365;2.4458078933128204;1.3509036661085532;0.16939989837283886;1.8249407151055292;1.7574312387336135;0.06152299244768976;0.28825454498508013;0.07673090649536041;0.2115835627612929;1.2336509695178914;1.5218947145924333;1.3925261455290858;-0.3208837632971981;0.346245538794286;30.0
1.952068272107301;3.9453377050603207;3.810570538967984;1.62817145322974;1.013881098684374;0.5095986827154358;1.0279548822694335;1.3149285777255864;0.05041934517309346;-1.0790202723789744;0.07673090649536041;0.1437748546956255;1.078444671222497;1.1630429088882;0.7108983575522756;1.5748798964618067;0.28636353895777783;30.0
1.101699150133958;-0.3156139750467951;1.2137410174058851;1.1603951693443637;0.741407043170396;0.027206410354825846;0.5496844036626695;0.9532938384904419;0.046456765628257915;-0.7092491503275331;0.05327827062302436;0.1407158152340165;1.0192818525651992;1.0389354949687446;0.6626874696699061;3.02831242963775;0.26645319090113156;30.0
0.9841783129422119;-0.25231057542610275;0.9686069516657784;1.1603951693443637;0.5802214227026964;-0.8899610365852298;0.33665689936314114;0.9016071209518883;0.047422399861848506;-0.7046604312622751;0.05327827062302436;0.142245334964821;0.7471769217238706;0.5582733523567591;0.6626874696699061;-0.2002685969100993;0.18962751891016957;30.0
0.9417563089658256;0.018655544933635484;0.8869049454769357;1.0005063399219516;0.5034844367322219;-1.686666860713733;0.2534965780315627;0.9016071209518883;0.04889799856963343;-0.7883106731794347;0.056592230039767474;0.142245334964821;0.7651183236971213;0.5854060492570929;1.01667119890228;-0.3928414633648907;0.19854812498549507;30.0
0.9476952654111543;-0.10605099383752632;0.8981263160827183;1.0870034614063364;0.5140156814318514;-1.5694706282742588;0.2642121207578505;0.9016071209518883;0.04984172594178665;-0.8958937830645053;0.06959314775160597;0.142245334964821;0.8168889707099193;0.6673075904675113;1.094570439800949;-0.7921434471951753;0.21611992693844517;30.0
0.8152902095802295;0.6003043155378085;0.6646981258373745;0.8643401089390474;0.5971919702758781;-1.31279446565696;0.3566382493619853;1.019706141197052;0.050638660257762806;-0.9880812045906794;0.06959314775160597;0.142245334964821;0.7798310625497332;0.608136486117446;1.1459850146642685;-0.08474135979392246;0.21693307105724713;0.0
0.795946488589819;1.1544952309012564;0.6335308126984629;0.816032899057662;0.6678541284093811;-1.5145031430837568;0.44602913683345413;1.1153591434273422;0.0512239779446793;-0.7316435600060427;0.06921076781890476;0.142245334964821;0.8088556303038411;0.6542474306742241;1.143244007720451;0.4546147298178438;0.2346088213800936;0.0
0.7090186816829561;-0.09238803028545324;0.502707490975437;0.6542092210131547;0.6868238528654284;-1.332597418993291;0.4717270048649116;1.1453799961793956;0.053293108394794744;-0.40931421247726624;0.0759661466299581;0.1488732537983073;0.7723208445549141;0.5964794869340158;1.0809643327639202;0.2118241789983712;0.24591849949060438;0.0
0.8959993319821521;-0.2559327856899605;0.8028148029124629;1.0198529301633672;0.6636135650057927;-1.1187071505005362;0.4403829636596974;0.985561040902776;0.055876531378390826;0.009947750342538106;0.054935250331395874;0.1631487712858162;0.9585804267675156;0.9188764345817924;0.7957596082908855;0.1827884834891923;0.32898680824428705;0.0
0.9427232974633266;-0.5026280110761181;0.8887272155801278;1.0308505270671602;0.6455761211812621;-0.6307161317954834;0.4167685282394436;0.8581392876565312;0.04557183457090105;2.5660513535721106;0.03326705414499837;0.1611094116447434;1.0916769020223418;1.1917584584090974;1.1544832301012278;-0.8335329296464346;0.3962820854100309;0.0
0.9958201010959833;-1.1398350265306287;0.9916576737468145;1.5136450968950204;0.597060203448672;-0.7681076175079176;0.35648088654216953;0.8315874866347115;0.030409743514478223;1.4146196822032866;0.03326705414499837;0.1121647802589986;1.1212440356381013;1.2571881874540158;1.7770855152151104;-1.1557544790920835;0.4544962885234204;0.0
1.0611562656091411;-1.2689969238405774;1.126052620041538;1.700998474299459;0.5443222250390921;-1.357199231787265;0.296286684671508;0.8751967699190183;0.02267011926906917;-1.0123726562155146;0.03326705414499837;0.07137758743754449;1.1501264195836933;1.322790781024406;1.8733784881099322;-1.2638003421446498;0.527544884213442;0.0
1.5358986366943592;3.155964038610774;2.3589846221995914;1.8594413436737638;0.4985977531459175;-1.2896915169373753;0.24859971944215725;0.8319553464663872;0.03855851851870906;3.773028862888485;0.0426990924849596;0.1488732537983072;1.0052176082618762;1.010462439959727;1.686818229219373;-1.6532347965854282;0.4861032691715477;0.0
1.5047767763864788;2.534974074780045;2.2643531467520828;1.8404980577063008;0.4354264299358522;-0.7922143441041676;0.18959617588668157;0.5586985495481244;0.043802825900363475;0.9954083405153225;0.04473845212603228;0.1488732537983072;0.9919281528708928;0.9839214604578611;1.7447234466805757;-1.9340923062027857;0.5291290690093625;0.0
1.4899995146510303;2.6467284884505995;2.220098553660306;1.8404980577063008;0.37667423804600436;0.10192811824030248;0.14188348160753797;0.4283138456095431;0.04668280174629072;-0.5072195779560363;0.049709391251147025;0.1488732537983072;0.9611576423930722;0.9238240135306088;1.7447234466805757;-1.7249865943500606;0.5318112394745084;0.0
1.3901531831142602;3.439807203917394;1.9325258725227095;1.382138693387458;0.3041657675551825;-0.025283712602847824;0.09251681415243329;0.3695313277708736;0.04762179920618624;-0.5862040379941909;0.05200367084735382;0.1488732537983072;0.8637606849059147;0.746082520789135;1.572399826372835;-1.6232358940633114;0.5289364131371043;0.0
1.3740687406611938;3.6136561786302877;1.8880649040622388;1.382138693387458;0.2936832745503525;-0.12881602427642633;0.08624986575061772;0.38436056585788975;0.05097122411846137;-0.8013024917897055;0.07010298766187407;0.1519322932599163;0.805363855566203;0.6486109398524599;1.3834437919697322;-1.5545096222093466;0.5073095572133928;0.0
1.3401509078269591;4.009173858067523;1.7960044557494228;1.3458329573836858;0.3369719783208759;0.3064575901187393;0.11355011417348485;0.39779706701825035;0.0517027190604526;-0.80956150766979;0.07010298766187407;0.1519322932599163;0.7437843699372;0.5532151889628776;1.1829204496940706;-1.376427000267339;0.4841101351802188;30.0
1.384622638582396;3.5279556264721488;1.9171798512748766;1.3458329573836858;0.38889945806257253;-0.007422636724569682;0.15124278848136263;0.3605999283860752;0.05252897223794319;-0.853465038385088;0.07010298766187407;0.1519322932599163;0.7688135537852647;0.5910742804839281;1.1829204496940706;-1.327393588229204;0.49507284710011984;30.0
1.52701189009801;2.352627396332538;2.331765312500697;1.693113456986155;0.43659608858057064;-0.7503887624535335;0.1906161445638535;0.6037267998203671;0.05239496836644616;-0.8445715872132755;0.06857346793106955;0.1519322932599163;0.8981456217462195;0.8066655578619032;1.4330493920101035;-1.455127925081408;0.5319606791075897;30.0
1.7293684297805088;1.6431044517464721;2.990715165921502;1.8718042742762622;0.47915998797189824;-1.2731084550601708;0.22959429407322965;0.7966655549112687;0.05408806270701177;-0.8522112512721226;0.06857346793106955;0.1651881309268888;1.0918226386945014;1.1920766743658235;1.6625099664629073;-0.6926178068267372;0.5630873935482917;0.0
1.7875997875191845;1.5698697212138186;3.195513000338633;2.237189664164595;0.5410964330380387;-1.3591215442095412;0.2927853498464887;0.8696401302652141;0.056833634235776205;-0.9911121196210382;0.07545630671968992;0.1651881309268888;1.1084729019921553;1.2287121744509102;1.7575159166565997;-0.9919018903314402;0.5252227355076454;0.0
1.7964867367831092;2.1484624999253206;3.2273645954376247;2.025370267791218;0.6529535684969318;-0.9078425464367089;0.4263483626128773;0.9903950713884826;0.05713893643477632;-0.6493928543190413;0.07163250739267857;0.1651881309268888;1.0520934884349196;1.106900708407158;1.3937475819362524;-0.5957521390062753;0.4577556856680502;0.0
1.8260729700598402;3.2414921018467657;3.334542491983166;1.5339360472826784;0.7826285281758916;-0.6973630298326498;0.6125074131147623;1.1425407440707522;0.05708763145440537;-0.1967393895722681;0.04199806260834102;0.1651881309268888;1.0124478047263104;1.0250505572951252;1.1100019839883353;-0.43227225606281144;0.3888912126338289;0.0
1.1003426225059143;0.3163835403727073;1.210753886903193;1.0722656642892399;0.8890849991876;-0.6779375319485117;0.7904721357804146;1.1014628311630448;0.04543839178937346;1.6739934196635735;0.019565106556541322;0.1386764555929437;1.0562146570424955;1.1155894017513963;1.238532591408228;-0.7631054987812484;0.394131754441097;0.0
0.8686966837519671;0.0023802958302926273;0.7546339283616651;0.9706700398530819;0.9581468151649999;-0.7582470868676126;0.9180453194108324;1.273142468211778;0.035197162662177955;7.56410889615366;0.015868767207097022;0.1386764555929437;0.9772398883343107;0.9549977993516561;1.4708698087289482;-0.6785801203617533;0.3301074918904855;0.0
0.840095195516935;1.1477806422419001;0.7057599375306373;0.9933813447749698;0.9665098353734304;-1.232837266159821;0.9341412618735755;1.4608741669146836;0.0176775742386768;-0.3832953574374598;0.022432956051799798;0.058121749770572106;0.9888694652262816;0.9778628192569122;1.4564680908001901;-0.1059158358003439;0.31175596712335835;0.0
0.6560584840648969;-1.0424942552314374;0.4304127345135305;0.9931493298215819;0.9184919947642671;-1.7202371922095874;0.8436275444460425;1.6379857986268416;0.018306040719686664;-1.0281037391351642;0.02727643519934745;0.058121749770572106;0.8456298915066655;0.7150899134095748;1.2295640166745105;-1.2312459503387951;0.24392070252426235;0.0
0.6220874827006215;-0.8561039701831407;0.3869928361327961;0.9931493298215819;0.8477537969831251;-1.78892308288654;0.7186865002993057;1.512927170024336;0.019398739628801516;-0.9726643144896716;0.030654124604874124;0.058121749770572106;0.7702529786473283;0.5932896511150816;1.05651533208645;-0.6912276932706056;0.2173358711156782;0.0
0.6891466823023317;0.09914160218193299;0.47492314972831084;0.8808023875538762;0.7738078978164868;-1.5919312221795467;0.5987786627231705;1.3109110966617752;0.02428410346236254;0.2803810945377399;0.031610074436626924;0.0876924645661262;0.7795698894948863;0.6077292126070692;1.116849940026154;-0.6392651984731136;0.20465098282270805;0.0
0.9029014166650885;0.9373582834692147;0.8152309682158237;0.9603754547902916;0.697625971892897;-0.9844305155912108;0.4866819966595091;1.0069274009427762;0.024154009695833752;0.45786309200733827;0.0300805547058224;0.0876924645661262;0.9374474531035516;0.8788077273303355;1.233515646969249;0.3264276539272013;0.2290896678330121;0.0
1.0404469864170844;-0.5270638968712944;1.0825299315443926;1.2679416441025229;0.6012296755290405;0.15557502426484954;0.3614771227367553;0.645515999989053;0.02417829270492969;0.4306236524291459;0.0300805547058224;0.0876924645661262;1.042929912870703;1.0877028031604923;1.2895027401729662;-0.6285724681535827;0.2406840338836905;0.0
1.0447633470204059;-0.6629157285318178;1.0915304512772808;1.3544038704780244;0.47665468797387445;1.8297770526947905;0.22719969156747163;0.3826863073739317;0.02327813564134312;0.7888051113075145;0.027148975221780353;0.0876924645661262;1.0460290923275586;1.0941768619956163;1.3796489620905321;-0.8311996348070547;0.2378396240863882;0.0
1.0156161873682772;-0.707747103313544;1.0314762400444755;1.1784414084987764;0.32539179632572773;2.5261769589449967;0.10587982111608386;0.2779201049708049;0.02541133637547322;0.3144269635238503;0.02740389517691443;0.08973182420719891;0.9800493486484217;0.9604967257861958;1.0483778201854426;-0.6271720504433321;0.2152728247415865;0.0
0.9338741113290796;-0.25699582522242587;0.8721208558106781;0.9194498602945975;0.22509113703096661;0.6534620534674187;0.05066601996989339;0.2838915626094576;0.029847612756434515;-0.1729540177275333;0.03492403385337005;0.10604670133578051;0.8556055162281047;0.7320607993999615;0.8576534307539712;-0.175773883243401;0.18250836257051467;0.0
0.9960727681184479;-0.6717936265662723;0.9921609593871473;1.1784414084987764;0.19711848441804689;-0.5342188167367599;0.038855696899267794;0.2708145048450312;0.030549522181679566;-0.3009481094559419;0.0441011522381972;0.10604670133578051;0.8740431629671594;0.7639514507296364;0.9248099322622734;-0.37674184901729546;0.18733581259117377;0.0
0.9891995052713556;-0.6384229742984473;0.9785156612290947;1.159459020415123;0.21382781946456378;-0.44317594293065665;0.045722336376970076;0.2253631617990619;0.02923514397301209;0.6369399305626365;0.03466911389823598;0.10604670133578051;0.8364266733917304;0.6996095799611565;0.8793313740903628;-0.06778624311483618;0.1779122482972841;0.0
1.092789225154444;-0.8883660663677511;1.1941882906136498;1.5041981068871335;0.23131389421653728;-0.9303485802246882;0.053506117657619395;0.3102453190277936;0.029129876140365843;0.755727332317512;0.03466911389823598;0.10604670133578051;0.8955298299278909;0.8019736762906771;1.0518055984727965;-0.5213733440469348;0.19292710877125538;0.0
1.138129141484548;-1.1527594142445126;1.2953379426963545;1.6694564154165201;0.2337319549928007;-1.0386095865604255;0.054630626784756615;0.3102453190277936;0.028862570958867885;0.3680722073171555;0.0333945141225655;0.10604670133578051;0.9306001835160616;0.8660167015601274;1.2244259530650643;-0.8191921984743538;0.20281358475565567;0.0
1.2176555401224514;-1.2803102645391662;1.4826850143908985;1.7703295879217817;0.23521443158946165;-1.0171967743386372;0.05532582882795353;0.3102453190277936;0.028774559902895555;0.2858093134337802;0.0333945141225655;0.10604670133578051;0.9912442208812262;0.9825651054304291;1.3876046635488892;-1.0419448356518355;0.2212007550386009;0.0
1.237678565143992;-1.3056020547036735;1.531848230616891;1.8247027470916302;0.1990838908511843;-0.763773320712226;0.03963439559644626;0.2447726383958697;0.02760632001114886;1.1581370933521038;0.029060874885286025;0.10604670133578051;0.9740325196025367;0.948739349243266;1.3876046635488892;-1.0403181787014926;0.21671442035176958;0.0
1.1905144274379305;-0.5844311462886373;1.4173246019378631;1.5403123625691042;0.16264314647403197;-0.857079666600776;0.026452793094973417;0.2203505249303186;0.02116701005802624;-0.9401260255412385;0.03415927398796781;0.0672988681553992;0.9492344727388852;0.9010460842358693;1.1616878928972065;-0.3382080096345015;0.21642217312033699;0.0
0.9981767606190158;0.8598420055389175;0.9963568454398721;1.2816814752146963;0.13957700767216194;-0.8889690192452456;0.019481741070714754;0.17094904472597916;0.0206280019514184;-0.7386493504872779;0.030335474660956457;0.0672988681553992;0.7929348433196105;0.6287456657502953;1.0048651155531045;1.4104467317738403;0.18894714643237476;0.0
0.710389980166906;-0.7870709776613877;0.5046539239215371;0.9134271807806251;0.14422390514807365;-0.6850107010003664;0.020800534816160544;0.17094904472597916;0.019051000063661994;-0.19325901631923442;0.023452635872336085;0.0672988681553992;0.53597924597667;0.28727375211771977;0.5990295642422909;-0.6465204727785249;0.132700044857382;0.0
0.7292829196990811;-0.7688333811467398;0.5318535769648164;0.9134271807806251;0.16901278111879114;-0.3636238802280711;0.0285653201815084;0.173886003324478;0.01999791498761049;-0.6271129663346977;0.029825634750688286;0.0672988681553992;0.5414364964109467;0.29315347964576116;0.5990295642422909;-0.6595251611899003;0.1339366716942179;0.0
0.6236017650665118;-0.16303903034526382;0.3888791613940689;0.7375511056557129;0.18977143028168392;-0.7528856586735628;0.03601319575115602;0.19719233134821712;0.02011886567929725;-0.21261049521369274;0.02651167533394515;0.0672988681553992;0.4489672625838032;0.2015716028719937;0.40482388324446195;0.14998180244271503;0.11333415609072077;0.0
0.5950706676716435;0.28332023609928253;0.35410909952317565;0.7375511056557129;0.2103117574083385;-1.3863177881107276;0.04423103530418382;0.3321260033771982;0.01574561863625707;-0.6276857961454949;0.020138676455593;0.05200367084735391;0.40247773911892326;0.16198833048628003;0.40482388324446195;1.3558291869596348;0.1025412335629902;0.0
0.5947384480820163;0.2873030741185485;0.3537138216270051;0.7375511056557129;0.21003965311580952;-1.4624216339861122;0.04411665588100959;0.3503933436302309;0.01655231782551412;-0.15978263503788398;0.021158356276129348;0.05863158968084021;0.4144648083170612;0.17178107733329828;0.5259963635238409;1.097786355074623;0.10628643722650688;0.0
0.5949217851275197;0.30748339305250927;0.3539319304193147;0.7375511056557129;0.186418408410401;-1.3413955320043303;0.034751822994267066;0.34643048855286374;0.016539092078069948;0.23549712615372048;0.023643825838686627;0.05863158968084021;0.41263368286470486;0.17026655623448983;0.4976867950528221;1.5484642811502232;0.10654114632194898;0.0
0.5513417336512212;0.8743083585294295;0.3039777072655341;0.5739082392834014;0.1550765176986274;-1.846348786562134;0.0240487263415327;0.3115339641832553;0.01694581589241688;0.15368821982850261;0.025173345569491152;0.05863158968084021;0.397959094520908;0.15837144091190097;0.36228047127901597;1.8247111200219452;0.10195860381902809;0.0
0.5449649113059104;1.0155448994205376;0.2969867545546588;0.4892590282665177;0.14583368416232642;-1.3382337037974623;0.021267463436357173;0.2623559181881854;0.016215888890383306;0.4579874836496995;0.023197715917201978;0.05863158968084021;0.4005449158912808;0.16043622964635318;0.40801131223149634;1.758865755048497;0.10275486960468518;0.0
0.48296300201177;2.1273766029360495;0.23325326131222096;0.4615003752658211;0.13988547065235077;-0.5028922384489893;0.019567944899629687;0.1601184136748941;0.017236626326558733;-0.5452021428349118;0.023962475782604273;0.05863158968084021;0.3756846499748527;0.14113895622672756;0.3847891186194152;2.458054619317056;0.09579786094092058;0.0
0.5107294224322225;0.4712934794697509;0.2608445429379516;0.5373041555007161;0.12561816561113476;0.151321302214062;0.015779923531506482;0.11217147583852283;0.017975171093420478;-0.48306039231065306;0.025173345569491152;0.05863158968084021;0.42238727481946703;0.17841100992941594;0.4440035303216865;0.4802968345667554;0.10451805831807964;0.0
0.5432309276533857;0.21771878678326162;0.2950998407591579;0.5689602001531364;0.1464447615457776;2.3209825450309256;0.021446068184199665;0.13001820887852888;0.01648255891552576;-1.209256919266975;0.025173345569491152;0.049454471296013;0.4794865439160473;0.22990734579655553;0.49806250060435797;0.21406975068266926;0.12046741918051908;0.0
0.7218975257507443;1.228498256618878;0.5211360376850466;0.596718853153833;0.1846284470610405;2.052491828012704;0.03408766346417144;0.14935853166111634;0.02006077618047993;-0.8892160107137802;0.028487304986234325;0.0627103089629856;0.676876202265296;0.4581613931930899;0.5270597527070935;1.5786330030977946;0.17551001663427668;0.0
0.7776649286420313;0.21998337108203966;0.6047627412398157;0.6320905660325051;0.23424853100837853;0.3260237814873234;0.054872374279583275;0.18225793214406716;0.019818123152081007;-0.6401642871912802;0.027722545120832023;0.0627103089629856;0.7515188317531397;0.564780554479604;0.579135892184456;0.10844198726835606;0.20147038804796122;0.0
0.6823326106027567;1.324063598014109;0.4655777914919732;0.4534538282997955;0.31205087504999957;0.22712302112926372;0.09737574861947045;0.38821482274198527;0.01993611501248389;-0.6627654919714934;0.027722545120832023;0.0627103089629856;0.6656618759382461;0.443105733077625;0.46630045947632315;0.8415780002679007;0.18386287414086247;0.0
0.6840541307797815;1.2943437018422856;0.46793005383688246;0.5169412149795267;0.436425968575462;0.9082068494906966;0.19046762604703016;0.5283762905895548;0.019598402636516216;-0.6134583123209426;0.027722545120832023;0.0627103089629856;0.6996479385171231;0.48950723787126016;0.6659224329407736;0.13087388407944014;0.19931874700537977;0.0
0.6577614964736017;2.3019488946388353;0.432650186243192;0.5493967753093294;0.5794940546777108;0.44272819185573997;0.33581335940681356;0.6686271324700672;0.023985998312757384;0.10450358660413284;0.02555572550219228;0.08718262465585791;0.7057680755027407;0.4981085763988423;1.005940587888925;0.25910090776038147;0.20909874001218487;0.0
0.938387973054378;2.105444645020082;0.8805719879731041;0.657162058472323;0.7321117164255428;-0.08748195745428436;0.5359875653275545;0.9017007717367664;0.02591933457162665;-0.3113095779631294;0.02555572550219228;0.08718262465585791;1.059998000561756;1.1235957611949206;1.064058722803551;2.2367499759019314;0.33895105411755583;0.0
1.0542931090782863;0.3398838152799486;1.1115339598499594;1.044250770772568;0.8602776711909916;-0.6853493753474272;0.7400776715497959;1.2737775131047882;0.027935939600325265;-0.8601079810774656;0.03441419394310183;0.08718262465585791;1.1927651598310833;1.42268872650687;1.142448701512889;0.2858291969275721;0.41093690913373637;0.0
1.1238430562204318;-0.357421804571803;1.2630232150148806;1.5041153805709473;0.9506306626561113;-1.2122274686385919;0.9036986567819973;1.493919419254421;0.03066626153444626;-1.2636197346001539;0.051366370959518626;0.0897318242071988;1.249979320784952;1.5624483023900104;1.532532695437017;-0.4474223236819373;0.46768538280171595;0.0
1.305500186599262;-0.46506682401013805;1.7043307372107075;1.8830882888638762;1.0069692744082128;-1.5791717020053067;1.0139871196022028;1.713310765670779;0.03311629259018737;-1.456833265321146;0.05327827062302423;0.0938105434893442;1.3175537797790233;1.735947962609991;2.2131576254818377;-0.7215770707160472;0.5423344256214832;0.0
1.5005672070043037;-0.42434873983128796;2.251701942736697;1.77666977974431;1.0255172332459634;-1.7535942551496742;1.051685595684456;1.8965478087084868;0.03126644446488409;-0.7718329273777353;0.04435607219333115;0.0938105434893442;1.303815921239075;1.699935956476498;1.7395393861369604;-0.3521935485395292;0.588139762359438;0.0
1.318091849953298;-1.2349534634501746;1.7373661249133077;2.122044134600348;1.0088668622864718;-1.7416008347335352;1.017812345819751;1.886734192437502;0.03162315413294156;-0.7366721735862737;0.04435607219333115;0.0938105434893442;1.047755099275552;1.0977907480579219;1.6240164659299583;-1.7064982137638787;0.5526590029445738;0.0
1.595586691547026;-0.21060977235874564;2.5458968902419845;2.3127507957866618;0.9862259100568804;-1.4467900238583025;0.972641545667522;1.6347429136343707;0.0389418914121103;1.6917208940039838;0.04193433261955733;0.157030692362598;0.9773972583997829;0.955305400727412;1.5751953804747392;-1.4845425022991685;0.5338565928136354;0.0
1.6564662982792344;-0.7654376207993967;2.7438805973349094;2.5880293435315824;0.9390985210030085;-0.9359411257932341;0.881906032150038;1.3202852173982966;0.032823507197719724;1.9099927853729215;0.025237075558274574;0.1233812582848984;0.9664971758595197;0.9341167909444272;1.5751953804747392;-1.2433923475452249;0.5466070322095282;0.0
1.6016318350101908;-0.42056051120659516;2.5652245349181113;1.8280659204066467;0.8363505446990777;-0.4320842416028313;0.6994822336184439;1.095620147834688;0.03154933865936653;1.1925935796212437;0.023197715917201926;0.11726317936168029;0.9266334687356068;0.8586495853809829;1.4693135879524086;-0.6074472987428748;0.5454804197125949;0.0
1.3823130973769457;0.07490441815217473;1.9107894991798453;1.3393008225636946;0.6770949038140507;-0.001546796462599155;0.4584575087709586;0.7907590323653122;0.030861366584973914;0.6463421707062348;0.0316100744366269;0.11726317936168029;0.7269001659218504;0.5283838512172135;0.9408160523841143;-0.9985692561907923;0.476247256526078;0.0
1.2158174111615823;0.8953635255823826;1.4782119772836517;1.2725189699289539;0.5279712199296249;0.4892999378527533;0.27875360907397634;0.5447323231204046;0.025822637642364737;0.4790901665380457;0.03352197410013257;0.0856531049250534;0.6322134087200035;0.39969379416536627;0.5978375024355509;0.1109303103476811;0.4551472489564601;0.0
0.9840822844719389;1.273618799832936;0.9684179426115102;1.2440068423123214;0.39414301164585647;0.4042228327263918;0.15534871362926575;0.4040237973017706;0.030298905653421356;0.2353123904893127;0.03543387376363817;0.11216478025899851;0.5053553948741838;0.2553840751284422;0.4465413157827576;2.0618645678858103;0.39938109419199963;0.0
1.036675788982418;-0.1219953096847064;1.074696691462319;1.7536391600374763;0.29294024208960645;0.05103695839767523;0.08581398543551723;0.3230314771026592;0.032062355579079466;-0.2170909635369027;0.040787192821453995;0.11216478025899851;0.4634577347817758;0.21479307192905484;0.45263732371853926;2.379055707436582;0.3460796175088068;30.0
1.2127477163809646;-0.4451207587286951;1.4707570235872447;1.3202207198042233;0.23408597685787194;-0.601538078202792;0.05479624456150416;0.306209768621168;0.03542428587561012;-0.6423887071139859;0.046395431834403894;0.1152238197206076;0.5973215107536989;0.35679298720908115;0.5319416761901647;0.5350140192825185;0.40451530475830033;30.0
1.2606486182395056;-1.024570495015347;1.5892349386691746;1.618387719365384;0.2161842724070766;-0.9211855170392722;0.046735639636177106;0.306209768621168;0.040004396047938484;-0.9444468665018664;0.059651269501376475;0.12949933720811652;0.6425270041440961;0.4128409510543874;0.8583557502298849;-0.8546552074102554;0.40578144370323693;0.0
1.5102672962538726;-0.909389764623411;2.2809073061339826;2.3887705046010144;0.23550816039511305;-0.6970656686301248;0.05546409361269029;0.306209768621168;0.039982337151756316;-0.8984448448552516;0.059651269501376475;0.12949933720811652;0.8193463628415693;0.6713284623017085;1.30390950604887;0.5043499427067578;0.4495853100144578;0.0
1.587153293688646;-1.3819315457686123;2.5190555776667174;2.5581532866654584;0.2663956952653607;-0.793166786648491;0.07096666645591494;0.3270587710187549;0.03980750364005793;-0.9025243353390332;0.059651269501376475;0.12949933720811652;0.8200549898473658;0.6724901863735632;1.1502921216118245;-0.2774830841549961;0.4205525288015759;0.0
1.6089481918394943;-1.348498282331761;2.588714284023578;2.7745547807641455;0.3049125952440728;-1.1653654329498182;0.09297169073847579;0.4229477454758974;0.04216249301265807;-1.2492344305079146;0.07061282757214227;0.12949933720811652;0.7843073005957436;0.6151379417677821;1.1767710962298699;-0.5282496079164907;0.37518528649265936;0.0
1.7463555013299614;-1.4429672481417157;3.049757537025421;2.7985602788313253;0.33935612222369327;-0.9772741484625537;0.11516257769070223;0.4708464357163854;0.03711425290873741;-1.2523538855203944;0.059651269501376475;0.11114510043846221;0.9160186081418725;0.8390900904621733;1.199869069206032;-0.9171549259057757;0.41706786472147067;0.0
1.78171481492855;-1.4003287017992707;3.174507681735877;2.874990209530062;0.34115864155732517;-0.8975925872027094;0.11638921870923946;0.5281869397926625;0.03846095183014656;-1.5654213023370729;0.06882838788620363;0.11114510043846221;0.9114024529883571;0.8306544313131945;1.2574556622917465;-1.0733980058272745;0.3959200462399316;0.0
1.5773124458099275;-0.6433051078238136;2.4879145517068952;1.9539190350349693;0.31020792596250224;-1.5473400554270165;0.09622895732995729;0.5229474554529834;0.03624419243748608;-1.1690717144744016;0.05557255021923103;0.11114510043846221;0.9079481001979259;0.824369752653023;1.328514939674017;-1.0284212120036815;0.380828856817235;0.0
1.3213491608907173;-0.45130966730127964;1.745963604986603;1.6428733951330259;0.31511236347521937;-1.338802950699616;0.09929580161493877;0.5330375604740487;0.03283799258327846;-0.47166628354226214;0.04996431120628113;0.11114510043846221;0.9474802893923743;0.8977188987870572;1.4124831395490849;-1.1411980551045589;0.40258516748408424;30.0
1.1854223856003212;-0.1454537720969995;1.4052262322823565;1.6428733951330259;0.2870738485284629;-0.698707903435694;0.08241139450894287;0.4436741434941202;0.0379667387500038;-0.3306005931500212;0.04996431120628113;0.1213418986438257;0.9590648056035291;0.9198053013473352;1.4124831395490849;-1.127360249289412;0.4088279692851377;30.0
1.260960358714473;0.5870457990032663;1.5900210262493326;1.6428733951330259;0.2328991821259099;-1.0676608350646064;0.054242029034917746;0.3465045565775012;0.0366830102636812;-0.09444811635107157;0.0405322728663199;0.1213418986438257;0.987781295178518;0.9757118871045504;1.4204544831135988;-1.1143068721711162;0.4245510164574432;30.0
1.6243968570468093;0.39570318757724926;2.638665149183552;1.7725362538554297;0.2284932597027243;-1.2028845756442612;0.05220916972957661;0.3465045565775012;0.0379638340915481;-0.3220553365762795;0.050729071071683396;0.1213418986438257;0.9723487082760737;0.945462010486149;1.2492612905000071;-0.9538576512093786;0.4145290770556614;30.0
1.884707710678784;-0.9252311777270626;3.552123154692063;2.2874418560460885;0.23236504859832524;-1.1834023513008163;0.053993515810102054;0.3465045565775012;0.03611473268528272;0.01221880427441546;0.033649434077699505;0.1213418986438257;0.978812000230432;0.9580729317950993;1.2492612905000071;-1.108414983704578;0.4318028803625623;30.0
1.9962820014853488;-1.637815440663565;3.9851418294543506;3.499486963201426;0.24647722175733786;-1.3338918564282798;0.06075102084521591;0.37597977315668;0.03176180876198948;0.45991455053920477;0.02026613643315995;0.10808606097685311;1.0191037968011258;1.0385725486544704;1.5966296056355838;-1.3826661206539226;0.46947933622770605;30.0
2.1042241321214386;-1.6869248920923885;4.427759198202222;3.730749740804511;0.26244035201704613;-1.7331534324896962;0.06887493836683109;0.5346352983713376;0.03172086266941946;0.4636016386865808;0.02026613643315995;0.10808606097685311;0.9170346179980151;0.8409524906067655;1.4916701609616891;-0.9977210231970951;0.4425003308703036;30.0
2.118882329877021;-1.6375457037192875;4.489662327865072;4.15551658694558;0.26461015223684103;-1.8297464596122717;0.07001853266680418;0.5346352983713376;0.031644039286740866;0.5666308322559385;0.0172070969715509;0.10808606097685311;0.9053660315900341;0.8196876511570866;1.4916701609616891;-0.6688186059646607;0.45559888401643595;30.0
2.031982746374115;-1.0472235352657877;4.128953881562091;2.981377802229216;0.26303725098187763;-1.7788635337069063;0.0691885954041033;0.5346352983713376;0.0271706088677624;3.047678348586185;0.013893137554807774;0.10808606097685311;0.915666823017482;0.8384457307749287;1.464992286471386;-0.16622297200068867;0.4948213126928865;0.0
1.7051534153629049;-0.3402036177294696;2.9075481699237793;2.4177298962607194;0.251383966564602;-1.438167610186902;0.06319389864575292;0.48025206061391246;0.026845126387758718;3.529992526401408;0.013638217599673675;0.10808606097685311;0.7230765525756947;0.5228397008847514;0.9131044311534553;-0.834181418347078;0.4465725719361127;0.0
1.5345613003213343;1.0023555201597585;2.3548783844439045;1.257129434247647;0.23033188868410936;-0.7367485927744143;0.05305277894478894;0.3425380420125694;0.024386669469119774;5.10108558865625;0.009814418272662398;0.10808606097685311;0.6957881043315065;0.48412108612923144;0.9131044311534553;-0.9482568108378985;0.4338837903665376;0.0
1.0881872373035508;0.4430401142766085;1.1841514634303343;0.7414813610910546;0.21766603532849682;0.3704172673104027;0.047378502935626426;0.28521638357778967;0.026154031465120475;3.93205228899381;0.013638217599673675;0.10808606097685311;0.5848330593468123;0.342029707304952;0.7110573416225681;0.10249556459342052;0.39188479258341413;0.0
0.8847272763556019;2.284415215499856;0.7827423535276015;0.7161060931472262;0.17236552987557913;-0.6201760944530924;0.029709875889289163;0.25145566154725785;0.027145847022476896;2.425030241396773;0.013510757622106625;0.10808606097685311;0.5796283311050561;0.3359690022196325;0.7694423710073302;-0.33911617424618484;0.3719816729918166;0.0
0.6185620472690545;-0.7393145055447861;0.382619006321684;0.8393007605301038;0.15126951903896346;-1.374497848238212;0.022882467390279326;0.2293386453528251;0.023843678865378467;1.1173518846342283;0.013510757622106625;0.0917711838482715;0.5843987216140621;0.3415218658241501;0.781237413653374;-0.9253727665457575;0.35016938799565334;0.0
0.7899827732908766;0.8275130030496882;0.6240727820963446;1.0227135995836718;0.15748290671429757;-0.8772018889427897;0.024800865907184153;0.21726680175313984;0.023324658788614703;1.5113840798057323;0.0096869582950953;0.0917711838482715;0.7555845687173415;0.570908040483771;0.924901922869839;1.0312203011737975;0.3986865932852941;0.0
0.8429383685853906;-0.48679425940751203;0.7105450932333999;1.2625289807755726;0.24816347570037217;2.696988659935197;0.06158511067168921;0.26866903449832424;0.01886950417008843;3.142294656496438;0.008667278474558974;0.0805547058223717;0.8311812024318614;0.690862191276075;1.0908552257231339;-0.5007125982612156;0.4130699980379554;0.0
0.9134603202608793;-1.280545771376168;0.8344097566911082;1.5089314148979025;0.3290774548837644;0.7707985915879533;0.10829197131277599;0.3222956953119682;0.018913909196423516;3.0987018501641663;0.008667278474558974;0.0805547058223717;0.9250957137832531;0.8558020796601465;1.3625894519391548;-1.2719008910843392;0.4293545213102122;0.0
0.8796806904905133;-1.2264772710893508;0.7738381172218664;1.3140968130654969;0.38998708834999646;-0.6853888062621031;0.15208992907970795;0.4494167064974852;0.01953909339144598;2.086789095581087;0.012236157846436198;0.0805547058223717;0.9222835085397119;0.8506068701243208;1.5484183923779935;-1.3658572853410804;0.3984124675447976;0.0
0.8810242792233604;-1.2401177817935742;0.7762037805810416;1.3140968130654969;0.4270945066317925;-1.524786841436931;0.18240971759505423;0.8280353253306738;0.01949368807191995;1.9742976672377153;0.017589476904252076;0.0805547058223717;0.9353094254742815;0.8748037213810306;1.5484183923779935;-1.466363112686475;0.39817782648289507;0.0
0.9423753954616735;-1.1722087510689467;0.8880713859715456;1.3198018899508175;0.45107923447344167;-1.7277094185085076;0.20347247577314614;0.7808319845649492;0.01966126414968564;1.8429793731694013;0.017589476904252076;0.0805547058223717;1.0010519536983888;1.0021050140033614;1.4782391180771937;-1.1871036551592364;0.39475260991390704;0.0
0.8776492532354176;-0.5518751511229115;0.7702682117046863;1.1676248793822595;0.44123901998023823;-1.6847484003331796;0.19469187275312105;0.7148744298380154;0.01954856474230206;1.8412567397006758;0.018099316814520226;0.0805547058223717;0.9332837677679349;0.8710185911791125;1.3075703934057437;-0.524531715895647;0.33816121319683873;0.0
0.7584467585856995;-0.2856743411521008;0.5752414856091543;1.0548208798058765;0.4083392150108747;-1.7320645781473047;0.16674091451569736;0.6925337234481102;0.020520660546036584;0.9426605146111197;0.024217395737738373;0.0805547058223717;0.8020146333384082;0.6432274720889413;1.0639780453168783;-0.4632666114925276;0.26657430712308705;0.0
0.8068116897521584;-0.3864990365522955;0.6509451027207332;1.1735639622845992;0.38063173958517765;-1.5359187346080982;0.14488052117963848;0.7220244827448024;0.022388494119238853;0.12448684606643559;0.027786275109615628;0.0805547058223717;0.8529315614137791;0.7274922484557472;1.0401314518044837;-0.308261801827159;0.272512817524309;0.0
0.6327977792383345;-0.16029458768583582;0.40043302940896786;0.8317430514713791;0.3657085155111509;-0.7272750719350881;0.13374271831736972;0.40615318348815577;0.02020481574632556;-1.1894484824305733;0.03237483430202913;0.057102069950035694;0.6795074063093014;0.461730315229194;0.7019882642686293;0.4061990409990288;0.20538823445569646;0.0
0.5408622824173778;-1.2107333562605516;0.2925320085417353;0.8317430514713791;0.3219403322632352;0.6897167037941662;0.10364557753776227;0.24896959583128986;0.020185508889811486;-1.0872198520343443;0.03237483430202913;0.057102069950035694;0.5314674704959521;0.28245767219536577;0.690799067646946;-0.055270030280749755;0.15658569465444086;0.0
0.4637316685218643;-0.8149705860857769;0.21504706039007224;0.7112933537307424;0.2622396971473677;2.552561374480529;0.06876965875994313;0.24896959583128986;0.018356114240639827;-0.11308165343535026;0.02319771591720197;0.057102069950035694;0.4102642386747822;0.16831674553539863;0.5940977073145901;-1.1282493110459295;0.1180858500576927;0.0
0.44951929222970016;-0.6246744346950859;0.2020675940866906;0.5925502712520196;0.2315985574231228;0.9494467409704352;0.05363789180047151;0.24896959583128986;0.01800255195752685;-0.5430105877545492;0.02842357499745083;0.057102069950035694;0.4082762333212502;0.1666894826949879;0.5940977073145901;-1.0706292781289846;0.11798483329769853;30.0
0.47475229379608547;-1.1062821851810831;0.22538974046464466;0.6918714525221303;0.25471611030956376;0.006908220051667513;0.06488029685123387;0.2505504538262151;0.01860799267032098;-1.041610539226215;0.02307025593963498;0.057102069950035694;0.44894788773422245;0.20155420590102002;0.6488584927912204;-1.141620768886813;0.13092880268843127;30.0
0.5774932101367379;-0.9614828941455572;0.33349840775403455;0.9207075609981112;0.30889307086488155;-0.7117090729748649;0.09541492922833675;0.4082401037860399;0.020960963795868502;-0.23960531013420716;0.02307025593963498;0.0723972672580808;0.5862511042251202;0.34369035720517266;0.8662706206985202;-0.10761655782786761;0.1767713734315021;30.0
0.7667618822116753;0.027914800903286303;0.587923784012791;1.0193449219672388;0.3463252063461184;-1.4857999782023952;0.11994114855068151;0.5873073237660129;0.021735796749124948;-0.739402821710798;0.032247374324462175;0.0723972672580808;0.7764948307240722;0.6029442221412056;0.9282866385961808;0.18669126645482506;0.2440884109339968;0.0
0.7818953938781474;-0.33298056878407023;0.6113604069678633;1.152384819326301;0.3850486881903795;-1.8348011718465531;0.1482624922771321;0.6917932619405078;0.02444860663016525;-1.165889512418334;0.033904354032833726;0.0723972672580808;0.8121032531598571;0.6595116937928229;1.1217176988947717;-0.5607585115673405;0.2589869504853953;0.0
0.8377748190927278;-1.0946307062750824;0.7018666475058528;1.2137208188067596;0.4272928893911407;-1.6917611926998644;0.1825792133242296;0.7672269821414721;0.024024359011162868;-0.8711753704854623;0.032247374324462175;0.0723972672580808;0.8897479206874217;0.7916513623675904;1.3704678278264302;-1.1647976061948744;0.3022537909222761;0.0
1.2720912520333638;2.3783567828492855;1.6182161534998114;1.3417115954853163;0.5095955727676605;-0.8081831651622577;0.2596876477844;0.7944689066158028;0.02577806370842469;-1.4521650302727815;0.036963393494442755;0.0723972672580808;1.0130207377856812;1.0262110151838462;1.4983498980104402;-1.0860683113742444;0.3729740061043356;0.0
1.258769212318422;1.329674289650291;1.5844999298807407;1.6288183645968082;0.5929392783125894;-0.41083608100270164;0.3515769877658544;0.651548707641166;0.025403159477836945;-1.3475749535270065;0.036963393494442755;0.0723972672580808;1.068016441540734;1.1406591194013322;1.7377055251561877;-1.1398644437282;0.43520144364181057;30.0
1.42509742365282;0.08714444642311794;2.030902666901905;1.4978974429370402;0.6447588966255318;-0.42143786262563293;0.4157140347777732;0.6314827336825791;0.025158886663586587;-1.1840774504896274;0.04320893239522783;0.0723972672580808;0.9927198790928747;0.9854927583461719;1.5490209017002654;-1.5249880800732645;0.45048749711336133;30.0
1.6073861133868415;-0.8164892614174032;2.583690117508856;1.8954174362653275;0.6149754629651389;-0.8180267919031533;0.37819482004918703;0.8785208438409079;0.027462890824402925;-0.032988707439548966;0.035051493830937024;0.0978892627714896;0.9018535107773796;0.8133397549014852;1.3508748416162417;-1.3392979004168748;0.4438712765091721;30.0
1.7524723829358453;-1.4781614110914476;3.07115945295284;3.155232812666089;0.5458664420067345;-1.6524926387073002;0.2979701725090917;0.94372086488526;0.03274854893614382;-0.39797065411809235;0.0388752931579483;0.1080860609768531;0.8666681776824836;0.751113730207477;0.9869798883596763;-0.7310061955801808;0.4517399534506143;30.0
1.7275837725054732;-1.6461502694482328;2.984545691024243;3.0469278248902167;0.4912949824088329;-1.7694076483176329;0.24137075974009542;0.9136683161760248;0.03295221224100478;-0.551899241195212;0.0391302131130824;0.1080860609768531;0.7688085213754441;0.5910665425394968;0.9031084611434068;0.6710649793265544;0.4377462603903538;30.0
1.5707451030121211;-1.948692204938941;2.467240178636559;2.7241360608496272;0.4598961633981293;-1.4692637645745341;0.21150448110831882;0.8466664686797736;0.03284566754727622;-0.5380851140678791;0.0391302131130824;0.1080860609768531;0.5614920443738416;0.3152733158951161;0.44413960455613877;0.3101531447995828;0.35453036073072225;30.0
1.443105149707899;-1.76516623443138;2.082552473113458;2.4442974404841893;0.40317455824536963;-1.3024990491079178;0.16254972441634893;0.689811626924173;0.035943768460014416;0.04174059596261246;0.0391302131130824;0.1274599775670438;0.4274737435643271;0.1827338014369001;0.29737940951591413;0.46681343582179946;0.29172122718451615;0.0
1.5538959824208667;-1.3706128286136505;2.4145927241837106;2.4442974404841893;0.3681354361755501;-0.9462774797777241;0.13552369936816253;0.5529563235996622;0.03620643923509188;-0.041035664263072626;0.04116957275415513;0.1274599775670438;0.5303204789538675;0.28123981039785934;0.29737940951591413;1.4957929951221072;0.3502096683136737;0.0
1.5434922321909512;-1.2919059983935;2.382368270833805;2.327816387896574;0.3266939022815345;-0.9430152271060794;0.1067289057879368;0.5298954440940868;0.03740030188608253;-0.5151404883482094;0.0491995513408789;0.1274599775670438;0.5372705904062953;0.2886596873155291;0.36997254106784294;1.618124849335822;0.36178381537731163;0.0
1.383554505351052;-0.04927314117206771;1.9142230692771947;2.0973655839747307;0.2807465497109117;-0.9958697047173202;0.0788186251745814;0.45732628376872614;0.0398792672224989;-0.9260471488815237;0.05990618945651055;0.1274599775670438;0.5113064910527652;0.26143432779269143;0.4653207499371972;4.388651966247713;0.378478868481566;30.0
1.3873374445393898;1.4705188933564242;1.9247051850210846;1.1240946605373143;0.2563746704071127;-1.153684427701423;0.06572797162635567;0.35314731555424844;0.03995097583297275;-0.6050982793451485;0.06895584786377068;0.1274599775670438;0.5792532079207564;0.33553427888648707;0.4653207499371972;1.363894015048638;0.4102528589563381;0.0
1.384936109322097;1.4389910527466985;1.918048026904228;1.1240946605373143;0.28572755629945806;-1.4994128139627014;0.08164023642885997;0.416266433572091;0.039983494561478684;-0.6545046703131706;0.06895584786377068;0.1274599775670438;0.5964579637854466;0.3557621025630811;0.5100286569882282;1.120329579550996;0.42785599089823895;30.0
1.3301026582462927;2.6323064929063382;1.769173081473854;0.9268855078841527;0.3231599315640826;-1.3686693834910806;0.10443234136850256;0.4798331172461804;0.046076321121886116;-0.9348005026362235;0.07787804629346376;0.1335780564902619;0.6612173378698206;0.4372083678996525;0.5189591994272407;0.7891165772975436;0.49014465721412054;30.0
1.3805807292160954;1.029488963258119;1.9060031498828458;1.5248448847392297;0.38589794514501224;-0.41016346206710763;0.1489172240671429;0.48225146934152635;0.047782157881476876;-1.461051238739105;0.08221168553074323;0.1335780564902619;0.6693049934210423;0.44796917421834154;0.6565044299748958;0.6651572998405861;0.5018249065244889;30.0
1.3466901795632624;1.2079820241196622;1.8135744397321318;1.4467739098400334;0.4694696850981745;-0.6989333805081054;0.22040178522617912;0.6375126880949515;0.0461963658483192;-1.4256676455312105;0.06666156826756385;0.1335780564902619;0.6690246314463765;0.44759395748195985;0.5229502555020545;0.921780187086957;0.51620377724993;0.0
1.4869729722116574;0.7194447260983067;2.21108862008797;1.4467739098400334;0.5599240358711448;-1.1820956016809885;0.31351492594623104;0.8181376786283796;0.04475065946042257;-1.5041349158224977;0.06666156826756385;0.1233812582848984;0.8254074692184918;0.6812974902416756;0.7121987596412443;-0.14659246086473307;0.5834829148145197;0.0
1.555777914582296;0.31483049972655974;2.4204449195020383;1.7008773617368051;0.6922071558254876;-0.700600836846812;0.47915074657601087;1.0666742242754057;0.04562314070043195;-1.622255655400203;0.0731620271234831;0.1233812582848984;0.8980367544928448;0.8064700124200421;1.5021145040291217;-1.2029248493481317;0.5884567225992986;0.0
1.6161448992342384;-0.44122729197184124;2.6119243353208463;2.311901016584433;0.853709240249331;-0.2324088216033835;0.72881946688709;1.197306180384297;0.051507825540599385;-1.3128117118113074;0.08488834505965115;0.157030692362598;0.9215236557902866;0.8492058481810946;1.5021145040291217;-1.586114218847948;0.5752717234307869;30.0
1.6107596638859696;-0.4651066565107764;2.5945466948020415;2.0023214428476686;1.0116901848907227;-0.5497805757233954;1.0235170302042247;1.2667014673353885;0.051251707265153316;-1.018207585457778;0.08080962577750578;0.15754053227286618;0.9465996883163181;0.8960509699205507;1.5996961537346341;-1.8003104518462092;0.5587414743640546;30.0
1.5844303629450787;-1.0927106820497676;2.510419575022274;2.7347453847387273;1.0838768613210743;-1.0513730408558362;1.1747890505072232;1.5253170085853658;0.051403328629147975;-1.026931682765011;0.08080962577750578;0.15754053227286618;1.2009776730289194;1.4423473711139583;1.5996961537346341;0.12937141733940508;0.6546510549138408;0.0
