acc_X_std;acc_X_kurt;acc_X_var;acc_X_iqr;acc_Y_std;acc_Y_kurt;acc_Y_var;acc_Y_iqr;acc_Z_std;acc_Z_kurt;acc_Z_iqr;acc_Z_range;acc_std;acc_var;acc_iqr;acc_kurt;acc_cv;class
2.953282839706939;2.2027188667763187;8.721879531307481;2.9874784977649327;1.0968376927751335;1.6687248390137281;1.2030529242922783;0.9983689161157343;0.020912325070720633;-0.21621564247987457;0.03262975425716326;0.0642398286937901;1.878282630307094;3.527945639313336;0.8764566826220865;8.13238894693525;0.5598546082962983;30.0
2.953282839706939;2.2027188667763187;8.721879531307481;2.9874784977649327;1.0968376927751335;1.6687248390137281;1.2030529242922783;0.9983689161157343;0.020912325070720633;-0.21621564247987457;0.03262975425716326;0.0642398286937901;1.878282630307094;3.527945639313336;0.8764566826220865;8.13238894693525;0.5598546082962983;30.0
2.953282839706939;2.2027188667763187;8.721879531307481;2.9874784977649327;1.0968376927751335;1.6687248390137281;1.2030529242922783;0.9983689161157343;0.020912325070720633;-0.21621564247987457;0.03262975425716326;0.0642398286937901;1.878282630307094;3.527945639313336;0.8764566826220865;8.13238894693525;0.5598546082962983;30.0
2.953282839706939;2.2027188667763187;8.721879531307481;2.9874784977649327;1.0968376927751335;1.6687248390137281;1.2030529242922783;0.9983689161157343;0.020912325070720633;-0.21621564247987457;0.03262975425716326;0.0642398286937901;1.878282630307094;3.527945639313336;0.8764566826220865;8.13238894693525;0.5598546082962983;30.0
2.953282839706939;2.2027188667763187;8.721879531307481;2.9874784977649327;1.0968376927751335;1.6687248390137281;1.2030529242922783;0.9983689161157343;0.020912325070720633;-0.21621564247987457;0.03262975425716326;0.0642398286937901;1.878282630307094;3.527945639313336;0.8764566826220865;8.13238894693525;0.5598546082962983;30.0
2.953282839706939;2.2027188667763187;8.721879531307481;2.9874784977649327;1.0968376927751335;1.6687248390137281;1.2030529242922783;0.9983689161157343;0.020912325070720633;-0.21621564247987457;0.03262975425716326;0.0642398286937901;1.878282630307094;3.527945639313336;0.8764566826220865;8.13238894693525;0.5598546082962983;30.0
2.953282839706939;2.2027188667763187;8.721879531307481;2.9874784977649327;1.0968376927751335;1.6687248390137281;1.2030529242922783;0.9983689161157343;0.020912325070720633;-0.21621564247987457;0.03262975425716326;0.0642398286937901;1.878282630307094;3.527945639313336;0.8764566826220865;8.13238894693525;0.5598546082962983;30.0
2.9094480741237305;3.0575391929910753;8.464888096022285;2.6184513163872403;0.7504743147544254;1.4709383164305943;0.5632116971061244;0.8677041101064953;0.03179445799138941;1.9666138595770803;0.03543387376363823;0.10604670133578051;1.9440907979310524;3.7794890306001965;1.0751069795278716;8.02537749883633;0.6133548387979275;30.0
1.9015556134143783;-1.3719554780591203;3.6159137509077324;3.3303661706934538;0.5809978937401741;-0.9215710319440701;0.33755855253051864;0.8677041101064953;0.031348716447940045;1.3310689433909988;0.03900275313551546;0.10604670133578051;0.7955717451898546;0.632934401744431;1.4608045833754577;-1.484988738509183;0.3111323753242609;30.0
1.9059069316473667;-1.4709884448958737;3.63248123210148;3.3303661706934538;0.6226372689102131;-0.3157825502547717;0.38767716863596907;0.8677041101064953;0.03053198406768876;1.5612189845122102;0.03721831344957684;0.10604670133578051;0.9553205069668053;0.9126372710313139;1.4608045833754577;0.09974704360579634;0.3859000556828785;30.0
1.9125642642701242;-1.5213977605506435;3.6579020649631215;3.3592242090779214;0.752252388842178;-0.6950641624747435;0.5658836565187634;1.055339143489035;0.03030410464976892;1.9514468721729359;0.033394514122565486;0.10604670133578051;0.9053615378238414;0.8196795141707511;1.1572818698821101;0.35755268664466183;0.37900872731428176;30.0
2.205756716337132;-1.4273100091614812;4.865362691666366;3.784564118788985;0.8941710758963771;-1.2260177436611703;0.7995419129696846;1.4502865787539938;0.02900114923169772;2.2377079703785134;0.02829611501988373;0.10604670133578051;0.9516796960949274;0.9056942439593335;1.0240714355629459;0.6356480703984447;0.37472287944057225;30.0
2.489277494677123;-1.0795512966833516;6.196502445506012;3.7991098589569154;1.0135078523510397;-1.4383804147047334;1.0271981667772168;1.781462740714904;0.03540457392004591;1.6279074538020357;0.02880595493015191;0.1437748546956255;1.1173171912039455;1.248397705759874;1.2520027096976811;0.37568145142838794;0.4197434592110661;0.0
2.6523618340099118;-1.4632771654427397;7.035023298512423;4.667205733898878;1.1105219171895961;-1.3835907222192794;1.233258928558456;1.8237669405004622;0.042865779479787154;0.9383903745129379;0.02880595493015191;0.16212909146527982;1.1634001281566735;1.3534998581949642;1.4178565758572308;-0.024786567961047643;0.42432704957913825;0.0
2.8287782090565665;-1.82146793372682;8.001986156033276;5.610110364480278;1.1808881491838559;-1.2617553342360321;1.3944968208828727;1.8539882897074782;0.049164997533037935;-0.2096949450153046;0.04486591210359942;0.1651881309268888;1.2213326709223364;1.4916534930622882;1.482150772183596;-0.2420154629500208;0.42498175395068755;0.0
2.6960492858370295;-1.5924609682945554;7.268681751662357;4.789653035485293;1.2149084687901794;-1.2028762509052202;1.4760025875380982;1.8466834771748006;0.058963006161987706;-0.627413210418605;0.08386866523911485;0.19985724482512482;1.2198772427949094;1.4881004874889106;1.482150772183596;-0.23485767658635773;0.4249619760529112;0.0
2.3675432054113132;-1.196880811181314;5.605260829489276;3.875264471634245;1.2232142817795062;-1.1706628415093223;1.4962531791493534;1.8438345073777933;0.05880288145261328;-0.7759339491229424;0.08947690425206481;0.19985724482512482;1.20937884159799;1.4625971825048962;1.6051846285068132;-0.37925605376290655;0.438598361265676;0.0
2.1266193811827616;-0.1916610193396505;4.522509992422153;2.670103366160317;1.2390940154490626;-1.083089222900736;1.535353979121682;1.8325070937828314;0.05856732067344798;-0.6135533698192508;0.08794738452126026;0.19985724482512482;1.2319492993042758;1.517699076056296;1.6051846285068132;-0.4609955237150037;0.43433816348389437;0.0
1.6469637034720166;-0.1092234583646498;2.7124894405542608;2.3375884166707896;1.230653131936795;-1.1941012988920328;1.514507131145843;1.8583187031207387;0.05823958670111664;-0.4022767023317695;0.08794738452126026;0.19985724482512482;1.2498552669634935;1.5621381883563856;1.6051846285068132;-0.48274691838080536;0.4311744721821604;0.0
1.3221517109351995;0.10776811481025056;1.748085146728875;1.555895587530026;1.2112451227624192;-1.3432355367477742;1.467114747415748;1.910788382203548;0.04572418059024925;-1.0900215799998445;0.07813296624859785;0.1437748546956255;1.258015105603598;1.5826020059268315;1.4969216736331132;0.430707611277953;0.39879016332038975;0.0
1.2927369043015258;1.3226486557010952;1.6711687037430922;1.2579172715072318;1.1877784243892868;-1.4087052018707051;1.410817585444697;2.006119237984778;0.04009896860999362;-0.4004517184901848;0.0432089323952278;0.1294993372081166;1.2559181532080823;1.5773304075576002;1.098411597034454;1.909632302208546;0.36442966152251816;0.0
0.9403404511210909;0.2996924951164007;0.8842401640146168;1.2456635752481522;1.1053156721297603;-1.3534901329108822;1.2217227350556636;1.8368482439746208;0.03739503626998632;0.463916669233291;0.03517895380850403;0.1294993372081166;0.9102114339070929;0.8284848544152063;1.090606841044055;-0.4875222417614882;0.23789927536298403;0.0
0.899009849122356;1.6745674398284716;0.8082187088190014;1.010479553852897;0.9813315152083268;-1.1409938747538289;0.9630115427410707;1.4971753008444835;0.03191646210756825;1.799796713424218;0.03466911389823585;0.1294993372081166;0.8084095531253495;0.6535260055843272;1.0186439014547446;0.5781409683722346;0.20199541519120362;0.0
0.8977598916175694;1.6614846450171423;0.80597282299719;1.010479553852897;0.8312543307181757;-0.7033823958821074;0.6909837623377222;1.181369333968485;0.023699705086152517;0.5305885632871682;0.025746915468542853;0.0836137452839807;0.8035703345616264;0.6457252825874842;1.0186439014547446;1.0039503659509093;0.19802362755294114;0.0
0.8171270248077807;2.2012994906525365;0.6676965746712155;0.8173691510839856;0.6681626188538781;-0.2949528010485008;0.44644128523367266;0.8756460710778997;0.023800528535615952;0.32848129200170195;0.025746915468542853;0.0836137452839807;0.7849228547380487;0.6161038878901278;0.950961305638728;1.052736172391033;0.1964631039593241;0.0
0.8409525646449897;0.8448089722674145;0.7072012159829856;1.0525531724792407;0.5415075695042634;-0.6266596607632147;0.2932304478304147;0.8059423693561221;0.025152154434755488;0.0833431176794079;0.03670847353930848;0.0836137452839807;0.8318783856782107;0.6920216485585858;1.0229242452280385;-0.003084601967210827;0.21153206455792986;0.0
0.8535510354418739;0.7250855310538434;0.7285493701038952;1.0906193799525372;0.490979822342439;-1.2194327902447273;0.24106118594741296;0.8059423693561221;0.02477556825334978;0.7387971593309052;0.03390435403283358;0.0836137452839807;0.8391199620175522;0.7041223106563383;1.0229242452280385;-0.05464589429118026;0.21223561467444244;0.0
0.8710779314303914;0.8789003645992302;0.7587767626250497;1.223868827343042;0.49965553896441256;-1.1390957720215042;0.2496556576178176;0.8059423693561221;0.017855428945051634;-1.0527711993273146;0.0257469154685428;0.0540430304884265;0.8179146908625703;0.668984441528814;0.950961305638728;0.6642676241281631;0.20349141041455035;0.0
0.6088936848387712;-0.9233471462350495;0.3707515194365368;0.8348892650998416;0.5546399796855304;-1.2351273277032109;0.3076255070655656;0.8891952617440979;0.020929420875568712;-0.5613264841118791;0.026256755378810948;0.06423982869379;0.6140218840855649;0.37702287413598684;0.8938492298930374;-0.6381642234265889;0.14839196340376726;0.0
0.6176989814558463;-0.042237743366034565;0.38155203169158997;0.6995343688939029;0.6185959271770277;-1.6901120905779536;0.38266092112000655;1.0939778500236716;0.020863266200677473;-0.3694431181704172;0.026256755378810948;0.06423982869379;0.59814541213583;0.3577779340591419;0.7408215120171802;-0.14478089660755383;0.14183784665102778;0.0
0.5628374738242263;1.4027823051943813;0.31678602194083666;0.5880049261312896;0.6604811032427305;-1.7880548673958678;0.43623528774073433;1.1973586738393087;0.0232338078674825;-0.495912436062051;0.0318649943917609;0.0774956663607626;0.570473873176206;0.32544043997666194;0.5334450942423601;1.0134074470893324;0.132542343014075;0.0
0.7621239532145316;0.6624616424018079;0.5808329200633456;0.7566627979823375;0.6681079921005996;-1.4652638613403617;0.4463682891086948;1.143267958256264;0.02421784296160032;-0.6512744053962005;0.0331395941674313;0.0774956663607626;0.8138679289259808;0.6623810057342653;0.7442302217628942;1.3824217225445092;0.1981352391704576;0.0
1.0415256249086973;0.7520524088282475;1.0847756273414524;1.0854576092029609;0.6206664375905901;-1.2933705876808568;0.3852268267513939;1.0067452350579995;0.02621528595082373;-0.483605025274914;0.027531355154481376;0.0825940654634444;1.0701639464853783;1.1452508723571595;1.0191850819525494;1.0788957866559163;0.28126450087938204;0.0
1.3306795590252374;0.2122630437703713;1.7707080888076001;1.586350902346303;0.5817513423470003;-0.6943216600039263;0.3384346243225368;0.7414334120969597;0.026923830700229717;-0.6113245662282963;0.031100234526358628;0.0825940654634444;1.2902694814148716;1.6647953346706017;1.5436170003809138;-0.028000880889113153;0.3729137725200568;0.0
1.3988358791703517;-0.9125207517055054;1.956741816854291;2.1077602343179107;0.5119205641783986;-0.0571917592851163;0.26206266402872996;0.5853589889469428;0.026765234209980317;-0.7830899733586831;0.03415927398796768;0.0825940654634444;1.352641272334811;1.829638411623536;2.2414968826280037;-1.2067716466348934;0.4210443858632467;0.0
1.4123828921063017;-1.2703730886974383;1.9948254339145615;2.301815428181725;0.4560880639076912;0.2605399779788513;0.2080163220390662;0.5706657331739382;0.025245930269015903;0.17956932984049936;0.033394514122565506;0.0825940654634444;1.362043274951762;1.855161882841321;2.4454471589752558;-1.6604227614338878;0.4533386083034312;0.0
1.403161118891796;-1.244903759045945;1.968861125569677;2.301815428181725;0.40537644860549343;-0.6212265227981504;0.16433006508400225;0.5334039394682822;0.023048127083480283;2.144183601187082;0.029315794840420108;0.0825940654634444;1.3381135635950105;1.7905479090769383;2.4454471589752558;-1.5972505655376659;0.461675144942466;0.0
1.4036987646087604;-1.2223338725916917;1.9703702217641599;2.301815428181725;0.3773571243603287;-1.2128606232470918;0.14239839930549658;0.5149591615214345;0.024275019592367504;1.6587264302454439;0.031610074436626855;0.0825940654634444;1.3374674472100843;1.7888191723466595;2.4454471589752558;-1.593860390518276;0.4630507677032283;0.0
1.3507344468536662;-1.0012968649482055;1.8244835459170796;1.9087055280078677;0.341483881683857;-1.2573849201907996;0.11661124144987448;0.5431675585751041;0.024123499115175025;2.3074663952636505;0.030080554705822327;0.0825940654634444;1.2689375585349623;1.610202527460671;2.0389896089283677;-1.306414566478468;0.4522845945812013;0.0
1.3875005235238722;-1.0854234199959136;1.9251577027790192;2.003890762428397;0.3170745546986124;-1.3688885287831751;0.10053627323732335;0.5513343981715697;0.02391361150108813;2.7761595191585178;0.024727235648006527;0.0825940654634444;1.2834757068868308;1.6473098901686498;2.075516201574769;-1.338582515104163;0.455489706990227;0.0
1.379372445681734;-1.0351446013749397;1.9026683439060081;1.9001694172400165;0.2913738587326565;-1.2466967653760757;0.08489872555275806;0.47169824524642184;0.015487623041683156;-0.645992919430719;0.02192311614153155;0.0448659121035994;1.2648299637070481;1.5997948370911728;1.835702120173115;-1.1909129762385617;0.45419077377439604;0.0
1.2694661117286383;-0.5894278577829242;1.6115442088274279;1.6251251776063584;0.24966664180555795;-0.8346605515610583;0.06233343203046477;0.36714414907797416;0.013722694653419689;0.9770515996904325;0.015550117263179425;0.0448659121035994;1.1408087061333307;1.301444503989604;1.543053465226615;-0.6230867510091022;0.43039966440316746;0.0
1.1097435035346712;-0.13102294362056582;1.231530643637407;1.3470622583010454;0.21293431577188277;-1.3706750572526156;0.04534102283323988;0.3601100246381717;0.016666432414761796;-0.37633979301782383;0.022687876006933852;0.0479249515652084;0.9621363397550595;0.9257063362772633;1.2748644458549343;-0.26770238490790854;0.38573320859569965;0.0
1.1163063718551238;-0.23398680413151346;1.24613991584435;1.3470622583010454;0.21282090407336668;-1.375416185717035;0.045292737210605144;0.3601100246381717;0.016806448391031157;-0.6522028637559629;0.022687876006933852;0.0479249515652084;0.9670860347270762;0.9352553985641396;1.2748644458549343;-0.3362705388900142;0.38981001499571744;0.0
1.09086661225033;-0.018447506647834188;1.1899899657225121;1.3407231749822994;0.24405684617772225;-0.8580681595600002;0.059563744166216376;0.3601100246381717;0.0167653886069658;-1.1942737809109734;0.02396247578260428;0.0479249515652084;0.9362306088796318;0.8765277530031262;1.2206103551805656;-0.06535063953287223;0.37292500602202566;0.0
0.9833786966227626;-0.5922534374308219;0.9670336609714834;1.3407231749822994;0.2905740182643615;-1.037291334696582;0.08443326009029749;0.45041503536667155;0.016379204504667642;-1.0683225762915451;0.02396247578260428;0.0479249515652084;0.840943698654759;0.7071863043071462;1.2206103551805656;-0.22899254122960933;0.3272613702516665;0.0
1.0281301827166196;-0.6663846514362679;1.0570516726129098;1.3407231749822994;0.3318602678659257;-1.5406471487723374;0.11013123738804395;0.592087973431505;0.014887822724694345;-0.6147380258336006;0.02192311614153158;0.0479249515652084;0.8362766308150428;0.6993586032473593;1.2206103551805656;-0.212139901218691;0.32499292106678457;0.0
1.0563411603377526;-0.8734412185012786;1.1158566470237095;1.6320572892278444;0.3447333347453268;-1.9289947047157032;0.11884107208463356;0.6823235265643379;0.014577726003553995;-0.445098951333571;0.018864076679922525;0.0479249515652084;0.836716073559761;0.7000937877532633;1.2245387449505054;-0.2154772356800082;0.3252188628613907;0.0
1.0817450706731122;-0.9885539866809501;1.1701723979255767;1.6320572892278444;0.3258100323202821;-1.8217764119159072;0.10615217716054329;0.5913125467977718;0.020890243394340202;1.325295963616759;0.02166819618639745;0.0723972672580808;0.8643978115925067;0.7471835766859147;1.2245387449505054;-0.3573007997676623;0.34463306156457385;0.0
1.0992661538571988;-0.7322661786311591;1.2083860770159989;1.6606841204573501;0.30890825265616373;-1.3881515888082105;0.09542430855908429;0.5298217749842273;0.019560045120490043;1.7659326472088612;0.015040277352911125;0.0723972672580808;0.8834216367981397;0.7804337883631042;1.2663022276852798;-0.0689266210166036;0.36699086720024016;0.0
1.1954149808713825;0.19884963205848166;1.4290169764917278;1.5061854478893433;0.3238153985189489;-0.7396431373635355;0.10485641231798569;0.3982195457833776;0.019517917387184495;1.3745916828406721;0.017334556949117952;0.0723972672580808;0.8729538741110521;0.7620484663254945;1.112298758535002;1.2686806634379175;0.3884519160999785;0.0
0.9194582065179473;0.09461380230669204;0.8454033935332003;0.841449352249261;0.30268669360422235;0.5409511152024247;0.09161923448505638;0.25236602177509804;0.02277359873844828;0.5755331829582632;0.027786275109615552;0.08463342510451699;0.5974018902927848;0.35688901852539245;0.7466565446062905;-0.32145513458903563;0.2867574272188643;0.0
0.7708507570340832;0.9742488397793415;0.5942108896200192;0.6420506624291653;0.25922598010129483;1.1011681399605178;0.0671981087594769;0.2556552355127384;0.026658634338184734;0.2996199138941999;0.0201386764555929;0.0948302233098806;0.48058098401434335;0.23095808219619454;0.6520310366273385;-0.3961650407969892;0.23934797593053894;0.0
0.6474858870358984;2.111083878718854;0.41923797391066414;0.6189613942699328;0.2288405554745129;-0.25759364529518003;0.05236799982988361;0.29200697120770647;0.026353736851503988;0.1124237503982114;0.027021515244213225;0.0948302233098806;0.4106456244057091;0.16862982884355474;0.6520310366273385;-0.8246504576968973;0.20877097810020032;0.0
0.5647148035411284;2.8453487582980226;0.31890280933849513;0.6189613942699328;0.2431097355260995;-0.5785094361972034;0.05910234350757004;0.3073552790502141;0.02703360993955249;-0.03565031283687164;0.02294279596206785;0.0948302233098806;0.40076912354203287;0.16061589038464918;0.6520310366273385;-1.0525702615170367;0.20426343393043553;0.0
0.5848933659240075;2.4184363191706173;0.3421002495019149;0.6189613942699328;0.23331940688421599;-1.0210145755584707;0.05443794562880234;0.3663869619357427;0.027101705515809982;-0.05807929285125132;0.02294279596206785;0.0948302233098806;0.4382745157138969;0.19208455112425088;0.7056961423023602;-1.6043511338133676;0.21874485721636303;0.0
0.7643986727372128;0.5035721029728696;0.5843053308824125;0.8215226703093371;0.24460072097574795;-1.3116674627709832;0.0598295127018557;0.37484325575804656;0.027101705515809982;-0.05807929285125384;0.02294279596206785;0.0948302233098806;0.43596772089555524;0.19006785366286474;0.7056961423023602;-1.5798988233050293;0.21713087973551162;0.0
0.8696349804002937;-0.8269681506955459;0.7562649991358192;1.0998154889972487;0.2919934696086229;-0.6360805644400348;0.08526018629408177;0.44374727163745176;0.02722740694206698;-0.10074368939564364;0.0252370755582746;0.0948302233098806;0.4149051343732767;0.1721462705293068;0.6047455852148307;-1.38524513242959;0.20256181759815972;0.0
0.9668825984717695;-1.6137865887545373;0.934861959227521;1.8755400906191875;0.3677713190176549;0.06682255243424227;0.1352557430919857;0.4225014300635046;0.027314058856697594;-0.11553147921942153;0.0252370755582746;0.0948302233098806;0.39715233177737985;0.15772997463621002;0.5756713499564334;-1.1571253354753228;0.18793878008949008;0.0
0.9778104932677492;-1.9174532600364043;0.9561133607445189;1.8755400906191875;0.42400610100369346;-0.24971777381639412;0.17978117368835428;0.4172460585419271;0.026701590854471192;0.08840882607310997;0.022432956051799676;0.0948302233098806;0.399382998441996;0.15950677944451938;0.6411807703669847;-0.8334035654667092;0.1838004082583434;0.0
1.058469030982494;-2.0800402180178517;1.12035668954902;2.0092465730078652;0.4575659181797215;-0.5989547692093589;0.20936656947965157;0.5853368869722824;0.025822942677981787;0.2814452895534038;0.022432956051799676;0.0948302233098806;0.4136488363518497;0.17110535981523933;0.5267059886222989;-0.20179348537701508;0.1838546834007992;0.0
1.250979928977956;-1.4028358068667501;1.5649507827056917;2.0986699508347266;0.47198916252240364;-1.320621323645869;0.22277376953859995;0.7885717971685215;0.04145485211788714;2.726709802580552;0.041297032731722125;0.1580503721831344;0.4505588279173794;0.20300325741428268;0.3513274522336367;1.0956337834013912;0.18998726406254643;30.0
1.275458671692841;-1.3562220697813192;1.6267948231964668;2.0986699508347266;0.5265824256916145;-1.2656044242448123;0.2772890510472647;0.8542983579323988;0.041456087169864285;2.5119417085446445;0.041297032731722125;0.1580503721831344;0.44509457353770515;0.1981091793927116;0.3463919128123205;0.8476353066796757;0.17509051601859632;0.0
1.2341452518453702;-1.3024562820235983;1.5231145026524722;2.0825799983123954;0.549461853108349;-1.5666254824460522;0.30190832802126094;0.9208414724511469;0.03776477641361514;3.56641323318219;0.03951259304578353;0.1345977363107983;0.460864204390631;0.21239581488860934;0.45221069508029643;0.04799258163053726;0.17704681444451661;0.0
1.2406398027832422;-1.318776079257095;1.5391871202500418;2.100432967934942;0.5451952098967294;-1.6893759551385727;0.29723781689433887;0.9773238659895314;0.03640974412229234;5.215689900945972;0.038237993270113076;0.1345977363107983;0.5193607066609606;0.2697355436233723;0.6522587730731795;-0.565338334207729;0.19250299055968703;0.0
1.2409683685831605;-1.285638256902381;1.5400024918239508;2.1291084952522494;0.51345956052864;-1.2966905700789382;0.2636407202982641;0.7921388990683487;0.03631063384647136;5.399428556553268;0.03594371367390632;0.1345977363107983;0.514355337391222;0.26456141310283776;0.5962259090539024;-0.42987607641792097;0.1882570779207262;0.0
1.1385583438081504;-0.5585604938789112;1.2963151022551584;1.1266114298803998;0.4825407718743722;-0.3887916073185276;0.23284559652111492;0.576621497215994;0.034795548125489;5.487855791089549;0.03543387376363815;0.1264402977465075;0.5146396304852974;0.26485394926604344;0.5962259090539024;-0.4135315491994902;0.18753810963774872;30.0
0.9757853942118543;0.6669592953466419;0.952157135557184;0.6159690553268227;0.3906924957912137;0.538018347527382;0.1526406262675675;0.41149160605803337;0.03419269354550558;5.809675701550817;0.028805954930151874;0.1264402977465075;0.512345753860847;0.2624981714992396;0.5962259090539024;-0.282832586492535;0.18532759674032354;30.0
1.070145149937848;0.08557864852701678;1.1452106419354993;0.8803193590171734;0.28870145422829824;0.8438294824722467;0.08334852967353418;0.2513261620488296;0.042566335800667376;1.1589799260722549;0.03084531457122455;0.1264402977465075;0.42052967794810003;0.17684521003513273;0.4030880343703216;-0.08291288905265522;0.14659395032982528;0.0
1.081748887576435;-0.21336629720672387;1.1701806557728547;1.084974975862306;0.2128118216116155;-0.3931420795081004;0.04528887141765406;0.22426214305990522;0.04091522433745667;0.8983334329811379;0.03492403385336995;0.1254206179259712;0.3480145695796868;0.12111414063973465;0.37355348632720764;-0.44925996229937304;0.11935452874316256;0.0
1.099876272420911;-0.5294043945331756;1.2097278146345183;1.2022083802161625;0.23618413508818004;0.6956490192531293;0.055782945667351674;0.22426214305990522;0.04091522433745667;0.8983334329811391;0.03492403385336995;0.1254206179259712;0.35260280442588665;0.12432873768900009;0.37355348632720764;-0.392074465907584;0.12103696558366273;0.0
1.1243258412942072;-0.6469928643095569;1.264108597401927;1.3931774903504501;0.39435324832149804;3.950285074360406;0.1555144844617171;0.22426214305990522;0.04121932968487496;0.859388136005592;0.03492403385336995;0.1284796573875802;0.45772503382323115;0.2095122065884781;0.37355348632720764;1.091833412287649;0.1601735793163261;0.0
1.1121010824855857;-0.5674471044842392;1.2367688176656115;1.3931774903504501;0.5407395964092461;1.1363962106295535;0.2923993111248343;0.36228385113442485;0.04188216919749862;0.9772203591962485;0.0311002345263586;0.1284796573875802;0.6264252464726734;0.39240858941834955;0.529387952524274;0.8409276761407221;0.22826584655526652;0.0
1.0675091804898291;-0.5419030086682477;1.1395758504300664;1.3931774903504501;0.6814338807960103;-0.2862840595961157;0.46435213389671115;0.79087311263013;0.03459496695724181;3.8851032221087305;0.028805954930151874;0.1294993372081165;0.6845976804235947;0.46867398404136634;0.8355142637757442;-0.6049430814785429;0.26148060330536216;0.0
1.0386709605509363;0.029896183579704586;1.0788373642918045;1.2054715647336476;0.798640439982562;-0.9374379611635966;0.6378265523755401;1.2495222514849915;0.03571747448366101;3.6814095258497295;0.0361986336290404;0.1294993372081165;0.6539687305430573;0.4276751005280978;0.9854857459064814;-0.9717090670068753;0.2625741652739343;0.0
1.1308298088318278;-0.17000320575445724;1.2787760565426285;1.537720274195646;0.839577167713703;-1.6612444982039773;0.7048898205461636;1.443875325125113;0.040840073743992115;2.305074440538802;0.04053227286631985;0.1621290914652798;0.6362829566346853;0.40485600090377677;0.9159009559004792;-0.8697823947234073;0.263502925964355;0.0
0.8745472458756129;-1.0628290048017448;0.7648328852686198;1.2281527342878973;0.8414265452034021;-1.9942978885820262;0.7079986309729328;1.6260707524183262;0.04141008039115459;2.649807003278319;0.0418068726419903;0.1621290914652798;0.6109413191192794;0.37324929540720525;1.0232813475848694;-1.4417095098486243;0.2736670962968089;0.0
0.9115405110678597;-1.4107153842669917;0.8309061033178549;1.4785056118245825;0.8637233205937368;-1.885748198966426;0.746017974537471;1.6966121817157402;0.04101905170738599;3.2725000231820722;0.02727643519934735;0.1621290914652798;0.7214298457970396;0.5204610224067404;1.0993328963862599;-0.6018634483786854;0.35158779935658974;0.0
0.9247665849415342;-1.4957806232525475;0.8551932366244277;1.4965728780682952;0.856762019897144;-1.460793272737048;0.7340411587382341;1.4582397707486738;0.04043067797415256;4.2092293794017195;0.0196288365453247;0.1621290914652798;0.7042296451776493;0.4959393931470379;1.039606249428261;-0.6171439620401764;0.3651507789110074;0.0
0.9840306321613904;-1.116128082963954;0.9683162850319456;1.5331071935417013;0.8075383427441646;-0.8484572732092311;0.6521181750019918;1.0372966443131366;0.04116282192790921;4.153240989253791;0.024217395737738276;0.1621290914652798;0.6558095165429574;0.4300861219883075;0.9008150983504086;-0.0740466119235508;0.3486744630200745;0.0
1.3419687116474945;0.8806915560346953;1.8008800230408364;1.7569995686860234;0.7373865417509711;0.13846021960301805;0.5437389119554566;0.8392669252102989;0.02354059296781088;2.7743489155531798;0.0223054960742326;0.09890894259202598;0.8537873476477252;0.7289528350033376;0.9008150983504086;2.7421971332698996;0.4346578350551229;0.0
1.2497520822346588;1.5772695554706464;1.5618802670498653;1.1158919278302446;0.6051536717286916;0.5863704446395249;0.3662109664067171;0.7349599483595189;0.01608948064220779;1.5782036120336627;0.017207096971550845;0.059141429591108394;0.8578300174494549;0.735872338837332;0.8305248449521443;3.80061812977447;0.4666953137442183;0.0
1.1067744880347263;2.021617631042809;1.2249497673645307;1.064165130983532;0.4437898278060522;-0.2933385027323684;0.19694941126412543;0.5386798003186833;0.023906157922686504;2.059106275026765;0.015295197308045294;0.0846334251045172;0.8508394511591958;0.7239277716488814;0.8137878542054628;4.186156513693453;0.46613132626989146;0.0
1.2738692077769636;0.1555571819477109;1.6227427585223089;1.083550199013824;0.35277066590242095;-0.40440220680532346;0.12444714272123752;0.46999784092233743;0.026283815898563035;1.2933181813618786;0.025746915468542846;0.0948302233098806;1.0357630459527527;1.072805087361324;0.8669706840806972;0.7412927406871606;0.5195198494728075;0.0
1.205575678304836;0.2013713473849047;1.4534127161201653;1.1428013975591937;0.29903359074267605;-1.3484204547138376;0.08942108839245827;0.46999784092233743;0.03911170810606621;3.032655405788672;0.025746915468542846;0.16110941164474352;1.0462346697127565;1.0946069841089605;1.0771991992910683;-0.06849334565622738;0.4936301846607303;60.0
1.3752348705471333;-0.4705890525984109;1.8912709491687905;1.7580413666885666;0.304364057977798;-1.2635221600016993;0.09263747978871238;0.46999784092233743;0.039094787334009416;3.032358641361807;0.025746915468542846;0.16110941164474352;1.238860136329942;1.5347744373874426;1.8019369242602266;-0.8209719155408126;0.52523808165215;60.0
1.403579465297082;-0.6657903815270294;1.970035315403643;1.8481856622545345;0.3468353704640036;-1.2976111883432195;0.12029477420490262;0.5157507555449029;0.039326809787708195;3.0616028596342555;0.02829611501988375;0.16110941164474352;1.248616492137489;1.5590431444377282;1.8019369242602266;-0.8550722909063034;0.5340703703464134;60.0
1.4925586869291205;-1.2024981481282784;2.2277314339275804;2.6774993041976582;0.415956849286733;-0.9127492851545866;0.17302010046854588;0.6041153588959874;0.03868992979460414;2.5194927382438763;0.030590394616090498;0.16110941164474352;1.35380570330765;1.8327898823083209;2.5849556582662796;-1.5641233010422726;0.5396821615389904;60.0
1.4644518367458372;-0.9209056398981318;2.144619182148256;2.5753606646045624;0.4911678264070558;-1.0614175829881907;0.2412458336974317;0.731887644156685;0.0384769998202542;2.5374071317375777;0.030590394616090498;0.16110941164474352;1.3485122957180875;1.8184854117028666;2.317389076058244;-1.6359156890250628;0.49560403770245437;60.0
1.2205670452803228;-1.70664731210641;1.4897839120243377;2.1825535278672428;0.5123847774745558;-1.5093772615333352;0.26253816018765;0.8516157871812268;0.041866438707612176;1.6242005543496127;0.031610074436626875;0.16110941164474352;1.2026981157179213;1.4464827575514385;1.8587611867730574;-1.6500943538886887;0.42214209639950767;60.0
1.5815026211773922;0.5556107506718035;2.501150540790962;2.2126016263892323;0.4944757233079624;-1.2244571234218664;0.2445062409409326;0.7723928692096604;0.041998307305934235;1.524739064789243;0.034669113898235925;0.16110941164474352;1.202916967305267;1.4470092302309008;1.8587611867730574;-1.6498460216415538;0.4222426203525808;60.0
1.586773391234765;0.43377927538154937;2.517849795130677;2.2126016263892323;0.4715933299928171;-0.9456679856565636;0.2224002688937141;0.6765551643199499;0.04272073386704254;0.9493383185601797;0.04384623228306305;0.16110941164474352;1.2126315410909312;1.4704752544485666;1.94993195163593;-1.7063476719531094;0.4280127061952266;60.0
1.5034154169578606;0.8053014371794891;2.260257915946578;1.9594225086069053;0.4627845809023491;-0.9804357380201597;0.21416956832096287;0.6765551643199499;0.04261599257411925;0.9129674725523659;0.04384623228306305;0.16110941164474352;1.1547295924391294;1.333400431654638;1.892699301288634;-1.3143794512204303;0.4296449874042213;60.0
1.4601544164516111;1.564871993531524;2.1320509198831448;1.6421187110364943;0.5248133727758221;0.03336142588332286;0.27542907624433394;0.6765551643199499;0.04281073199631059;0.809219753692996;0.041551952686856256;0.16110941164474352;1.071981852565906;1.1491450922306319;1.81876623924262;-1.3077090268556373;0.38844705518844086;60.0
1.4936457519814428;0.9118141386903909;2.2309776324122095;1.9277198628073036;0.6966204226193194;0.5676066389905372;0.48528001321031927;0.7409041872092402;0.03682790708756725;1.5545864475348057;0.041551952686856256;0.1478535739777709;1.127499009784132;1.271254017064198;1.951847015810102;-1.4114124168029596;0.41784494949603024;60.0
1.5938689909033388;-0.09855284401765074;2.540418360163227;1.6669619700826022;0.8010602697206068;-0.8366104226933392;0.6416975557248513;1.089286841008092;0.036720917017292;1.7918136354786875;0.041551952686856256;0.1478535739777709;1.2022033198253206;1.445292822199022;1.5049439921451901;-0.6354614022069288;0.4944963863652594;0.0
1.664971114990296;-0.6598447759787456;2.7721288137520292;1.7291253998760798;0.9303062517515559;-1.3254518074384969;0.8654697220480294;1.5319071059679508;0.026930266279537027;-0.0408532609894937;0.0369633934944427;0.0897318242071988;1.2578286879506233;1.5821330082315865;1.2827852831812887;-0.5409709515020167;0.5529585944761348;0.0
1.5043238645760333;-0.665055443970261;2.2629902895329717;2.0273133834439134;1.0613979443839006;-1.402612722975929;1.1265655963423697;1.871901938129876;0.029260089429554787;-0.8794605337711813;0.040022432956051776;0.0897318242071988;1.057401277850153;1.1180974623991362;0.8437742026208326;0.7966668049667811;0.5242689134297737;0.0
1.5137896735713687;-0.7281343464508286;2.291559175811311;2.0273133834439134;1.127756353182423;-1.4979813826371517;1.271834392143318;1.7697623643048817;0.03298222787119197;-1.2741350123692818;0.04639543183440392;0.0907515040277352;1.0591266480512151;1.1217492566122027;0.8437742026208326;0.7955229987006368;0.5263537534177837;30.0
1.3225489495428604;-0.6729368783978834;1.7491357239369236;1.9610764831272478;1.1283662679472106;-1.2761019167624226;1.2732104346411164;1.7900968117378002;0.031648426217966145;-1.4528150633863361;0.05353319057815845;0.0887121443866625;0.8115364349215308;0.658591385205148;0.699422683042833;3.3352250068909344;0.45161835087329694;0.0
1.1768193435360663;-1.4577074644850638;1.384903767320658;1.9610764831272478;1.0999078870151067;-1.030719986850795;1.2097973599180365;1.8019398599509868;0.04879441007374748;2.2319295685688303;0.05812174977057201;0.1753849291322524;0.6864524467511549;0.4712169616506472;0.699422683042833;1.2693152391678286;0.3924354393250716;0.0
1.2741699997836624;-1.51823271774409;1.623509188348698;2.0471793358064634;1.0331915631879602;-1.097006489518596;1.0674848062427806;1.4376065145374468;0.05985967439249308;0.4647188188191895;0.0583766697257061;0.1784439685938614;0.855570233004881;0.7320004236040263;0.7235494143594925;0.38687314372430265;0.4600436633548689;0.0
1.2322781029691565;-1.668887075559539;1.5185093230572633;2.316028130124799;0.9650433365954035;-0.9743738341731223;0.9313086415071893;1.26846284306253;0.05987283183983672;-0.29371903563984775;0.06653410828999695;0.1784439685938614;1.006599594041214;1.013242742723937;1.1184936257759766;-0.6257874619817433;0.4869201493716715;0.0
2.2226067242241925;4.2163867927836804;4.9399806505665955;2.526629071985429;0.8988952535358705;-0.9010201473124501;0.8080126768293169;1.497702064226636;0.057309436633233866;-0.10830488994273411;0.06296522891811972;0.1784439685938614;2.02440060506906;4.098197809803977;1.9093091240510287;5.308995860562543;0.786242655593965;0.0
2.306254706542759;2.6482052964926917;5.318810771450628;2.825663277446586;0.8193058167401925;-1.1395839290458305;0.671262021344314;1.2837068557960414;0.054468120027866454;0.09082010133825962;0.048179871520342595;0.1784439685938614;2.1195315682727953;4.492414068904934;2.1771109093713044;2.922351117345896;0.7622092383793505;0.0
2.5343802891325637;0.3852871791112698;6.423083449943658;3.3035376916121972;0.7500578800988859;-1.2782900525622864;0.5625868234984347;0.983082774501683;0.049119014931511815;0.3722324473212881;0.041042112776588174;0.1458142143366983;2.320128083650331;5.382994324542958;2.627986582825886;0.41896169102530884;0.7400295535226352;60.0
2.740281160116334;-0.8836801989689952;7.509140836488521;4.3689453770829925;0.7051623314549852;-0.6831721581361409;0.49725391370303035;1.1215421380406707;0.0513273629215458;0.16310913966858795;0.04588559192413585;0.1529519730804527;2.4632631345630096;6.067665270097183;3.5967218730576023;-0.8116738722674502;0.6895242244085592;60.0
2.5685051512027934;-0.6820503748037248;6.597218711755286;3.822421110205776;0.5741280605308656;-0.917747048626605;0.32962302988893327;0.9995840431357004;0.057940883112846585;0.17420272229960257;0.046140511879269944;0.1988375650045884;2.2869470840298938;5.230126965152834;3.5291123836342546;-0.6301431501795605;0.5940859490216347;60.0
2.471019337848736;-0.7799454747558299;6.105936568022406;3.3753075470257996;0.4699040620066975;-0.7855509104382141;0.2208098274903942;0.552814629656043;0.06760779672517217;-0.5994174831780066;0.08310390537371266;0.2233098806974609;2.167998609290703;4.700217969886423;3.1121783570209858;-0.8143582452289473;0.5093092842124856;60.0
2.7088897144397635;-0.445709439956363;7.338083484997544;3.058790814396197;0.4043595257078154;0.2620244069192508;0.16350662603064944;0.43555138598819454;0.06829825282569912;-0.8016476647696398;0.0915162638931376;0.2233098806974609;2.413738601836319;5.826134037994748;2.8677208044960856;-0.5558420351333034;0.4911494050744352;60.0
2.53791814066249;-0.05437539424646047;6.4410284887037506;3.0034300780419327;0.34474895838736674;-0.19561115522121972;0.11885184430917434;0.43555138598819454;0.06955547538839628;-0.9654994794916945;0.09648720301825234;0.2233098806974609;2.252388584452989;5.073254335374139;2.8677208044960856;-0.33633018403760073;0.44596402230036997;60.0
2.1667104322066635;-0.07440035811484019;4.694634097033186;2.7289988060127;0.3293961100200576;-0.6469082048406506;0.10850179729634588;0.43555138598819454;0.06943533099624004;-0.9522060408982662;0.09648720301825234;0.2233098806974609;2.0236863149286246;4.095306301229396;2.6118462234682296;-0.23693293315761885;0.3866285105452066;60.0
2.2431215413783714;-0.15767542070428564;5.031594249395681;2.7289988060127;0.3959848669863161;-0.8681281938365253;0.15680401488217044;0.5523896889434514;0.06521620784743692;-0.4305625221251742;0.07915264606913436;0.2233098806974609;2.1245702710006316;4.513798836419697;2.6118462234682296;-0.31879182073273254;0.4122229355363152;60.0
2.861409149888843;0.7269554853721546;8.187662323067594;2.744551895658433;0.47116575414687034;-1.2415553099661243;0.22199716788078908;0.7696625800195251;0.06285106664913799;0.1843026940400964;0.08922198429693078;0.2233098806974609;2.248991828117103;5.057964242937509;2.682934746477871;-0.5039644106299994;0.4460779326392255;60.0
2.9898208097248706;0.06691391035623598;8.93902847426388;3.29176380981985;0.5509118368081;-1.5108166185672656;0.3035038519352745;0.9115024013872994;0.061133371677774405;0.8986475658886793;0.05939634954624251;0.2233098806974609;2.4426893850841203;5.966731432002638;3.3217450033900056;-0.7473502372785441;0.5030821627724484;60.0
3.214076886017744;-0.014257246056350445;10.330290229233517;3.8570056345906254;0.6157546662515996;-1.5231652297461318;0.37915380901061885;1.0277761682109998;0.06082843486018245;0.6134206115502492;0.06589680840216175;0.2233098806974609;2.305044012618436;5.313227900108101;3.667387496465344;0.23894245556432767;0.5277465597163051;60.0
3.2191768547939876;-0.039048928273938875;10.36309962244131;3.8570056345906254;0.6634497071787608;-1.3460911142598466;0.44016551395558356;1.1363100716689392;0.0608164555564885;0.6251418471032543;0.06589680840216175;0.2233098806974609;2.3812648992440972;5.670422520372001;3.7076101550107596;0.26130398101886637;0.5734566702570868;60.0
3.124850269703495;0.43074692899153194;9.764689208066004;2.5206260673580037;0.694851395440088;-1.1134786371279068;0.4828184617450375;1.0290936618691144;0.06069377471040265;0.6418533713865593;0.06589680840216175;0.2233098806974609;2.2902685268031266;5.245329924864963;2.1898410065486846;1.520138887510146;0.581042491758518;60.0
2.964264021383407;1.5011903616186246;8.786861188468128;2.0280901343165114;0.7200398609180362;-0.9077139848645737;0.5184574013108648;0.9570269679704585;0.05994502709563636;0.7872880485695444;0.0630926888956868;0.2233098806974609;2.2047374126511903;4.860867058743866;1.6422569836307734;3.9801471501935817;0.626985483170945;60.0
2.9665036077927414;1.6368419621558221;8.800143655047352;2.0280901343165114;0.7502116176635808;-0.7451290281832238;0.5628174712774068;1.0183235623254427;0.05251412480438001;1.5947129237314124;0.057229529927602725;0.20189660446619762;2.261290849662591;5.113436306767763;1.6641628685248886;4.199421324590655;0.6806580050576412;60.0
2.8140306654185023;3.2938267589635264;7.9187685859157;1.437469584361852;0.7670368594270572;-0.9383035581810835;0.5883455437197231;1.117654359058226;0.03877686036390063;-0.43188578769458935;0.038110533292546184;0.1294993372081166;2.136105055928714;4.562944809964213;1.5005609183155717;8.175597878015491;0.7137567257716138;60.0
1.7556949257219068;1.0576299624381047;3.0824646722056515;0.7852382531750237;0.8241500003224113;-0.9844594525210709;0.6792232230314305;1.2258754819952948;0.037888644106346486;-0.40244675425125503;0.04359131232792911;0.1244009381054348;0.7828610762931253;0.6128714647748305;0.6835340932989231;-0.310580103188723;0.32873113156127076;60.0
1.9935645577152206;-0.5623231070814888;3.9742996457782827;1.5852290827803852;0.9014165133622443;-0.9935414163612311;0.812551730562145;1.3429869311366334;0.03784220302038814;-0.38710828344336634;0.04359131232792911;0.1244009381054348;0.7323925038681576;0.5363987797222692;0.46838035494684727;1.1714809132838835;0.31708800254380004;60.0
2.130665682319969;-1.258239093774945;4.53973624981602;3.6845377273011692;0.9844623513679013;-1.0031869192013738;0.9691661212608171;1.4689887064822393;0.038869530754739506;-0.5400836809382434;0.04888090139696138;0.1244009381054348;0.6258434846634532;0.391680067295694;0.46838035494684727;1.6813310136240185;0.27768939862496306;60.0
2.130665682319969;-1.258239093774945;4.53973624981602;3.6845377273011692;0.9844623513679013;-1.0031869192013738;0.9691661212608171;1.4689887064822393;0.038869530754739506;-0.5400836809382434;0.04888090139696138;0.1244009381054348;0.6258434846634532;0.391680067295694;0.46838035494684727;1.6813310136240185;0.27768939862496306;60.0
2.130665682319969;-1.258239093774945;4.53973624981602;3.6845377273011692;0.9844623513679013;-1.0031869192013738;0.9691661212608171;1.4689887064822393;0.038869530754739506;-0.5400836809382434;0.04888090139696138;0.1244009381054348;0.6258434846634532;0.391680067295694;0.46838035494684727;1.6813310136240185;0.27768939862496306;0.0
2.130665682319969;-1.258239093774945;4.53973624981602;3.6845377273011692;0.9844623513679013;-1.0031869192013738;0.9691661212608171;1.4689887064822393;0.038869530754739506;-0.5400836809382434;0.04888090139696138;0.1244009381054348;0.6258434846634532;0.391680067295694;0.46838035494684727;1.6813310136240185;0.27768939862496306;0.0
2.130665682319969;-1.258239093774945;4.53973624981602;3.6845377273011692;0.9844623513679013;-1.0031869192013738;0.9691661212608171;1.4689887064822393;0.038869530754739506;-0.5400836809382434;0.04888090139696138;0.1244009381054348;0.6258434846634532;0.391680067295694;0.46838035494684727;1.6813310136240185;0.27768939862496306;0.0
2.130665682319969;-1.258239093774945;4.53973624981602;3.6845377273011692;0.9844623513679013;-1.0031869192013738;0.9691661212608171;1.4689887064822393;0.038869530754739506;-0.5400836809382434;0.04888090139696138;0.1244009381054348;0.6258434846634532;0.391680067295694;0.46838035494684727;1.6813310136240185;0.27768939862496306;60.0
4.101623597602962;3.811489882624589;16.823316136413464;4.304243175412417;0.3466559593106002;-0.6567579739863447;0.1201703541255525;0.5244217371069024;0.046758500925493295;2.23753088501701;0.035561333741205264;0.1815030080554704;3.2412420616430486;10.505650102164081;1.675860749521835;7.156538126363237;0.9090723685879207;90.0
4.101623597602962;3.811489882624589;16.823316136413464;4.304243175412417;0.3466559593106002;-0.6567579739863447;0.1201703541255525;0.5244217371069024;0.046758500925493295;2.23753088501701;0.035561333741205264;0.1815030080554704;3.2412420616430486;10.505650102164081;1.675860749521835;7.156538126363237;0.9090723685879207;90.0
4.101623597602962;3.811489882624589;16.823316136413464;4.304243175412417;0.3466559593106002;-0.6567579739863447;0.1201703541255525;0.5244217371069024;0.046758500925493295;2.23753088501701;0.035561333741205264;0.1815030080554704;3.2412420616430486;10.505650102164081;1.675860749521835;7.156538126363237;0.9090723685879207;90.0
4.101623597602962;3.811489882624589;16.823316136413464;4.304243175412417;0.3466559593106002;-0.6567579739863447;0.1201703541255525;0.5244217371069024;0.046758500925493295;2.23753088501701;0.035561333741205264;0.1815030080554704;3.2412420616430486;10.505650102164081;1.675860749521835;7.156538126363237;0.9090723685879207;90.0
4.101623597602962;3.811489882624589;16.823316136413464;4.304243175412417;0.3466559593106002;-0.6567579739863447;0.1201703541255525;0.5244217371069024;0.046758500925493295;2.23753088501701;0.035561333741205264;0.1815030080554704;3.2412420616430486;10.505650102164081;1.675860749521835;7.156538126363237;0.9090723685879207;90.0
4.101623597602962;3.811489882624589;16.823316136413464;4.304243175412417;0.3466559593106002;-0.6567579739863447;0.1201703541255525;0.5244217371069024;0.046758500925493295;2.23753088501701;0.035561333741205264;0.1815030080554704;3.2412420616430486;10.505650102164081;1.675860749521835;7.156538126363237;0.9090723685879207;90.0
4.101623597602962;3.811489882624589;16.823316136413464;4.304243175412417;0.3466559593106002;-0.6567579739863447;0.1201703541255525;0.5244217371069024;0.046758500925493295;2.23753088501701;0.035561333741205264;0.1815030080554704;3.2412420616430486;10.505650102164081;1.675860749521835;7.156538126363237;0.9090723685879207;0.0
4.141322216345764;3.705729261394466;17.150549699598994;4.304243175412417;0.2828010607631782;-0.22312505567241991;0.0799764399687788;0.38792886067526666;0.04602979850542307;2.9990921370035;0.021795656163964533;0.1815030080554704;3.181239696937321;10.120286009369856;1.675860749521835;7.568267615391927;0.8725472558673482;0.0
4.0408816856797065;5.860339322361762;16.328724797661664;3.2365513231287975;0.21890708945511467;0.3745922762703142;0.04792031381370958;0.2668683696192604;0.04620913090487234;3.103653826406835;0.023325175894769054;0.1815030080554704;3.1653192766109206;10.019246122884683;0.8854162038462905;9.432110067698101;0.9504511233517606;0.0
4.049958075993815;6.786219328516226;16.402160417307524;1.9969080722591466;0.18747913063709587;-0.7349620065191541;0.03514842442444126;0.2668683696192604;0.04482083516608707;3.5004687611454908;0.0141480575099419;0.1815030080554704;3.210232648344802;10.30559365649888;0.37594787767149596;9.511429170713932;1.009688271118536;30.0
1.8888036518061293;3.4320492202683317;3.5675792350761695;1.0428658506804136;0.2384309886301434;1.937621578124001;0.05684933633914757;0.2668683696192604;0.04468744676277653;3.9693225626962163;0.009432038339961243;0.1815030080554704;0.9252672072018009;0.8561194047230203;0.3320623162822245;8.210397153963367;0.3996672678218804;30.0
1.1966108701234048;1.9085134639277739;1.4318775744974919;0.8459485963802106;0.32739301284111827;1.261662455878433;0.10718618485718463;0.2908800977320083;0.04304989867646624;4.556884464822342;0.0084123585194249;0.1815030080554704;0.33546448564594833;0.11253642112970068;0.21189545714694846;1.0686822364489015;0.16212289202322855;0.0
1.0269028255979442;0.45903922070940867;1.0545294132210417;0.9722462738455213;0.45377475403040124;0.6559029817240167;0.20591152739535115;0.525542130454673;0.04376531619630994;4.369408003068543;0.009432038339961243;0.1815030080554704;0.39433057301118246;0.1554966008113275;0.21189545714694846;2.5569386304633897;0.1883636277460287;0.0
1.4937665933617577;1.5227644417674513;2.2313386354435907;1.5841722188456449;0.5268959647808518;-0.9437747002744447;0.2776193577023445;0.8025174547973299;0.025706002459379013;3.52725183508008;0.009432038339961243;0.113184460079535;0.8702352510609865;0.7573093921891784;0.3277894808264459;6.348048524232593;0.37574314047914925;0.0
1.6883413569655086;-0.34420361783015146;2.8504965376401348;2.0658436253939363;0.5781289718509455;-1.69469881961504;0.33423310809343126;1.0395545817140202;0.03012477640940821;1.4708346675051405;0.013255837666972602;0.113184460079535;1.0025720149126136;1.005150645085938;0.7963954264663573;1.6065842396321899;0.40416957047431223;0.0
1.8398068966351753;-1.2602046993679143;3.384889416906354;2.8296205776018915;0.6898560304175421;-0.9980415642883903;0.47590134270344875;1.2564554191817383;0.03419453643242652;0.3366477203681983;0.031100234526358753;0.1203222188232894;1.1067541935798555;1.2249048450065965;1.4056640966649105;-0.4940301697802214;0.4168834205143168;30.0
1.711188369580942;-1.7507351070130606;2.9281656361890827;3.2841370629318636;0.7787917273049111;-1.019109856359769;0.606516554518567;1.2126145140123357;0.036383774104338226;0.2232351339293738;0.031100234526358753;0.1294993372081166;1.1325107874828162;1.2825806837649487;1.9478948421579996;-1.2584462490288593;0.4049928593566501;30.0
1.6625006315611777;-1.609506846302499;2.7639083499413144;3.2841370629318636;0.843571647024634;-1.1064036439084861;0.7116131236638539;1.1374137066973213;0.03662813304387495;-0.6524864808391057;0.057866829815438;0.1131844600795349;1.1085004304094248;1.2287732042178798;1.9478948421579996;-1.282103670352827;0.38433718070223677;0.0
1.538557677641618;-1.2404153644584357;2.367159727429969;2.252834553366945;0.9095901073659277;-0.9807941903604002;0.8273541634179599;1.367081994097877;0.03743629884163093;-1.2890297387622025;0.06092586927704705;0.1131844600795349;1.0885949444932228;1.1850389531762027;1.7896081433730306;-1.2060950127142447;0.37444584289558996;0.0
1.4297013877993991;-0.782334161081216;2.044046058275528;1.9248445560136505;0.9211311775965662;-1.1625972172738652;0.8484826463404367;1.3685278144106228;0.037225296902767005;-1.4174801951630154;0.06092586927704705;0.1131844600795349;1.0696118104750663;1.1440694251077492;1.705824265830569;-1.1325692751287073;0.365289376175525;0.0
1.2427562142512032;-0.5278483136100419;1.5444430080599822;1.9020866505414258;0.9183665257598302;-1.3662603221813545;0.8433970756361809;1.3473721564782284;0.03739840634969575;-1.4354091731229228;0.06474966860405831;0.1131844600795349;1.0181372734167935;1.0366035075205826;1.681385823778589;-0.938095182277197;0.3411762283587167;0.0
1.0190310235545064;-1.1797089517801307;1.0384242269665451;1.842458362611906;0.9238620262421985;-1.4758725034067226;0.8535210435323406;1.556968950252837;0.03716769715521573;-1.0282078554374416;0.057866829815437955;0.1131844600795349;0.9022594498826289;0.814072114902504;1.4886493875266043;-0.8875026971034699;0.29027726323919656;0.0
1.0351610442348829;-1.5404432597355404;1.071558387501453;1.9701964095902889;0.9275239118256371;-1.4831341582200457;0.8603006070083322;1.6408534011785672;0.03423102817401298;0.1594635788503783;0.03135515448149278;0.1131844600795349;0.9458531313846611;0.894638146150169;1.7531984738533835;-1.4518621237901295;0.2908207403758711;0.0
1.0176475535968497;-1.5129864690908312;1.0356065433416528;1.7081327114637572;0.8958736408932323;-1.451550362422393;0.8025895804472962;1.4486564308617913;0.030207941346144088;2.181631313125471;0.02549199551340875;0.1131844600795349;0.9469523623786315;0.8967187766144709;1.3887088553172413;-1.5024558394140077;0.2735117241690891;0.0
1.0634461459082212;-1.564711506992676;1.1309177052470496;1.8361109331916419;0.855690897375186;-0.9865158798382001;0.732206911850751;1.3262866808822475;0.022128924500882004;-0.2894534286785099;0.02549199551340875;0.07545630671968989;1.0025077424595636;1.0050217736913707;1.5510593482715258;-1.5274872481188813;0.2782260523503611;0.0
1.0630720324411966;-1.5658513353191335;1.1301221461586566;1.8361109331916419;0.7556940889356681;-0.2519855960079389;0.5710735560523096;1.1729890071056484;0.022128924500882004;-0.28945342867850865;0.02549199551340875;0.07545630671968989;1.0324519686296725;1.0659570675272863;1.5510593482715258;-1.4538399846901857;0.2848315033251714;0.0
1.0551311962723873;-1.6777483946301623;1.113301841347199;1.8361109331916419;0.5852623491973152;-0.7634054615450496;0.34253201738796013;0.8158643893854585;0.02302692836844915;-0.5836902527431385;0.0316100744366268;0.07545630671968989;1.0298664957615442;1.0606249990921626;1.5510593482715258;-1.4987893134436316;0.2902184888186374;0.0
1.0189338214991601;-1.4439973280874392;1.0382261325948823;1.6297354615227144;0.47458807746896825;-0.09175378986811766;0.2252338432756914;0.6723459471625386;0.02402140799836877;-0.8123623670461926;0.03466911389823583;0.07545630671968989;1.0132477123375945;1.0266709265573688;1.5510593482715258;-1.314436454005731;0.29233862244337167;0.0
1.0034534712536818;-1.2450144464693926;1.0069188689710638;1.6297354615227144;0.3733695652149079;0.10383576846031259;0.13940483222876934;0.5632762305585488;0.024127906769331797;-1.0203219402522166;0.03466911389823583;0.07545630671968989;1.0089664373403124;1.0180132716792025;1.5510593482715258;-1.2285599852823876;0.29330472821418274;0.0
1.0607184514199004;-1.6689629353516557;1.1251236331826318;1.911487543357672;0.29141427419968435;-1.5931794513235495;0.08492227920732882;0.5394924279551319;0.021799710202311723;-0.8572215789728823;0.0316100744366268;0.0642398286937901;1.0443869016001768;1.0907440002340172;1.68738839425217;-1.5633223893446477;0.2936662121705728;0.0
1.0436281642203984;-1.5524375949516847;1.0891597451540387;1.654924394817047;0.2806765558010347;-1.7291812292164996;0.07877932897633134;0.5394924279551319;0.022092587397965414;-0.8833163459391977;0.0316100744366268;0.0642398286937901;0.9972190967184761;0.9944459268600134;1.5350006646750511;-1.4365571084394164;0.26433871965413414;0.0
0.9215273864911958;-1.1631339458005205;0.8492127240532938;1.4859665264707616;0.27098007470651897;-1.792998029545199;0.07343020088795062;0.5394924279551319;0.022773079916595825;-0.6339513353185806;0.0336494340776995;0.0642398286937901;0.857910278422254;0.7360100458225493;1.457772830530677;-1.229202562244071;0.21777893523399544;0.0
0.7899005833097554;-1.1765538006291125;0.6239429315130919;1.273969652189972;0.2966211685069492;-1.9469120916238671;0.08798411760642794;0.565608177904831;0.02239970578905563;-0.575511087365328;0.0336494340776995;0.0642398286937901;0.7282005688219928;0.5302760684326739;1.264369397156377;-1.3947644161467043;0.17659335538188875;0.0
0.7575524602636072;-1.3926246847474042;0.5738857300514443;1.273969652189972;0.33594583792790866;-1.5350828552163531;0.11285960602108469;0.5885100668643493;0.02214507000631331;-1.1267633419503669;0.0313551544814928;0.0642398286937901;0.7473198335140377;0.5584869335634491;1.264369397156377;-1.2381978440565262;0.18169935788840308;0.0
0.8972830362662982;-1.5013807028496415;0.8051168471712671;1.5651060243550852;0.3423176175993206;-1.256797015868023;0.11718135131887468;0.5141614764240223;0.022659823544834704;-1.4553790131353566;0.03288467421229733;0.0642398286937901;0.9014477771825234;0.8126080949873123;1.4609412829475992;-1.2364515456162846;0.22825418017702978;0.0
0.9150099240253519;-1.8167565980771607;0.8372431610648803;1.626693680146638;0.3310278016675769;-0.8781596552150612;0.10957940547686862;0.4238200467254414;0.024316477662258494;-1.7157754036757609;0.037983073314979104;0.0642398286937901;0.919542765468983;0.8455588975263449;1.5496179574671287;-1.6122483310264863;0.2414887044318387;0.0
1.0484305108745229;-1.1691135986090355;1.0992065361326129;1.6262140627174286;0.30881528983383116;-0.32622505751243186;0.09536688323515313;0.40572470793880133;0.022743790548555125;-1.144905159944553;0.03288467421229733;0.0642398286937901;1.0473344349803402;1.0969094186955883;1.6161670568846471;-0.9952611138697774;0.29447559067493817;0.0
1.1225579451782;-0.8862127815902398;1.2601363402827028;1.4865249139599048;0.2855918593886096;-0.4128666864841585;0.08156271014904336;0.3627445203368973;0.019351287868638333;-0.6056131731832851;0.02600183542367695;0.060161109411644695;1.117600698835428;1.249031322037437;1.5161823260393485;-0.8085765852391521;0.3442635228325229;0.0
1.1333287677326918;-1.0007216704844344;1.2844340957705018;1.6785501579830462;0.28040248340561286;-0.7144994218466681;0.078625552700035;0.374892483366585;0.020283752602558842;-1.170928316506379;0.02995309472825533;0.060161109411644695;1.1383742416775442;1.2958959141149238;1.7728902110179154;-1.0532747978462023;0.35673525704550424;0.0
1.1370110503881672;-1.039084116501686;1.292794128704803;1.6785501579830462;0.3117498694953099;-0.38553047871708185;0.09718798113034276;0.4113214538323202;0.019988016187143007;-1.4355228707645034;0.03403181401040073;0.0591414295911083;1.146673858703126;1.3148609382331164;1.7728902110179154;-1.13706957719035;0.3639663074873768;0.0
1.1465875698191392;-1.0916102450777905;1.3146630552637597;1.6891254071686244;0.33358330781869905;-1.0110754259611092;0.11127782325526492;0.5272018078176199;0.020221523706390025;-1.5417266008639516;0.03403181401040073;0.0591414295911083;1.1587759511990532;1.3427617050772704;1.8024115210584664;-1.1751479922055668;0.3777018852295946;0.0
1.0645183073570739;-0.3858440516274982;1.1331992266983695;0.9173240240690812;0.3319591069524621;-1.3632290920766812;0.11019684868867617;0.49063534922061025;0.01984802173065084;-1.4293282576665292;0.03020801468338945;0.0591414295911083;1.0705309571283368;1.146036530170113;0.9235343981966104;-0.4034924066526091;0.3626875644063167;0.0
1.0401329290816526;-0.44229796043348985;1.081876510159978;0.9173240240690812;0.3311130430940779;-1.350157567873726;0.10963584730702068;0.5392131624201077;0.02040223675308176;-1.1674757088273748;0.03543387376363818;0.061180789232180996;1.0291419767042007;1.0591332082146294;0.9235343981966104;-0.4778576450618693;0.35149787983389685;0.0
0.9931130755351517;0.11748015492052812;0.986273580798888;0.7653362915981385;0.30377440349754636;-1.5490475105958912;0.09227888822029012;0.5622027865934691;0.01701043435843174;-1.3147384300459464;0.030590394616090505;0.0484347914754767;0.9688236167294221;0.9386192003326781;0.7331158528756387;0.25531074423562866;0.33822886881081166;0.0
0.8334173065293273;1.6010562460727726;0.6945844068225988;0.4959977238618194;0.27248792903039715;-1.8390551943616933;0.07424967146727476;0.5354476346635444;0.015347636375710417;-0.8687168441420264;0.01886407667992248;0.0428265524625268;0.7946430975789529;0.6314576525298733;0.535199092232931;1.7903322393701184;0.2943684851440623;0.0
0.8970795745111504;0.3621478252096021;0.8047517630051065;0.7653362915981385;0.24497994652419805;-1.2414874257456074;0.06001517419899894;0.3866495941890271;0.015368151872605219;-0.9680222764129591;0.01962883654532478;0.0428265524625268;0.8566119421716072;0.7337840194710129;0.7331158528756387;0.46674436774643546;0.308147728757836;0.0
0.8911755795143945;0.4534214203724534;0.7941939135228169;0.7347272461983714;0.22792961145345364;-1.2578646921554975;0.05195190777732235;0.3704385595048313;0.0168833704570706;-1.6395997327198824;0.032629754257163204;0.0428265524625268;0.8533731269797497;0.7282456938511959;0.7144565979471786;0.5173336360456852;0.3062973182920902;0.0
1.2050408553865484;0.9207428234574783;1.452123463150744;1.0226772397619923;0.23169142629505624;-1.1477359191837737;0.05368091701863748;0.3704385595048313;0.015959526682746358;-1.4936115125668408;0.030590394616090505;0.0428265524625268;1.0244832424698256;1.0495659141014873;0.9235904807625661;0.049842843255320055;0.39258855234834017;0.0
1.2408647962871637;0.45536100774598937;1.539745442664784;1.112156741063203;0.2831560954185848;0.3687280133543298;0.08017737437269869;0.3704385595048313;0.015416000350481273;-1.438193438562273;0.02931579484042008;0.0428265524625268;1.0401806687489608;1.0819758236390353;0.9692125731340058;-0.09897756989705486;0.40094041093086874;0.0
1.2358107888091956;0.5124182789306145;1.5272283057372062;1.0982575007375743;0.3577543580789986;-0.2593025985973175;0.12798818072451634;0.4929065016354087;0.014912404717544667;-1.1702692928229232;0.02396247578260428;0.0428265524625268;1.0005349431834398;1.0010701725310893;0.9220548785627125;0.2144521360635464;0.3806781632384792;0.0
1.256860356994925;0.105223978977058;1.5796979569854104;1.5837645084270626;0.43501729384981935;-0.9804019715312671;0.18924004594842006;0.655827213730754;0.018593859472886914;-0.1468585663513939;0.025237075558274702;0.062200469052717394;1.0098790023465196;1.0198555993804017;1.1227172379927284;0.07966989294939265;0.3885928022074265;0.0
1.265758233886061;-0.08943351736624676;1.6021439066503602;1.5837645084270626;0.5109543256882331;-1.131533247628611;0.261074322939517;0.8571890327995093;0.017569257530749515;0.20540319303543256;0.019628836545324775;0.062200469052717394;1.011240110069322;1.0226065602130143;1.1227172379927284;0.08639838716369784;0.3934698358099715;0.0
1.3069056363200129;-0.4930446258112081;1.7080023422450177;1.9183112638907678;0.5647611398972805;-1.4573151738578762;0.3189551451380756;0.9652754124126439;0.017783155121714345;-0.08915853823666377;0.021158356276129223;0.062200469052717394;1.022341898661473;1.0451829577587453;1.196873615967821;-0.027559091064189387;0.40319330268195036;0.0
1.3700247696209005;-0.5716352510231982;1.8769678693748013;1.6631700855863454;0.5928453287613387;-1.6255992871354796;0.3514655838341398;1.0590167508776331;0.017221496356006574;0.4155868260021704;0.0183542367696543;0.062200469052717394;1.0307732450476543;1.0624934827060715;1.1023945856661381;0.17127456631663132;0.4254904722602026;0.0
1.1272351741060194;-0.20069256177683187;1.2706591377418277;1.237339622531861;0.6094573310329967;-1.3801669403549597;0.3714382383498637;1.0159338299486051;0.0149511776946571;1.2929465160868088;0.01707963699398385;0.0591414295911083;0.8089852680127606;0.6544571638616781;0.8474956469602648;0.4756286130352123;0.35753937969948457;0.0
1.0231756397700942;0.7247914056415135;1.0468883898189416;1.118648342827557;0.5925158689579269;-1.033341076944452;0.35107505496696717;0.9106888600513215;0.015496774981510354;0.7444280911207329;0.013765677577240672;0.0591414295911083;0.7657567512989683;0.5863834021599499;0.8474956469602648;1.0207892529440428;0.3434704984173034;0.0
0.9789637836234966;1.7864382485752446;0.9583700896464321;0.721056456565407;0.5161285735280406;-0.9665379844638652;0.26638870441209;0.7301797560788207;0.015189516798216784;-0.28288421183671375;0.015295197308045226;0.046905271744672;0.7546269550363807;0.5694618412674797;0.7187628629655625;1.3884503589749753;0.34355478352844493;0.0
0.699267206516786;0.633097464259553;0.4889746261097894;0.6156490888407442;0.4240625368590439;-0.778995746192153;0.17982903516732796;0.561799068126476;0.020236952908317847;1.0851722805793083;0.0249821556031405;0.07035790761700811;0.5672954725233447;0.32182415314548485;0.6597216078271915;1.3093613570279792;0.2730314725491313;0.0
0.6369013082323195;1.1499362912972162;0.40564327642804;0.561794204935804;0.3557663171388787;-0.6115634815577096;0.1265696724105612;0.4668025629832824;0.02022819329131021;0.9535754252776579;0.0249821556031405;0.07035790761700811;0.5617632605309352;0.3155779608823473;0.6425744827922237;1.1439498216820614;0.27710320094098606;0.0
0.5599715945981237;0.1259277611121023;0.31356818675676545;0.561794204935804;0.29991390026069137;-1.3164038944778027;0.08994834756957994;0.4584724430879725;0.018934512702809592;1.4148914461661308;0.02243295605179965;0.0622004690527173;0.4809266351491528;0.23129042839588632;0.6425744827922237;-0.1277949930740552;0.23284912149106596;0.0
0.5821654296547303;-0.45432201036921543;0.33891658748507675;0.6519198466164764;0.28021024867965316;-1.5498864207151288;0.07851778346511308;0.4584724430879725;0.01870299395945431;1.2529422167028095;0.02243295605179965;0.0622004690527173;0.49333562428089606;0.24338003818462142;0.6425744827922237;-0.24467106486771906;0.2399600605758645;0.0
0.761396201201707;-0.006418434954835877;0.5797241752043903;1.0390447396242326;0.2740343307922031;-1.5422792765954203;0.07509481445273057;0.4517707597506828;0.020243714685584634;0.9130000051136177;0.02243295605179965;0.07545630671968989;0.5331173682900026;0.2842141283724582;0.7182112451213403;-0.6539062969903745;0.2638572374465613;0.0
0.7999282409947516;-0.8386783520696295;0.6398851907409574;1.3165440107590727;0.28995786219034214;-1.649518089538533;0.08407556184599345;0.4719574149165682;0.021625349081927064;1.1901725651377943;0.020011216478025874;0.0774956663607626;0.5844813912030132;0.34161849666260985;0.9817830337626923;-1.0109172607883112;0.30141729051716015;0.0
0.7839739179387692;-0.7772640925107017;0.614615104008264;1.0325070699095606;0.3088470877193556;-1.713933975428929;0.09538652359272733;0.49766482879056206;0.021257615757958367;1.2761567050354345;0.017462016926685024;0.0774956663607626;0.6013441217452196;0.3616147527575294;0.9946362187999287;-0.8173816098859371;0.32616855493141156;0.0
0.8363118800941691;-1.0830409036179094;0.699417560786644;1.1503658461332533;0.32050626514526326;-1.3924510533059788;0.10272426599736578;0.5229277705599311;0.023441003734104546;0.547608272098582;0.023580095849903098;0.081574385642908;0.6343504009604185;0.40240043119864377;1.0310336036898702;-0.7564957754721428;0.3595759803452572;0.0
0.9873812001870678;-0.8490084511578655;0.9749216344828543;1.360625565716238;0.34181037977422113;-0.7181120827191813;0.11683433572139729;0.42499327896396544;0.023946651056548463;0.348075164523125;0.0304629346385235;0.081574385642908;0.6459492647363871;0.4172504526134792;1.0310336036898702;-0.7383875818740933;0.3729698938388249;0.0
0.9425861239209814;-0.3901007808049352;0.8884686010083798;1.2280767358605673;0.3315631659426739;0.5550790660141837;0.10993413300992909;0.20319439031364528;0.023972951343982515;0.3433399575605449;0.0304629346385235;0.081574385642908;0.6351181053959419;0.4033750078017308;0.7083141427621935;0.6197143483270319;0.3992266848954748;0.0
0.8402732051788495;-0.5416882901185817;0.706059059341537;1.0732242482202738;0.29766047355674147;1.0664807938975065;0.0886017575180236;0.20526977501705135;0.03231718115481314;1.4413831314072063;0.0327572142347303;0.12847965738758022;0.48629250991375883;0.23648040519822322;0.3674340996883936;0.3415966455631671;0.3432079810786311;0.0
0.7826816988505354;0.4141426670748855;0.6125906417155601;0.7191256546949173;0.29600078517050116;0.592018424820958;0.08761646482155318;0.33891597313221866;0.030574264745193133;2.2420188082183423;0.029060874885286025;0.12847965738758022;0.48370860309296515;0.2339740127061477;0.31883770094481667;2.065240800459637;0.38187064200887627;0.0
0.6673613413684791;-0.27888762627437824;0.4453711599531358;0.7992050030564627;0.31346019856605506;-0.5836155364776175;0.09825729608507067;0.4218097749208819;0.023463842619691186;3.6188134134623713;0.0234526358723361;0.0871826246558581;0.3395900232142877;0.11532138386668046;0.38097685692240335;1.2690075879814293;0.29621455341386826;0.0
0.5599082946274809;-1.1572042067722206;0.313497298392654;0.8884490146841367;0.32135512429243296;-1.4468361334357038;0.10326911590900503;0.52971824364618;0.03122683529992532;2.895527480087564;0.0234526358723361;0.1345977363107983;0.28225068165153805;0.07966544729275789;0.38089362282622097;0.39053512843474575;0.265918650336506;0.0
0.550460275493233;-1.0327065949219068;0.30300651489608593;0.7998545593375951;0.3064463401487338;-1.4369713548134984;0.09390935939055346;0.49761343132735547;0.03440944426488336;1.1883587676049943;0.02969817477312125;0.1345977363107983;0.28403667617097195;0.08067683341025358;0.3965813763131121;-0.18523643718762944;0.277710833289683;0.0
0.4771095109973648;-1.157222945905494;0.22763348548414458;0.7452673408994158;0.28845930887499993;-1.1878942493063682;0.08320877287664262;0.4585425563285681;0.03389561163131979;1.5648901276766785;0.02039359641072705;0.1345977363107983;0.2565583340096927;0.06582217874982904;0.3370826624812746;0.14830314230132444;0.2621853722263752;0.0
0.4758639233583736;-1.1124935137030212;0.22644647355402403;0.7452673408994158;0.2630095938019476;-1.0634298968037323;0.06917404643186546;0.3599868222625766;0.033758808698665224;1.5707395291073043;0.02498215560314062;0.1345977363107983;0.23708425397733776;0.056208943483990796;0.266130301493104;0.8572432664076707;0.24804772782911946;0.0
0.4855228293473416;-1.4309596431758393;0.2357324178174478;0.774199153697099;0.24857436313346584;-0.9973874444859279;0.06178921400720814;0.34212878190146623;0.035728389184138724;0.7731379050949979;0.02600183542367697;0.1345977363107983;0.24311873065591919;0.05910671719574538;0.279737624651089;0.6117403514444087;0.2529123532346255;0.0
0.5093315081877278;-1.1552615090565048;0.2594185852327854;0.7805382985241788;0.23098166130544004;-0.8863680155902064;0.05335252785942101;0.30411175024738824;0.035465176134142164;0.9468790466704958;0.019373916590190696;0.1345977363107983;0.2944285585064988;0.08668817606421479;0.2825572937945402;0.7798576031497911;0.2970959022912971;0.0
0.5396745670901644;-1.3891640540042955;0.2912486383639563;0.926898287525144;0.21244390431933002;-0.772298627724891;0.04513241248244065;0.27607232383474045;0.03645903619274444;0.5762593904609137;0.023197715917202027;0.1345977363107983;0.318077954740075;0.1011735852916292;0.4165692073478018;-0.19828307167973788;0.31251735112994716;0.0
0.5194072176562539;-1.1400564664936401;0.26978385775341107;0.7805382985241788;0.21836395344208553;-0.8541757844627215;0.0476828161628573;0.30411175024738824;0.0364227221873715;0.5744532249432003;0.023197715917202027;0.1345977363107983;0.30637207010099093;0.09386384533796649;0.3520712248561291;0.2900504977170196;0.3049872007405039;0.0
0.7042224152337465;2.0339872272313655;0.49592921011765123;0.667348340746708;0.21842193657891593;-0.8517937004685191;0.04770814237888397;0.30411175024738824;0.036681319241424995;0.4262532579559882;0.0298256347506883;0.1345977363107983;0.5236215613268058;0.2741795394863219;0.4123192816247624;3.709527849453299;0.4589393378568729;0.0
0.7119635007462581;1.4738121481249202;0.5068920263948672;0.8278154338288553;0.22253307460686997;-0.4973539945868146;0.04952096929398675;0.2503421004263283;0.030318689572005366;0.9546071432512216;0.01631487712858165;0.1091057407973895;0.5238276081721145;0.2743953630833183;0.5510796509084411;2.9718936227633144;0.44197705267445425;0.0
0.7148358650828772;0.4975036802083221;0.5109903140087855;0.6361221948640069;0.21024614134026284;1.1303584860512053;0.044203439948469786;0.1689220119800544;0.029926448589375123;1.0751229205122481;0.01223615784643625;0.1091057407973895;0.5303189513054398;0.2812381901137015;0.5427589491194449;0.9524691761741407;0.40074446464863045;0.0
0.883138645810937;-0.28834917362636614;0.7799338677247757;0.8729436166968737;0.16626812438008634;0.9366622699893368;0.027645089184871866;0.1689220119800544;0.032300267521789494;-0.14878101579377143;0.022432956051799725;0.1091057407973895;0.6559167422334427;0.4302267727421324;0.7204888019162898;-0.1337509413445092;0.444614256562966;0.0
1.3334122261849344;1.9507618251928307;1.7779881649394627;1.3382000064553838;0.2164911857338693;4.075371597670324;0.04686843350045669;0.1689220119800544;0.02657977450389209;0.4974324230151732;0.01223615784643625;0.0897318242071988;1.0724274660442532;1.1501006699260978;1.0591441785533324;3.4954488300401305;0.5988817897495846;0.0
1.2428983682576238;2.5901091790585498;1.544796353817464;1.225106485374162;0.26315981100664676;0.8486308025719818;0.06925308612905404;0.19293240228492914;0.02319716413584494;1.4736824129951958;0.012491077801570348;0.0897318242071988;1.0386568486760392;1.0788080493016405;0.982048895841553;3.9239311326605173;0.5663203171399718;0.0
1.514003064159349;0.6892762355383569;2.2922052782838973;1.4687841496171459;0.2899756514468569;-0.8087608145951719;0.08408587843202904;0.3659088600740391;0.02454174084141401;0.720637369470701;0.027021515244213375;0.0897318242071988;1.3421280970105018;1.8013078287850313;1.2657048422292303;1.0481731341001295;0.6156764496086679;0.0
1.4327662939099322;0.6882077392420733;2.052819252964402;1.3325968338319363;0.30356238282032444;-1.5508251333948686;0.0921501202635532;0.5739830558187449;0.024714888737569468;0.9733121932711356;0.02740389517691445;0.0897318242071988;1.291869116709507;1.668925814707802;1.1735224613033817;1.0474360730092593;0.5651774771758016;0.0
1.3901101799186084;0.1640645932421541;1.9324063123133461;1.5356653254458223;0.30537497492240373;-1.7468108813671894;0.0932538753088587;0.5521698704362172;0.023145833512422023;1.44643445273358;0.02676659528907922;0.0836137452839807;1.2649297950410008;1.600047386382468;1.4142071985850944;0.4784532599440701;0.5184699314005099;30.0
1.3807415077814853;-0.33226516130878786;1.9064471113106896;1.8736836534751833;0.3026337160320522;-1.5473405492828491;0.0915871660793688;0.4950507835165033;0.02312421342234155;1.4867293325339757;0.02676659528907922;0.0836137452839807;1.255546796998047;1.5763977594520546;1.7073166090283851;-0.07025927777112631;0.4862129744163323;0.0
1.3942607387472303;-0.8804562735343653;1.9439630076119725;1.8333650630874943;0.3047062527277757;-1.13219685494617;0.09284590045140312;0.4762135581231776;0.021550778454714006;1.5305567723191689;0.025874375446109973;0.0774956663607626;1.2701032521821847;1.6131622712037623;1.562378090587511;-0.8033698859987131;0.4522451516153664;0.0
1.606147391741683;-0.17050977645780246;2.5797094439986115;2.087926684340883;0.294285401890515;0.11491793714805063;0.08660389776586191;0.36446671702430367;0.021750876069886797;1.1607662985425324;0.028168655042316724;0.0774956663607626;1.5280452032493486;2.3349221431733427;1.9904476666493087;0.007069234423133569;0.4712799982861616;30.0
1.7833993044986205;-1.0364040287438823;3.1805130792861633;2.5413264741958086;0.31613242906176037;1.1239178884241723;0.09993971270448897;0.15808467142855132;0.02286937827653407;1.2731219388913486;0.03135515448149282;0.07953502600183529;1.7034315532310702;2.9016790565432165;2.4411502201782564;-0.9839643473463368;0.48150483685752843;30.0
1.634270523862538;-0.8152535956452829;2.670840145165934;2.1062835862266702;0.2769977892746641;4.704067965039754;0.07672777526305122;0.08910238321919256;0.02531743428574966;-0.2571885110791988;0.03441419394310184;0.07953502600183529;1.5894373265722765;2.5263110151012254;2.0447678128063407;-0.7477437689291454;0.4347787485284501;0.0
1.5405834177007607;-0.6412486257584311;2.3733972668945564;1.8871392763505854;0.15198989451170689;3.6282467342426497;0.023100928033679788;0.07909270183037548;0.03131175854113937;0.06641661320371099;0.03658101356174159;0.1142041399000712;1.5247284818002114;2.3247969432127777;1.8633599437308508;-0.6235180772741015;0.3958317961096225;0.0
1.5376384034012138;-0.6249755628449609;2.364331859614234;1.8761298906892114;0.14264829225726808;1.3269188848161189;0.02034853528391497;0.10544569952235328;0.035629456188681685;0.9012187085156471;0.035943713673906426;0.1300091771183848;1.5272688757582225;2.332550218859785;1.8729703305564769;-0.6377574103800018;0.3968213171551178;0.0
1.676295664867902;-0.7738497986675933;2.8099671560549213;1.9868142404682585;0.2586403735259397;4.047814076897895;0.0668948428176376;0.2049532082337166;0.036480175678706935;0.6873704370389773;0.03900275313551545;0.1300091771183848;1.6599457285664647;2.7554198217860515;1.9902128540256263;-0.7813953562065611;0.4631357203520452;30.0
1.9157309775793312;0.017782741143198184;3.67002517845706;1.9868142404682585;0.3323929963064617;0.6795384682041654;0.11048510399358746;0.379390157996833;0.04142251391272483;0.1840465360126561;0.0425716325073927;0.1463240542469664;1.7591762911109554;3.094701223206897;1.9902128540256263;-0.5690781190077107;0.499165921782084;30.0
1.9936658315780775;-0.3024667838020485;3.974703448001907;2.1706469905008703;0.45004000801161437;0.5848490858583166;0.2025360088110939;0.47369397100674365;0.04576292475878692;-0.754867068476915;0.0527684307127562;0.1463240542469664;1.8086855227169423;3.2713433200858586;2.1400254726186874;-0.4186196751629502;0.5647042393056602;30.0
2.1160906110776883;-0.7539027844534796;4.4778394742911445;3.0314803998552424;0.5625230880274741;-0.1963709663778761;0.31643222456396536;0.8126571070202406;0.0457188614674745;-0.6847610433894525;0.0527684307127562;0.1463240542469664;1.8729888766724208;3.508087332138617;2.8303367795291976;-0.6416362716480345;0.5998318598976288;30.0
2.218418232231391;-1.0294284614516123;4.921379453096649;3.51985440734399;0.665228071547457;-0.826313546655898;0.4425283871747485;0.9480779371677641;0.04600155413797261;-0.5613090531963116;0.0527684307127562;0.1463240542469664;1.9249377095599893;3.705385185686058;2.8303367795291976;-0.7413819035119982;0.6420789249376422;30.0
2.3552340650768038;-1.1099742540342434;5.547127501298205;3.6109074746751264;0.738658773546865;-1.3208816443219709;0.5456167837377589;1.2727949587065552;0.045913114167033815;-0.6940460943609285;0.0527684307127562;0.1463240542469664;1.9606656902042705;3.8442099487441883;2.8303367795291976;-0.6651196107215103;0.6854028655933843;0.0
2.3335961588765386;-0.5421328158927098;5.445671032723336;2.6489318500494483;0.797313961167269;-1.5583910970420252;0.6357095526722415;1.3443781407906998;0.045256315373909936;-0.7196989757280701;0.050474151116549376;0.1463240542469664;1.931610403746221;3.7311187518606386;1.870525946723205;0.0297122675363375;0.7197673315932727;0.0
1.9532517789262691;0.9260322564720702;3.815192511878635;2.2231647793284965;0.8520216159093679;-1.5279915121317464;0.7259408339768104;1.51100562601227;0.04635260707916043;-0.9994506964217906;0.07469154685428772;0.1463240542469664;1.540230017194321;2.372308505866419;1.3732939305773777;2.2392366293908896;0.6617471308651306;0.0
1.426947732746228;1.1560305660737071;2.0361798319896005;1.2672529825535694;0.8990382084030707;-1.385487142995342;0.8082697001686031;1.338071247526833;0.04632336925897971;-0.9948709776822062;0.07469154685428772;0.1463240542469664;1.00363072331521;1.0072746287822114;0.9384344464357537;2.462687767115474;0.5003099233483431;0.0
1.4922373572685317;2.55724586086616;2.2267723304277713;0.9006870958337887;0.8863629748864426;-1.019731232017185;0.7856393232495443;1.3770835497418321;0.04258777299045983;-0.3576262194488872;0.05812174977057198;0.1463240542469664;0.9955814899321576;0.9911825030955348;0.9384344464357537;2.7105110085655015;0.49861919268896754;0.0
1.1100963486212105;0.5349569833326616;1.2323139032221442;0.9006870958337887;0.82630925960516;-0.9826996903842888;0.6827869925092277;1.2461888730240875;0.06381922554021807;2.377905370484939;0.06296522891811965;0.2452329968389925;0.8052336221867901;0.6484011863000582;0.9384344464357537;0.18038474349147451;0.4194636181214426;0.0
1.610575200516895;4.25365934740831;2.5939524765200366;0.9006870958337887;0.7334214419845553;-1.0778619337478739;0.5379070115627044;1.0826945840912092;0.0690200263273327;1.0143551926589522;0.06296522891811965;0.2452329968389925;1.3377808954731527;1.7896577242929503;0.9416966970418943;3.800748389007256;0.6182994864495076;0.0
1.8829004824434799;0.9255214253078091;3.5453142267858895;1.171772131165315;0.6617139092009136;-0.5420897330613299;0.43786529762995485;0.9966785991959992;0.06634670179542439;1.1089748295374686;0.050729071071683424;0.2452329968389925;1.5224215811475028;2.3177674707436626;1.4125128675920413;0.5915642388034296;0.6202627393357367;0.0
1.8910126189863787;0.019064203635091797;3.575928725165723;2.1209865146384965;0.5997244082121159;-0.7181588854811847;0.3596693658053727;0.8336894936090908;0.059742692663960775;1.6865735469310923;0.050219231161415245;0.2013867645559295;1.470708803155928;2.162984383680342;2.0540564928084066;-0.34077265121076405;0.5352268411231165;0.0
1.9412991105253132;-0.6944616871260451;3.768642236526372;2.538978292063022;0.5536244210956456;-0.8057203982973716;0.30649999963348873;0.6963807396601838;0.05957104550737301;1.8119659804275758;0.04894463138574483;0.2013867645559295;1.443435286841787;2.083505427300032;2.2488656576007497;-1.0161733690032464;0.4800818805005593;0.0
2.3998899786102403;-0.516279828722695;5.759471909433859;2.996501318140205;0.511558504877624;-0.9357955855741181;0.26169210391263004;0.6772292380685796;0.06230389285433565;1.451263172898308;0.04894463138574483;0.214642602222902;1.803836691504917;3.253826809619406;2.3496801221825305;0.08361792441707255;0.5144229155614785;60.0
2.4307457578198863;-0.8973997195299792;5.908524939159374;3.8550177933603624;0.5120327786023047;-0.7066245833044534;0.2621775663631967;0.7941147338492942;0.059812662233478;1.7713992752592251;0.04537575201386761;0.214642602222902;1.7753652950124834;3.1519219307347623;2.8624105997437748;-0.5325414699452583;0.4636350488662522;60.0
2.5940790470197816;-0.9164770557864851;6.7292461021870595;3.765544032773869;0.47213093775406295;-1.018554831930698;0.22290762238453088;0.6182186331387469;0.05895739511305817;1.7331301360466809;0.04461099214846538;0.214642602222902;1.9194643456944833;3.684343374392351;2.909800358888016;-0.9018341515709797;0.4445516844466186;60.0
2.6308992148284163;-0.7881212004108622;6.921630678584776;3.386144763364479;0.40750803977872746;-1.1803182341210527;0.16606280248430091;0.5414912085456396;0.058567724149832516;1.364555654651603;0.052513510757622145;0.214642602222902;1.8763254935528342;3.520597357756287;2.558053150086068;-1.1608748442776258;0.39895202264223384;60.0
2.7575003511581495;-0.1816864537993183;7.603808186637317;3.3738319400064665;0.35366496676721854;-0.9756374315599108;0.1250789087184578;0.5274927263805558;0.059131489674483305;0.9707656913430115;0.06016110941164475;0.214642602222902;1.9619231271481876;3.8491423568389234;2.8295785682637424;-1.002994725846945;0.3754407598019357;60.0
2.5885185315798096;1.1263411653294275;6.7004281883320935;3.653831101413141;0.3197060251149642;-1.1637875921103127;0.10221194249481012;0.5043885150586158;0.057676116781737716;1.1741766069886428;0.05174875089221988;0.214642602222902;1.8058698623346219;3.2611659596884666;3.1225986894442093;-1.2184730768101262;0.3186110237724645;60.0
1.9931687108207359;-1.4917697737548599;3.9727215097947943;3.653831101413141;0.3264077627256616;-1.1485158227435943;0.10654202756757178;0.5043885150586158;0.056116281434022815;1.4245305809359194;0.033904354032833664;0.214642602222902;1.7445882216385522;3.043588063079966;3.1225986894442093;-1.4111463186283537;0.30582972245705614;60.0
2.3522002121869594;-0.329436947345359;5.532845838212378;3.653831101413141;0.3640082436319115;-1.2373094710836356;0.132502001431989;0.5274927263805558;0.04238357737715893;0.9408869125496198;0.04639543183440405;0.1641684511063526;1.9289995954322734;3.7210394391778747;3.1225986894442093;-0.9299477696484442;0.3449059489996133;60.0
2.6952034482815037;-1.0740805785187066;7.2641216276285085;4.016193559195801;0.4087246653029811;-1.1087464286708066;0.16705585202703394;0.5496779229141469;0.032122121370249244;0.24195729220932283;0.036198633629040536;0.1111451004384623;2.1836019171796326;4.768117332710568;3.486751201115688;-1.3583475693987124;0.4126045314597863;60.0
3.0711585142698037;-1.4555545399753602;9.432014619771907;5.0874532128681125;0.47164213000402977;-1.10060657600904;0.2224462987947381;0.6575544798145554;0.033182231663561434;0.013106309904866166;0.04563067196900179;0.1111451004384623;2.3771347371384715;5.650769558510389;4.440585160144156;-1.7024958866874171;0.4702139150398612;60.0
3.365084939024392;-1.7677779088674719;11.323796646848795;6.659164830095024;0.5404911290933042;-1.2108975043620893;0.29213066062855486;0.8012705335301389;0.03829994785250897;0.9467216464350947;0.04002243295605187;0.1488732537983073;2.5345959445964685;6.424176602364866;5.210533483652862;-1.9077136423338468;0.520154536698993;60.0
3.364301794324485;-1.7453199456573727;11.31852656329495;6.659164830095024;0.6094805573055213;-1.1679973077638603;0.3714665497334489;0.9395311226645227;0.039302792373074165;0.4378791249038367;0.047924951565208575;0.1488732537983073;2.536747048637761;6.435085588772392;5.210533483652862;-1.9138609721895472;0.5214490707964734;60.0
3.265393972941328;-1.6380430726979038;10.66279779852155;6.110475753705057;0.6713481857450377;-0.9552142419521823;0.45070838650315376;0.9604123231274937;0.03168623440511798;0.5228045152784021;0.04002243295605187;0.113184460079535;2.541825817569535;6.460878486863035;4.79972027988549;-1.6777024811058956;0.576111934853985;60.0
3.2473890242981676;-1.534927188654688;10.545535475132205;6.110475753705057;0.6820884812574592;-0.8404633107788666;0.46524469626410736;0.9105749053170418;0.041500429661227266;1.1642397734718126;0.043336392372795005;0.16212909146527982;2.558868323631134;6.54780709768281;4.79972027988549;-1.4506149535428414;0.6108377352899906;60.0
3.102170808756963;-0.8995523227644576;9.623463726703829;4.382805166729131;0.7006547461550607;-0.8741305685061314;0.4909170733096126;0.9683121770835175;0.04866736086595291;-0.20810956824759994;0.05939634954624247;0.16212909146527982;2.5091360093252515;6.295763513292649;2.7886165306261947;-0.3510616385365564;0.6924591719417647;60.0
2.9016224551062453;0.27293909553655266;8.419412871976794;2.887954874594312;0.742720082146817;-0.897759958990735;0.5516331204241746;1.0735853199906242;0.04751285896439865;-0.006178810642731175;0.050983991026817596;0.16212909146527982;2.3484034107403042;5.5149985795766945;1.4143897693885412;1.5283830329994372;0.7219831086746883;60.0
2.420168088876493;1.5625032694754977;5.857213578416097;2.464123293810383;0.7973967554032738;-0.9671582670303489;0.6358415855276686;1.1865002849698696;0.04563313177022212;0.41353167941789165;0.04499337208116652;0.16212909146527982;1.7510952418649866;3.066334546082196;0.9619127889260413;5.435350807032503;0.6562929024708268;60.0
1.8225234312576497;-0.8679403517209304;3.321591657483157;3.00346153987845;0.8767022792009638;-0.9827709499398604;0.7686068863561647;1.307057072021229;0.04657485735984676;0.21747490281811552;0.05276843071275619;0.16212909146527982;0.8731701874671955;0.7624261762814974;0.424346506520338;1.8929121768835544;0.3944466509494977;60.0
1.7926027932494926;-0.6716853821520659;3.2134247743658833;2.665151067881476;0.9609852828700921;-0.9974125142429955;0.9234927138929109;1.4352556811447046;0.046089311694558745;0.6394576785858868;0.04129703273172223;0.16212909146527982;0.8232919636190573;0.6778096573597232;0.3001785540523103;3.9603549315331104;0.3914935576661126;60.0
1.7926027932494926;-0.6716853821520659;3.2134247743658833;2.665151067881476;0.9609852828700921;-0.9974125142429955;0.9234927138929109;1.4352556811447046;0.046089311694558745;0.6394576785858868;0.04129703273172223;0.16212909146527982;0.8232919636190573;0.6778096573597232;0.3001785540523103;3.9603549315331104;0.3914935576661126;60.0
1.7926027932494926;-0.6716853821520659;3.2134247743658833;2.665151067881476;0.9609852828700921;-0.9974125142429955;0.9234927138929109;1.4352556811447046;0.046089311694558745;0.6394576785858868;0.04129703273172223;0.16212909146527982;0.8232919636190573;0.6778096573597232;0.3001785540523103;3.9603549315331104;0.3914935576661126;60.0
1.7926027932494926;-0.6716853821520659;3.2134247743658833;2.665151067881476;0.9609852828700921;-0.9974125142429955;0.9234927138929109;1.4352556811447046;0.046089311694558745;0.6394576785858868;0.04129703273172223;0.16212909146527982;0.8232919636190573;0.6778096573597232;0.3001785540523103;3.9603549315331104;0.3914935576661126;60.0
1.7926027932494926;-0.6716853821520659;3.2134247743658833;2.665151067881476;0.9609852828700921;-0.9974125142429955;0.9234927138929109;1.4352556811447046;0.046089311694558745;0.6394576785858868;0.04129703273172223;0.16212909146527982;0.8232919636190573;0.6778096573597232;0.3001785540523103;3.9603549315331104;0.3914935576661126;60.0
1.7926027932494926;-0.6716853821520659;3.2134247743658833;2.665151067881476;0.9609852828700921;-0.9974125142429955;0.9234927138929109;1.4352556811447046;0.046089311694558745;0.6394576785858868;0.04129703273172223;0.16212909146527982;0.8232919636190573;0.6778096573597232;0.3001785540523103;3.9603549315331104;0.3914935576661126;60.0
1.858106675057767;-0.9223585370813681;3.4525604158942302;2.949948713207779;0.12874643885383955;0.4493835434850313;0.016575645517545444;0.15664458421156446;0.03626882360766113;0.928990853131332;0.04371877230549605;0.1320485367594575;0.9751505117311042;0.9509185205294345;1.1890228642153349;0.503761429502937;0.3125754002191706;60.0
1.858106675057767;-0.9223585370813681;3.4525604158942302;2.949948713207779;0.12874643885383955;0.4493835434850313;0.016575645517545444;0.15664458421156446;0.03626882360766113;0.928990853131332;0.04371877230549605;0.1320485367594575;0.9751505117311042;0.9509185205294345;1.1890228642153349;0.503761429502937;0.3125754002191706;60.0
1.858106675057767;-0.9223585370813681;3.4525604158942302;2.949948713207779;0.12874643885383955;0.4493835434850313;0.016575645517545444;0.15664458421156446;0.03626882360766113;0.928990853131332;0.04371877230549605;0.1320485367594575;0.9751505117311042;0.9509185205294345;1.1890228642153349;0.503761429502937;0.3125754002191706;60.0
1.858106675057767;-0.9223585370813681;3.4525604158942302;2.949948713207779;0.12874643885383955;0.4493835434850313;0.016575645517545444;0.15664458421156446;0.03626882360766113;0.928990853131332;0.04371877230549605;0.1320485367594575;0.9751505117311042;0.9509185205294345;1.1890228642153349;0.503761429502937;0.3125754002191706;60.0
1.858106675057767;-0.9223585370813681;3.4525604158942302;2.949948713207779;0.12874643885383955;0.4493835434850313;0.016575645517545444;0.15664458421156446;0.03626882360766113;0.928990853131332;0.04371877230549605;0.1320485367594575;0.9751505117311042;0.9509185205294345;1.1890228642153349;0.503761429502937;0.3125754002191706;60.0
1.858106675057767;-0.9223585370813681;3.4525604158942302;2.949948713207779;0.12874643885383955;0.4493835434850313;0.016575645517545444;0.15664458421156446;0.03626882360766113;0.928990853131332;0.04371877230549605;0.1320485367594575;0.9751505117311042;0.9509185205294345;1.1890228642153349;0.503761429502937;0.3125754002191706;60.0
1.858106675057767;-0.9223585370813681;3.4525604158942302;2.949948713207779;0.12874643885383955;0.4493835434850313;0.016575645517545444;0.15664458421156446;0.03626882360766113;0.928990853131332;0.04371877230549605;0.1320485367594575;0.9751505117311042;0.9509185205294345;1.1890228642153349;0.503761429502937;0.3125754002191706;60.0
2.2121268509515164;-0.6893063726584937;4.893505204700673;3.2614389287872703;0.16599139222178688;0.03832888445571333;0.027553142291727086;0.2236515763986171;0.036230579727442216;1.4228706010664869;0.029188334862853035;0.1320485367594575;0.9769451701651696;0.9544218655090522;1.1890228642153349;0.15544988088838194;0.30836621293057725;0.0
2.2035428005903173;-0.6087646185755792;4.855600874033419;3.2614389287872703;0.20693569245842333;-0.23881185215150633;0.04282238081324716;0.28796466590594605;0.03349093551086203;1.0709908771268046;0.04499337208116657;0.1106352605281942;1.0347932958125665;1.0707971650586339;1.201127199088789;-0.05395752860344045;0.3352716369368326;0.0
2.0481817503234625;0.21025503107687643;4.195048482358082;2.1390347100457836;0.25542625973732386;-0.2667286485840173;0.06524257416339883;0.35671255213720565;0.023849789643775095;-1.0915716665754713;0.03811053329254618;0.0698480677067401;0.9667856571833294;0.9346745069354021;1.1754995620964062;1.9693759266788018;0.3372068358112086;0.0
1.9003215601451149;1.795114996326346;3.611222031952363;1.6755321762522135;0.34508489430175665;0.9222959300732713;0.11908358427525455;0.43047930929002964;0.022747643150232054;-0.863935895856015;0.03709085347200982;0.0698480677067401;1.0053507667460302;1.0107301641968307;0.7373285892744263;3.214927650969951;0.37811489231109513;0.0
1.7630422868357278;4.169767198755085;3.108318105170953;1.5407775858716115;0.4017448936839177;-0.3589839719922218;0.16139895960110232;0.5148139657435342;0.022084162555884565;-0.7365673401342235;0.03313959416743144;0.0698480677067401;1.0375957393763326;1.0766049183719184;0.5868078956217653;4.2452119422532695;0.4194177104166235;30.0
1.305122782169192;0.3282397626393946;1.7033454765370521;1.2084870953182931;0.45337431842138076;-1.0039578880143034;0.20554827260405154;0.66604470176333;0.02092786835784209;-1.177730751992394;0.03313959416743144;0.06271030896298571;0.6626469071139528;0.4391009235076876;0.5868078956217653;-0.006454889789685897;0.2857503211985726;30.0
1.5749656999231414;-0.6939720090633027;2.4805169559343905;1.742748628587787;0.5370861509610179;-0.6663965729640324;0.28846153355412124;0.8767658675373631;0.02100825967746418;-1.1738653629387816;0.03313959416743144;0.06271030896298571;0.7752026893543006;0.6009392095821403;0.8138671265362196;-0.6203401029698954;0.3208464270883806;30.0
1.9243274550359604;-0.9913559938267099;3.703036154205176;3.165362735131332;0.6115166460908343;-0.8740572584336904;0.3739526084461828;0.8705968930824031;0.021801652259980885;-1.2867408758458778;0.03747323340471097;0.06271030896298571;1.0153893278145345;1.0310154870396524;1.407202717197401;-0.0002201636039008766;0.39212525378664453;30.0
2.1505041228211996;-1.6674576831908698;4.624667982270978;3.5236074007307394;0.6621714454844596;-1.2472499800545664;0.4384710232149787;0.9877711725686547;0.0256200607890105;-0.18510355222656408;0.03747323340471097;0.08871214438666261;1.1621459423886744;1.35058319141046;1.5547817294009751;-1.0099168623312305;0.41948812600961366;30.0
2.1184346586529563;-1.8823208559241418;4.487765402982067;3.68352467739059;0.7023297721242615;-1.4167877248407104;0.49326710881211705;1.2200075298304451;0.029615431823382436;-0.45725829853735656;0.03747323340471097;0.09279086366880801;1.1926345829209053;1.4223772483789219;1.7642009107258636;-1.402117093549474;0.41304287099973885;0.0
1.9523084775295623;-1.721065892384392;3.8115083914337973;3.4849854713580166;0.7286849413645048;-1.4651877737938515;0.5309817437713918;1.264416754119378;0.03505277894103687;-0.9440180492618986;0.05123891098195169;0.10604670133578051;1.1818775348306447;1.3968345073373616;1.7642009107258636;-1.3320918070260093;0.40131069087111715;0.0
1.870319572046359;-1.378400464085142;3.4980953015796756;2.9738641485726043;0.7463186080635172;-1.381306626646778;0.5569914647418659;1.0981383538210356;0.039488339549752456;-1.4163956815855547;0.07520138676455591;0.1111451004384623;1.2275793929832408;1.506951166077102;1.8912329748695396;-1.5015807405905734;0.4234952621096227;0.0
1.8629038291363376;-1.3738455365548137;3.4704106766108285;2.9738641485726043;0.758580669481445;-1.215686347989916;0.5754446321109173;1.1584098078243161;0.040532540077132174;-1.6598875331622338;0.07520138676455591;0.1111451004384623;1.2196556694222795;1.4875599519539089;1.8912329748695396;-1.3962954737196769;0.43335635079000223;0.0
1.6243770524910148;-1.0155335872529716;2.638600808659397;2.2930393169025587;0.7714897551396895;-1.038848027082513;0.5951964422854981;1.2104289892424531;0.037772805781627894;-1.2388170288963487;0.05455287039869475;0.1111451004384623;1.2061066082040457;1.4546931503534675;1.8912329748695396;-1.3265235238551705;0.42535458098827905;0.0
1.5493451935120865;-0.30953858861979155;2.400470528659005;1.7168501406698278;0.7452838219990829;-1.238605887637734;0.5554479753335607;1.0973463333989333;0.03512719283950019;-0.41727532976325393;0.044101152238197175;0.1111451004384623;1.1740322359674051;1.378351691090625;1.671809474389078;-1.1246722383222183;0.40448775695036737;0.0
1.321403118981395;1.063180204340893;1.7461062028537588;1.3448969703082039;0.7261452232884815;-1.1402771365750735;0.5272868853046787;1.0939843782159224;0.031135040180564486;1.2676245027049895;0.03441419394310183;0.1111451004384623;1.0741669152228666;1.1538345617594088;1.3367821527401564;-0.7073075059319642;0.3571175946868397;0.0
0.9572785397900998;-0.695573722317443;0.9163822027426657;1.2169794828736453;0.6576222222165635;-1.0680870132537026;0.4324669871530512;1.1482291263607856;0.031557701440097535;2.1382605626210824;0.030335474660956405;0.1111451004384623;0.9420235944642867;0.887408452527415;1.1663602323400597;-0.5724714448342568;0.2935142449796142;0.0
1.0138741476360644;-1.1569208957255095;1.0279407872447563;1.464738301083643;0.5647210066945965;-1.4357172079155291;0.31890981540215846;0.9743134843134229;0.020571074990086143;0.1533129193929868;0.02243295605179965;0.0693382277964718;0.9990895678330947;0.9981799645529198;1.37702338766739;-1.0287760168646836;0.3033626595336844;0.0
1.0982076699569194;-1.4346583992287836;1.206060086352206;1.8975993147340589;0.4972957182583322;-1.2473257951433172;0.2473030313980705;0.8054310768910309;0.01606578040721371;-0.5836328029629284;0.020648516365861024;0.0530233506678902;1.0846904835876037;1.1765534451855095;1.8415109009088395;-1.3172125248589768;0.3206370621771826;0.0
1.0326380834181312;-1.2080065031730962;1.0663414113254712;1.4945211345855447;0.420000418396096;-0.5248759770543074;0.17640035145289568;0.5994351649828153;0.016942750662951027;-0.08499813961314165;0.020648516365861024;0.058121749770571995;1.0206988995313415;1.0418262435044918;1.4322010561633753;-1.0620114261315539;0.307740994083293;0.0
0.976713124314229;-1.0292016549171332;0.9539685272076626;1.4084139718094417;0.33288868910683606;0.19242535502490468;0.11081487933526776;0.36007642714974275;0.0239864601131248;1.0599132547209094;0.02243295605179965;0.0836137452839808;0.9673581124527598;0.9357817177281663;1.3383429073153819;-0.8424377746316761;0.2960514135520426;0.0
0.981256091518355;-1.0650389580100366;0.9628635171418783;1.4366014383925387;0.25270659567833104;1.0543185348664066;0.06386062349933148;0.2697026238552451;0.023728934877468633;1.0775625230922856;0.02243295605179965;0.0836137452839808;0.9732716228599413;0.9472576518644238;1.362922974237026;-0.8942920033042299;0.2970555386131257;0.0
0.9879502318964458;-1.0661686710118172;0.9760456607042411;1.4366014383925387;0.17928187317449099;0.5598473541943153;0.03214199004895427;0.24421616911568744;0.022525463479529384;1.2378690153348517;0.0183542367696543;0.0836137452839808;0.9779232084154844;0.9563338015576349;1.362922974237026;-0.8621661205851593;0.29366418205287415;0.0
0.8259738267642093;-1.0623850197241362;0.6822327624995119;1.2985879885338938;0.13208079307580198;-2.0784662007984003;0.01744533589953282;0.23069330827776624;0.020905508738223364;1.747907188995632;0.0183542367696543;0.078515346181299;0.8037676845003836;0.6460424906471082;1.221013187650469;-1.013849556865151;0.23110396071207945;0.0
0.7941214290657179;-0.8412076042291093;0.630628844101378;1.1781514840153635;0.11941544650207875;-1.9804861670682923;0.01426004886329083;0.22247076862334414;0.021399845499280364;1.5052448578704627;0.024727235648006503;0.078515346181299;0.767345102654454;0.5888185065677745;1.1284997988808523;-0.7949440962617864;0.21869595794644092;0.0
0.6822407651884002;-0.5523424882440168;0.4654524616848537;0.7811709349416391;0.12718241760851565;-1.8909901718917053;0.01617536734874687;0.22519339815424677;0.021248245890818775;1.8094337619632634;0.020329866421943503;0.078515346181299;0.6642578573213218;0.4412385010131135;0.7885283117311057;-0.5644876968109404;0.18164581730185994;0.0
0.6657293368200415;0.06935884789754267;0.44319554990285237;0.48691382855412657;0.1360556209924263;-1.8855786536962105;0.01851113200363475;0.24513309798662675;0.024761366667841397;-0.19026079067164625;0.028551034975017826;0.078515346181299;0.6549564671618744;0.4289679738771634;0.4918895739196625;-0.09377676775699038;0.17165269956877263;0.0
0.577865641443163;-0.20688802216505134;0.3339286995605182;0.48691382855412657;0.13330569201854017;-1.8448392110676402;0.017770407524541884;0.2373736548507187;0.031168630273682864;0.3119951597239151;0.030080554705822375;0.11216478025899859;0.5751640580172996;0.3308136936349276;0.4918895739196625;-0.23676409432542553;0.1488776200697604;0.0
0.6096829720548241;-0.5232872894943745;0.3717133264136035;0.7817923266224485;0.13293535088828762;-1.8244393624164492;0.01767180751579215;0.2373736548507187;0.029992531230754557;0.9683123173803223;0.028551034975017826;0.11216478025899859;0.60727669619554;0.3687849857421703;0.8034344219836829;-0.6013553424182501;0.1543287533657021;0.0
0.692753342087428;-0.8838389547411402;0.47990719297330103;0.8558961234836402;0.13348945022024938;-1.8510403242192555;0.01781943332010444;0.2373736548507187;0.032671813987681445;0.014558440816391441;0.030080554705822375;0.11216478025899859;0.6836697247401853;0.4674042925263207;0.8612907895987698;-0.9145435200130154;0.18001838770555406;0.0
0.7091504315280794;-1.0627075598285236;0.5028943345364613;0.9318745727494493;0.14473191306539304;-1.809609508352373;0.020947326659568492;0.260958449108983;0.0326560187282525;0.01648760621033855;0.030080554705822375;0.11216478025899859;0.6878448264758247;0.4731305053095573;0.8979316361831082;-1.0587089824080693;0.19027286255778617;0.0
0.7089543790954695;-1.0819140030805083;0.5026163116386427;0.9318745727494493;0.1571430602033171;-1.5474675082679838;0.02469394137006334;0.30309060785560693;0.031778288615592724;0.36554404592839784;0.021859386152748052;0.11216478025899859;0.6867256822030007;0.4715921625971767;0.8979316361831082;-1.0263831208723262;0.1924378911989429;0.0
0.8419024600998531;-0.557080839725356;0.7087997523221847;1.1804933088256249;0.15503749088231117;-1.2688995468607922;0.024036623579082716;0.23256812495048762;0.027118439463083756;1.1365345565404614;0.022496686040583178;0.10604670133578051;0.8020387870973463;0.6432662160085824;1.144863313492758;-0.6478320255658597;0.23552649738722578;0.0
0.9342888353785932;-0.7422139423295151;0.8728956279130881;1.1621504976570796;0.14076678979426988;-0.5337251555160327;0.019815289108984165;0.16435376133623958;0.02723524401802961;1.047412740342369;0.022496686040583178;0.10604670133578051;0.8876987972474357;0.788009154634544;1.0966320668473033;-0.7411383512770714;0.274040193776455;0.0
0.9585262680432547;-0.7601816834596996;0.9187726065289294;1.0803214236559846;0.131088370862679;-0.5216870775357689;0.017184160975431267;0.16435376133623958;0.028611485156720167;0.45455569179971966;0.022496686040583178;0.10604670133578051;0.9195825260129162;0.8456320221482958;0.9982146622347452;-0.7531245675465679;0.29511019906092495;0.0
0.9543867042293003;-0.6239745976930913;0.9108539812096659;1.0100073649309111;0.12638233750192396;-0.8385157955223892;0.015972495232450215;0.16435376133623958;0.028688604137408934;0.43352020032528016;0.022496686040583254;0.10604670133578051;0.9175139468275177;0.841831842623009;0.9971035655121336;-0.6295110687988091;0.2970339658087341;0.0
0.9954262322528565;-0.8236336825206586;0.990873383857118;1.2759143088371099;0.16398853487183657;0.4820889118156427;0.026892239569411558;0.1761115981293282;0.028584010340792092;0.521618739780926;0.022496686040583254;0.10604670133578051;0.9660747106972994;0.9333003466488708;1.3252161805433196;-0.8352335923128995;0.3196484269501223;0.0
0.946836573501054;0.2374486859321596;0.8964994969192168;1.0119256686929203;0.20411609062436056;-0.3619086015015398;0.041663378451772176;0.2758610606854289;0.02927956643230503;0.22374807262191074;0.025746915468542873;0.10604670133578051;0.9213385635431295;0.8488647486717172;1.045140486752556;0.26099555547284203;0.3178440136313879;0.0
0.7667552358177331;2.198593470245995;0.5879135916539074;0.8841755486022604;0.22399913858916692;-1.275401732467928;0.05017561408868881;0.35115633943562796;0.027011565849944737;0.09142626135918022;0.025746915468542873;0.0897318242071988;0.7391475332959981;0.5463390759775586;0.8741361244712791;2.394552028200192;0.2683693171106448;0.0
0.7664928438477882;2.2101690294752983;0.5875112796698697;0.8828886853061304;0.24874167615877632;-1.632487532509355;0.06187242145827756;0.47690531800883107;0.02099550779252786;0.4094727805554132;0.017716936881819127;0.0734169470786172;0.7348562923715846;0.5400137704381118;0.8517426539575346;2.6125617529801213;0.2675363333699015;0.0
0.5351646712235242;-1.3890133159006544;0.28640122532578277;0.8828886853061304;0.31402019400731707;-0.6106923789314502;0.09860868224439306;0.5209724328350755;0.021032616762322077;0.34209416108693125;0.017716936881819127;0.0734169470786172;0.49128298233941275;0.24135896873630777;0.8517426539575346;-1.4534247803595621;0.18664155048675993;0.0
0.5439453801246471;-1.4555330487266067;0.29587657655894684;0.8828886853061304;0.3307601085389713;-1.1490208910309725;0.10940224940071207;0.5565477353086734;0.016485560396672143;-0.26063586408176637;0.016442337106148674;0.0560823901294992;0.496410952684423;0.24642383394505643;0.8517426539575346;-1.515074051383749;0.18756173723217226;0.0
0.5676854696879423;-1.4285927854760736;0.3222667924948197;0.9988314724342664;0.3344636818092112;-1.0628595727495798;0.11186595444937328;0.42782384968036563;0.016566171951204453;-0.3628748911823051;0.018354236769654274;0.0560823901294992;0.5172757968328894;0.2675742499891007;0.9354842298045418;-1.602513503270605;0.1920439607981015;0.0
0.5548712370980874;-1.3994861007333983;0.30788208975876186;0.9441188333199637;0.3016635478602303;-0.33925408583771993;0.09100089610762145;0.35748508473807306;0.01617084891113861;-0.11662233359255589;0.02332517589476903;0.0560823901294992;0.4913933989666899;0.24146747254803644;0.8812372558498858;-1.6194482305213092;0.18405742325405994;0.0
0.5170480241795701;-1.2344650501249261;0.26733865930799733;0.9071261487516127;0.2485146737573264;0.5411186982480211;0.06175954307271037;0.2313783820129749;0.01277069334344622;-0.8333185806448398;0.01809931681452023;0.0387478331803813;0.47576114175619083;0.2263486640051543;0.8455908921125879;-1.5520597154319455;0.17740617561177874;0.0
0.6187774919491267;0.9265611489799224;0.38288558454285154;0.9071261487516127;0.20385172500966925;-0.591868476861877;0.04155552578941781;0.2313783820129749;0.012725278326031894;-0.8096992792035672;0.017334556949118004;0.0387478331803813;0.5850891596144977;0.3423293246983992;0.8455908921125879;0.698203968860552;0.2224248723781284;0.0
0.9175058011195998;1.9691246716432866;0.8418168950881185;0.9485288462194754;0.212353569410756;-0.495003891742362;0.045094038441488765;0.2313783820129749;0.01129694912679872;0.24332163155513564;0.010196798205363577;0.0387478331803813;0.8040403171759186;0.6464808316443519;0.9223238094269179;0.9687572098768423;0.32109937056887866;0.0
0.9822982963280644;-0.07218041219400928;0.9649099429690179;1.2614044178214723;0.2271156285220114;-0.6016863802813368;0.05158150871894828;0.2369946103875037;0.012635828809564875;-0.23427658042101787;0.016187417151014603;0.0428265524625267;0.8620928019476787;0.7432039991699996;1.2080242539186834;-0.6795694864333282;0.365607928856863;0.0
0.9925717497363117;-0.3440565347666456;0.9851986783746033;1.4626549586456992;0.25479230455452173;-1.0595132485713648;0.06491911846020416;0.389988123833355;0.012016850747272241;0.16971535789751896;0.010196798205363577;0.0428265524625267;0.8687619263699933;0.7547472847101017;1.3260324507019359;-0.8387669030019841;0.3704964892828849;0.0
1.0845647525845201;-1.396454225148933;1.1762807025487214;1.8987896533553326;0.30096617329619124;-1.0197186888390743;0.09058063746855302;0.46074891529608974;0.012153723198632315;0.6148622951147615;0.013893137554807727;0.0428265524625267;0.9304832368917144;0.8657990541364824;1.759406525325323;-1.6374649956329264;0.41723006926078754;0.0
1.0570868442917751;-1.3862200004555234;1.1174325963747438;1.8987896533553326;0.3533952600430587;-1.074954084753031;0.12488820982090108;0.4850426524734083;0.011261595198373444;-0.31251054027361536;0.015932497195880427;0.0397675130009177;0.9049338466582565;0.8189052668277089;1.759406525325323;-1.5625563195421484;0.41824424205251026;0.0
1.061994569396838;-1.5351877280043333;1.1278324654283756;1.9552631548887596;0.3864270227568977;-1.2686123255750787;0.14932584391675996;0.5759179470666653;0.011415816090683699;-0.4236846124637901;0.016697257061282722;0.0397675130009177;0.8862105425103557;0.785369125656499;1.6481436724786644;-1.5519559011656001;0.4402361474224396;0.0
0.9752880316101948;-1.1832820753207494;0.9511867446020884;1.3559972434863847;0.3533797586935869;-1.1874162457711306;0.12487725385433769;0.5815824265286558;0.01162232708787088;-0.7005781028012027;0.016697257061282722;0.0397675130009177;0.810730741808223;0.6572843357129116;1.1462022107123118;-1.1968749835265078;0.41882746793556086;0.0
0.9111202149829895;-0.6732164842873285;0.8301400461506488;1.118313403501722;0.32090278873711897;-0.3109739940523809;0.10297859981926;0.4003662002487791;0.016521356851114874;1.3010526289540438;0.01822677679208727;0.0591414295911083;0.7581453984115126;0.5747844451325512;0.9164939109890162;-0.6347842551606278;0.4046056191217166;0.0
0.7880385704944453;-0.27786445551345956;0.6210047885869288;1.0504168011357033;0.2691290784261544;-0.300021384433617;0.07243046085451116;0.31824912324632193;0.01637920450466757;1.3761850262758224;0.017334556949117945;0.0591414295911083;0.6541054759281745;0.4278539736392237;0.9001121456425643;-0.3030900993041017;0.3645477772897061;0.0
0.6346548556482994;-0.9803706869254862;0.4027867857979637;0.996295214572207;0.25193010864653065;-0.39418190441478174;0.06346877964265274;0.36317248550732495;0.017659309722309488;-0.2695896431202458;0.020903436320995176;0.0499643112062812;0.5264678000718297;0.2771683445124721;0.8723199588270227;-1.0719292116260317;0.30987385321059463;0.0
0.5940283802438008;-0.7725018995732007;0.35286971653507354;0.8980112991450926;0.2474673446225062;-0.8177870301070811;0.06124008665451424;0.34599240811709997;0.01724223775380469;-0.4916720042591054;0.023197715917202003;0.0499643112062812;0.5152870079503835;0.26552070056245863;0.848996010549643;-0.9891195646667023;0.3057183624125335;0.0
0.5994902584564815;-0.5922450075250184;0.35938856998421903;0.8980112991450926;0.22790777743701238;-0.952746254201342;0.05194195501627877;0.3270954029534343;0.01914009957082682;-0.5749016765843136;0.024217395737738318;0.062200469052717394;0.5113962887570048;0.2615261641544379;0.848996010549643;-0.3822896827276338;0.29253128948830437;0.0
0.49323481132346614;-1.2212649215519105;0.24328057910129522;0.815741226718786;0.22225328039307948;-1.0297365520623012;0.049396520645484804;0.2876233627207949;0.02040455309428667;-0.7290777837560977;0.024217395737738318;0.062200469052717394;0.39617123908889135;0.15695165068122752;0.5675707419171372;-0.9653800978409366;0.2168623095610241;0.0
0.6506438275644313;0.3199513491962313;0.4233373903476934;0.9106425371626092;0.22222807675581138;-0.9231054856343898;0.049385318098586796;0.34417508928164997;0.021517263195927682;-1.2193042616523893;0.03110023452635867;0.062200469052717394;0.37528396505843825;0.1408380544299831;0.5315497320589813;-0.7361771604502754;0.20375900997901206;0.0
0.7686250810838896;-0.7715339261755825;0.5907845152712159;1.1603895451854365;0.22062157800839954;-0.93459896453359;0.04867388068291633;0.29719677595347815;0.023439659577230643;-1.2542631015464094;0.038875293157948326;0.0672988681553991;0.3883679088232887;0.1508296326037743;0.6503015908091139;-1.3544800448181156;0.2145269735720035;0.0
0.8787627764054926;-1.1398749482698527;0.7722240171958897;1.3413803205134205;0.2546647572269974;-0.35487884418062854;0.06485413857348553;0.3203648938794941;0.023439659577230643;-1.2542631015464094;0.038875293157948326;0.0672988681553991;0.33270543888507287;0.11069290906370897;0.5163092422352331;-1.258626112409062;0.17928206841999836;0.0
0.854959012307026;-1.229065592633188;0.7309549127250055;1.254936280525295;0.29906222934308174;-0.48381753251458376;0.08943821701965401;0.3815952410226411;0.025174966268472727;-1.5123425066898497;0.043718772305496;0.0672988681553991;0.3244413086894383;0.1052621627841154;0.473226780465416;-1.140826843814646;0.1760379188894686;0.0
0.9636412400381346;-1.577494756346808;0.9286044395022336;1.8275923638233587;0.3501994543093775;-0.5146826349667732;0.12263965779858578;0.4220464251224687;0.02470915129995653;-1.3777370337402621;0.04218925257469148;0.0672988681553991;0.2753695816921644;0.0758284065213176;0.39579304797869663;-0.8794171508466383;0.14463935423857224;0.0
1.2944825633389019;0.9720806185652969;1.6756851067884542;1.7015960453070242;0.37632629278934865;-0.5169805465079289;0.14162147864457458;0.4601672511668664;0.024769010100501865;-1.4050628324769643;0.04218925257469148;0.0672988681553991;0.4391292626070978;0.19283450927785342;0.39579304797869663;3.9681701668010847;0.22236984507960558;0.0
1.2182406853716785;1.2350227077977611;1.484110367494857;1.5871666802275493;0.3498164411205429;-1.32366759446003;0.12237154247824224;0.5491569648589305;0.02618383055022934;-1.256080228910459;0.04218925257469148;0.0734169470786172;0.4366058708960484;0.19062468650089687;0.36241202747668333;4.323355476468139;0.2220091686284767;0.0
1.1267490550557797;1.9444357520096447;1.2695634330690926;1.2901967655531954;0.3301122675293729;-1.7143021373676561;0.10897410917338428;0.6220710116801178;0.036439343578242966;1.062310479062716;0.04320893239522777;0.1244009381054348;0.4320923990437613;0.18670384131139306;0.36241202747668333;4.8872731651320285;0.22081183734287133;0.0
1.1143055041057128;1.218586237620645;1.2416767564802866;1.2273831487434976;0.35288845117838874;-1.397785641010161;0.12453025897508206;0.5791299947731228;0.036941704284336636;1.4132922894372635;0.04626797185683682;0.1244009381054348;0.4463933943782157;0.19926706254450519;0.38156412824778996;3.1571264028610635;0.2237736522113416;0.0
1.0500413075210413;1.4100213546826095;1.102586747500498;1.2273669475840818;0.3659956168428463;-1.091384189714457;0.13395279154817558;0.560165617125552;0.03782102429267427;1.3489277981653307;0.04817987152034258;0.1244009381054348;0.45597607443465876;0.20791418045684146;0.45624861057315935;2.217380767785878;0.22566732897238342;0.0
0.8997285315067626;2.600910617798532;0.8095114304073155;0.8549474639623766;0.3444102604854839;-0.9376092258436598;0.11861842752767887;0.45529270428041335;0.0360835299257229;1.590047117195149;0.04371877230549595;0.1244009381054348;0.46715369952703195;0.21823257898179246;0.6379970317397683;1.3814957680186417;0.22829970035009534;0.0
0.8531410951787946;2.0468127915190166;0.727849728282873;0.8039717580659512;0.3247388933456019;-0.8020046260925843;0.10545534885132621;0.46499458200852395;0.04247331628286396;0.1242817606800328;0.048052411542775425;0.13153869684918928;0.48139711714714994;0.23174318439758682;0.45816280219301664;0.35429774202285863;0.2258526988187335;0.0
0.8786776300465247;0.9357457155974891;0.7720743775441773;1.004752203417643;0.28389884550950756;-0.3025746780913102;0.08059855448163124;0.3196654404220225;0.0425216923767793;0.21024265209851542;0.048052411542775425;0.13153869684918928;0.43799964374433725;0.19184368792016634;0.4042989533507644;0.5408715529301718;0.19709948408167519;0.0
0.8792931447491772;0.6954346177618775;0.7731564344028975;1.0337010439725525;0.22655870976885184;-0.48977924462075495;0.05132884897212684;0.26163189273105747;0.04223284276905186;0.6985391611728852;0.0296981747731212;0.13153869684918928;0.37466195580419165;0.14037158112702205;0.3701789839527043;1.2672276915694896;0.1644945830388342;0.0
0.9374512396969193;0.1293113960784688;0.878814826809291;1.2115174140287626;0.19774649861142593;-0.874861873837682;0.03910367771307868;0.26163189273105747;0.04195214411879734;0.4859196255242005;0.03887529315794828;0.13153869684918928;0.34142807240248657;0.1165731286244776;0.3701789839527043;1.8200080791585278;0.14829328599162134;0.0
0.8870773258347219;0.4467432898070961;0.7869061820100813;1.128055574331466;0.2214300027079946;0.05539626500745827;0.04903124609926249;0.26163189273105747;0.03950606376455218;0.7979105475030003;0.030080554705822275;0.1213418986438258;0.3766055151864955;0.14183171406888567;0.3701789839527043;1.3161746898823898;0.16534188023908544;0.0
0.8891960779294453;0.5061973548224898;0.7906696650051082;1.128055574331466;0.3071236506442203;1.1099433358294821;0.09432493678503308;0.27742190632272745;0.03950606376455218;0.7979105475030003;0.030080554705822275;0.1213418986438258;0.45615204167536844;0.20807468512460706;0.3749801840849072;0.8299196035221738;0.2051518147156858;0.0
0.6910281538193637;-1.664809235966772;0.47751990937099814;1.128055574331466;0.4094008812269636;0.40821105143784026;0.16760908154941437;0.4034652948333288;0.04143582291631397;0.5597172795880858;0.03887529315794828;0.1244009381054348;0.39593514579172784;0.1567646396731168;0.4433671726747881;-0.48025724745486337;0.18916119878906582;0.0
0.6794078960505051;-1.3072350357160714;0.46159508921577397;1.0559417587610254;0.4968698484045303;-0.683345476340544;0.24687964625354095;0.6635984326494393;0.04075848007997679;1.3626188388476124;0.025109615580707626;0.1244009381054348;0.46745687168125527;0.21851592688202554;0.7160067586970305;-1.019406955041646;0.2307815463135135;0.0
0.5912778931472239;-0.4306579926447922;0.34960954692461993;0.7484670738546417;0.5919321587910246;-1.185428670359963;0.3503836806110028;0.9490649915998599;0.03267640192306721;6.507459056175935;0.021285816253696303;0.1244009381054348;0.5605881663903014;0.3142590922968403;0.8507696468998778;-1.131127817664168;0.2903901785460264;0.0
0.6846244903847576;-0.41567019516432296;0.46871069283458905;0.9632257363983303;0.6616360575339206;-1.478253382509057;0.43776227262902956;1.1676267865780234;0.03210249806491948;5.6389139665603505;0.01707963699398385;0.1244009381054348;0.5448849441624274;0.29689960237489166;0.8213189356373864;-1.0180940303250794;0.28905067732702455;0.0
0.8345814334944192;-0.3144158238757794;0.6965261691335995;0.9783677920371048;0.6716563795360406;-1.6440531118103199;0.4511222921714619;1.12792851861037;0.03364557143243884;4.770175217223584;0.01707963699398385;0.1356174161313347;0.5494851674877621;0.3019339492890539;0.8641812259812531;-1.0657796701636881;0.2907152357168228;0.0
1.2674726338195343;2.854838734496088;1.6064868774814272;0.7977639940705854;0.6511440564882232;-1.4237118167399925;0.4239885822999383;1.1315118996484543;0.03492750140457074;4.323249907810548;0.026001835423676952;0.1356174161313347;0.8794697166975697;0.7734669825881035;0.903657980315248;3.1573120852496053;0.4291472782608512;0.0
1.4298636751284268;0.4062455897745243;2.0445101294517714;1.3438535751738458;0.6308079213681349;-1.0963292085956677;0.39791863366078706;0.9810057598203017;0.021306887256118897;-1.1389000156683848;0.03339451412256548;0.0642398286937901;0.9466424843669633;0.8961319932084563;0.903657980315248;1.4330374645700052;0.44895071013873095;0.0
1.465624224045044;-0.2555664083327896;2.1480543661076377;1.777295648656323;0.5940260088880377;-0.9002994466460469;0.35286689923545106;0.7595581714347218;0.02334339393182515;-1.2134827951254332;0.03441419394310185;0.0703579076170082;0.9429361410423808;0.8891285660838967;0.8771065317509077;1.5832233237904765;0.44907791173164285;0.0
1.45587579715896;-0.2983813466606749;2.119574336753237;1.777295648656323;0.5201496527337891;-0.27417113152549494;0.27055566123908137;0.5860215401000415;0.02293232211186918;-0.9345108532650437;0.029060874885285977;0.0703579076170082;0.9499064918000051;0.9023223431637931;0.8771065317509077;1.7326632801905892;0.46090619826560897;0.0
1.299932784834886;0.1136182041200982;1.689825245088582;1.557389440333831;0.4188331036682607;0.23184720425975533;0.17542116872838803;0.4289269846961894;0.020678202308892515;0.005924560503855977;0.026511675333945172;0.0703579076170082;0.9556099124502218;0.9131903047731206;0.8771065317509077;1.80878456113104;0.469334552038784;0.0
1.2203937451588664;-0.5267719027789269;1.4893608932228843;1.5921576742763253;0.321881302093649;0.26285164025489016;0.10360757263750293;0.271235751418583;0.02060627259991816;0.657567852471267;0.023962475782604277;0.0703579076170082;1.0151355043024246;1.0305000920953378;1.1316518721535265;0.03249641430536296;0.4670711896276126;0.0
1.142472869926041;-0.8874680131957234;1.3052442585170443;1.7280100457008758;0.25481393182603645;0.251300205284126;0.06493013985264395;0.19832108807041515;0.02644071976467595;0.0012209294086087791;0.0321199143468951;0.0825940654634444;1.0252356734756727;1.0511081861671163;1.6162645581295245;-0.7095189193009857;0.4397909692819963;30.0
1.0929681876551753;-0.5842111711771736;1.1945794592262386;1.5924626862855649;0.22076138195100387;0.5590203987260148;0.04873558776091702;0.1946480315433976;0.030051081103608154;-1.175677717294511;0.04512083205873353;0.0825940654634444;0.9964130929399638;0.992839051782185;1.5770029648532444;-0.592889040524282;0.4131285186010224;30.0
1.1989855727959047;-0.2795388891534603;1.4375664037727238;1.5808733343326486;0.20239191501480777;0.8229141758422037;0.04096248726336117;0.1946480315433976;0.029554594772414476;-0.7868146596045594;0.03670847353930868;0.0825940654634444;1.1442205511532089;1.3092406696813532;1.553180138651592;-0.3552859105038547;0.42170635124312467;30.0
1.0178278863284054;-0.1908708066378444;1.0359736061877494;1.1612309307302509;0.2256693460938306;0.4584788091746115;0.0509266537664171;0.2176660309162659;0.030745912463653078;-0.600600693326153;0.035178953808504124;0.0825940654634444;0.9999023899708949;0.9998047894695076;1.1009750122110282;-0.12906712724715197;0.34854409135914294;30.0
