acc_X_std;acc_X_kurt;acc_X_var;acc_X_iqr;acc_Y_std;acc_Y_kurt;acc_Y_var;acc_Y_iqr;acc_Z_std;acc_Z_kurt;acc_Z_iqr;acc_Z_range;acc_std;acc_var;acc_iqr;acc_kurt;acc_cv;class
2.42838260111309;-0.11213864651245886;5.897042057388777;2.517154309231682;0.2874994702903263;-0.8904871746294803;0.08265594541721823;0.4482298645825691;0.046087025790195565;-1.1442749351542199;0.0644947486489243;0.1386764555929437;1.1138708012751848;1.2407081619334224;1.2919276682553207;0.6903038568653586;0.3467197383535733;60.0
2.42838260111309;-0.11213864651245886;5.897042057388777;2.517154309231682;0.2874994702903263;-0.8904871746294803;0.08265594541721823;0.4482298645825691;0.046087025790195565;-1.1442749351542199;0.0644947486489243;0.1386764555929437;1.1138708012751848;1.2407081619334224;1.2919276682553207;0.6903038568653586;0.3467197383535733;60.0
2.42838260111309;-0.11213864651245886;5.897042057388777;2.517154309231682;0.2874994702903263;-0.8904871746294803;0.08265594541721823;0.4482298645825691;0.046087025790195565;-1.1442749351542199;0.0644947486489243;0.1386764555929437;1.1138708012751848;1.2407081619334224;1.2919276682553207;0.6903038568653586;0.3467197383535733;60.0
2.42838260111309;-0.11213864651245886;5.897042057388777;2.517154309231682;0.2874994702903263;-0.8904871746294803;0.08265594541721823;0.4482298645825691;0.046087025790195565;-1.1442749351542199;0.0644947486489243;0.1386764555929437;1.1138708012751848;1.2407081619334224;1.2919276682553207;0.6903038568653586;0.3467197383535733;60.0
2.42838260111309;-0.11213864651245886;5.897042057388777;2.517154309231682;0.2874994702903263;-0.8904871746294803;0.08265594541721823;0.4482298645825691;0.046087025790195565;-1.1442749351542199;0.0644947486489243;0.1386764555929437;1.1138708012751848;1.2407081619334224;1.2919276682553207;0.6903038568653586;0.3467197383535733;60.0
2.42838260111309;-0.11213864651245886;5.897042057388777;2.517154309231682;0.2874994702903263;-0.8904871746294803;0.08265594541721823;0.4482298645825691;0.046087025790195565;-1.1442749351542199;0.0644947486489243;0.1386764555929437;1.1138708012751848;1.2407081619334224;1.2919276682553207;0.6903038568653586;0.3467197383535733;60.0
2.42838260111309;-0.11213864651245886;5.897042057388777;2.517154309231682;0.2874994702903263;-0.8904871746294803;0.08265594541721823;0.4482298645825691;0.046087025790195565;-1.1442749351542199;0.0644947486489243;0.1386764555929437;1.1138708012751848;1.2407081619334224;1.2919276682553207;0.6903038568653586;0.3467197383535733;60.0
2.319427703166054;0.037179679569755486;5.379744870214157;2.5240174813154086;0.24243711508180277;-0.566623710298948;0.058775754769187276;0.3523850711874219;0.04246378748529925;-1.0997074425157154;0.06398490873865613;0.1345977363107983;1.0945197083928564;1.1979733920603832;1.1405026793206448;1.9284361542812638;0.3636744713175479;60.0
1.9870686596661358;-0.14026173333471978;3.9484418582273735;2.102265343164637;0.19431587109169413;-0.03193386112384423;0.037758657758123884;0.25372419377385924;0.03880965886518169;-0.2246942922023297;0.04206179259712453;0.1345977363107983;0.7799965978781419;0.6083946927014758;0.8637161763392127;-0.5508689843437499;0.2899196924443335;60.0
1.8482408214416473;0.22541164754299844;3.4159941340432947;1.767259151418907;0.15351353047066674;0.5447808653053414;0.023566404037568323;0.183860366646174;0.0312539715759994;0.13103002341559317;0.03211991434689513;0.1121647802589987;0.7053274728449466;0.4974868439498389;0.5644266502169342;0.6205328577077454;0.27408936747893703;60.0
1.452398542956355;1.2973939467965971;2.109461527581743;1.2836607886916704;0.12913701660956237;-0.6427396394586784;0.016676369058818388;0.183860366646174;0.03131072082777868;0.11423500000171063;0.032502294279596285;0.1121647802589987;0.6937946218607925;0.48135097732296006;0.43667169348119295;1.1930533003663646;0.2743884812018667;60.0
1.4762322000368961;2.243022722902131;2.1792615084257747;1.0563996574798393;0.23410618586464457;6.341117663263464;0.05480570626009151;0.183860366646174;0.03976505558179395;0.0027011060165730467;0.042444172529825686;0.1379116957275415;0.6704653404917413;0.4495237728007066;0.5773723393671677;0.02806761745562388;0.24795975919463195;60.0
1.2275793370287378;-0.09936346556884372;1.5069510286999153;1.6164287896180725;0.3310519368223379;2.0179613043729785;0.1095953848738212;0.19897106151085042;0.03976505558179395;0.002701106016567994;0.042444172529825686;0.1379116957275415;0.883481098921585;0.7805388521516915;1.1504147610330042;0.14269210658090653;0.30507714004786857;60.0
1.4491428664751413;-0.8007906434342816;2.1000150474557895;1.9970427888322952;0.4314990008080216;0.11354202211420872;0.18619138769832103;0.4325933437174312;0.03866971187333827;0.16286070997492616;0.03989497297848478;0.1379116957275415;1.0608642234213785;1.1254329005354444;1.3444985260489015;-0.7531542762241265;0.342599964773221;60.0
1.8125737647612739;-0.5756449674471462;3.285423652700858;2.38815309261187;0.5106886546801861;-1.095453737068968;0.2608029020190583;0.844488595117398;0.03781612319260548;0.5439846963519307;0.0370908534720098;0.1379116957275415;1.4028909632987558;1.9681030549053113;1.8623400157877086;-0.032204463549773736;0.41324599712823756;60.0
2.046555247493172;-1.2976857181810204;4.188388381041838;3.2453562604471893;0.5658350862029129;-1.7616337697712852;0.3201693447782578;1.0066118988111143;0.035733480192393;1.2829246024718763;0.0370908534720098;0.1379116957275415;1.6111207202018756;2.5957099750638104;2.448123383110927;-1.0905898687837627;0.44555894247688127;60.0
2.0764601722743428;-1.485153537891767;4.311686847041593;3.2453562604471893;0.6348213353566412;-1.677010992978166;0.4029981278239891;1.1785376605730375;0.03861130882835359;0.036198586897846656;0.04856225145304378;0.1379116957275415;1.622565883198382;2.6327200453193456;2.448123383110927;-1.2235301152393023;0.4451614842571251;60.0
2.1021045683019866;-1.615545871872883;4.418843616076081;3.478589642371907;0.721642817894956;-1.1969164164655992;0.5207683566193726;1.2267008333300364;0.042232883568215016;-0.8580770886603079;0.05748444988273685;0.1379116957275415;1.6361071360171062;2.676846560526098;2.643867743416977;-1.5275249152339812;0.4257550671865301;60.0
2.008803823739005;-1.200504885644062;4.035292802268447;3.1471996811746172;0.8064536746060547;-0.9109008015049919;0.6503675292856083;1.173465027349478;0.04234729259561546;-0.9401061937725318;0.0647496686040584;0.1379116957275415;1.5704225838425818;2.466227091842811;2.5731450155335054;-1.2819610062071023;0.398241210995468;0.0
1.8228195115244599;-0.4875812949512522;3.322670971594271;2.036667923179533;0.869171549441494;-0.8648195928997401;0.7554591823585274;1.0878607557069182;0.04021283176050643;-0.30469232581441347;0.05391557051085963;0.1379116957275415;1.461095218710797;2.1347992381395517;1.8607170834301066;-0.9465776483765391;0.36002219744858854;0.0
1.4823466657862034;-0.3731799838256368;2.197351637567474;1.5688682877159579;0.8980786355170749;-0.8883588224901037;0.8065452355722111;1.2408233412149767;0.040879948463458056;-0.16861977464325517;0.05901396961354138;0.1379116957275415;1.2803870983236323;1.6393911215536108;1.5046232605039616;-0.7464747556298208;0.2974171498169356;0.0
1.2282152263814154;0.3165022154799677;1.5085126423151516;1.4906337600353607;0.8577397166504848;-1.2759653124400365;0.7357174215196539;1.358671769284896;0.03987256956739902;0.9545147829429917;0.035178953808504124;0.1379116957275415;1.126676230647696;1.2693993287065002;1.4259858311930653;-0.17655173587785447;0.2504297289260691;0.0
0.9770446479213698;-0.585875666963673;0.9546162440317935;0.9615000748463576;0.816952274318625;-1.7558079293211803;0.667411018514374;1.4450132583355568;0.036703182442374534;3.551243917379908;0.026511675333945176;0.1379116957275415;0.9560589063222606;0.9140486323581172;0.973734342668803;-0.6491895744882754;0.20095520937556488;0.0
0.9471960126029486;-0.4561519405700854;0.8971802862909253;1.0080341041848087;0.8005958599763167;-1.7680656036823263;0.6409537310112181;1.5059104528975706;0.03417057114999144;4.501321839488055;0.02319771591720205;0.1264402977465075;0.9426904012384676;0.8886651925871429;1.0508343052919473;-0.5579529058022918;0.19004980346673772;0.0
0.9659388722943558;-0.5436474410428838;0.9330379050092918;1.1576472979826793;0.7502301373578534;-1.5916895499016386;0.5628452589999835;1.3403753361868922;0.01924828542166172;1.0812753895648832;0.02319771591720205;0.0713775874375445;0.9657875087269258;0.9327455120129616;1.197253395573;-0.6670101313429863;0.19147911943196952;0.0
0.9659130952008881;-0.5346852558073825;0.9329881074805598;1.1576472979826793;0.6999321292555475;-0.9771902243219592;0.4899049855642044;1.0661914418796155;0.014421201360369253;-1.0450453224948812;0.022050576119098626;0.0458855919241357;0.9662401950147294;0.9336201144621022;1.197253395573;-0.6310527509394244;0.19099955397958443;0.0
0.8786336837055714;-0.19937548376852685;0.7719971501420221;0.9419128371614844;0.6016724687716833;0.25770849723127437;0.3620097596778123;0.7117434089252528;0.01535398628603027;-0.753535965924334;0.02001121647802585;0.0499643112062811;0.8891204274694597;0.7905351345434749;0.9827999583052316;-0.34411777501166196;0.1784968141257901;0.0
0.9040592028343514;-0.15229178380395372;0.8173230422294828;0.9419128371614844;0.45449064556814134;1.4033326284433423;0.20656174690894585;0.44634361552833335;0.014770899537363224;-0.27691738005953603;0.016697257061282698;0.0499643112062811;0.9203722326965841;0.8470850467188952;0.9827999583052316;-0.3111921086993107;0.18401365540566417;0.0
0.8902755490304018;0.30318471223876287;0.7925905532013835;0.84513825386394;0.3151577783549111;1.4028380434765098;0.09932442525760328;0.36067057630890575;0.014753291147221103;-0.28417838946445184;0.016697257061282698;0.0499643112062811;0.9005428313258915;0.8109773910524531;0.8701119962738604;0.24813163966433144;0.17775453655988638;0.0
0.8995807535902396;0.2880237018457175;0.8092455322299834;0.84513825386394;0.2348528606234413;-0.6920088444353205;0.055155866143013536;0.36067057630890575;0.013523140852973178;0.4057774900393819;0.012108697868869148;0.0499643112062811;0.9074736330696296;0.8235083947165927;0.8701119962738604;0.30162456249904673;0.1778794548929882;0.0
0.7651454829528006;2.78222553719844;0.5854476100830746;0.566466703967472;0.2238627193758875;-1.0518896796220463;0.05011451712636736;0.36067057630890575;0.013549326805974;0.39372105114193356;0.012108697868869148;0.0499643112062811;0.7622365844558554;0.5810046106829284;0.5398207110267084;2.8379704296640207;0.1451902200763784;0.0
0.49674186704877804;0.07470146055152896;0.2467524824791059;0.5673687818953832;0.2425834996254775;-1.2101004361487548;0.05884675429054404;0.38608421546668137;0.012518950742954397;1.3512553798155176;0.012108697868869148;0.0499643112062811;0.48777933650879873;0.23792868112496393;0.5631306777682523;0.03539747469633375;0.08956174082077202;0.0
0.4479288344812059;0.8243993401913353;0.20064024075969156;0.40927706618512616;0.2743279928218899;-1.5266040497845195;0.0752558476456869;0.5051310542851687;0.013022861992586175;0.7284376740986008;0.011598857958600953;0.0499643112062811;0.43619263292207555;0.19026401301549256;0.451454145707868;0.8158189170334822;0.07899087602854896;0.0
0.6480870620226044;4.607538277408595;0.42001683996109107;0.40927706618512616;0.31618319727874045;-1.434882183848314;0.0999718142414069;0.5583569012538393;0.012384842934605223;1.7674069197735423;0.008922198429693051;0.0499643112062811;0.6605776464092353;0.4363628269355648;0.451454145707868;5.065007290069889;0.12152614725164164;0.0
0.7640497953868625;0.9823132518324845;0.5837720898307064;0.5733125540342874;0.33675419125230766;-1.3143790289357367;0.1134033853259958;0.5014928323463714;0.012843805296269755;1.283861065640472;0.010961558070765726;0.0499643112062811;0.7838312144597904;0.6143913727615099;0.5631306777682523;1.116560954108728;0.14780790552730036;0.0
0.9521394810317733;0.13635076417677586;0.9065695913394546;0.8921471694307668;0.33436031542894423;-0.9435746443522197;0.11179682053374308;0.47404543491105156;0.013751866060568156;0.610551120371716;0.015040277352911153;0.0499643112062811;0.9726565456616121;0.9460607558183796;0.8059451971430569;0.16327908460053273;0.1922394150376893;30.0
1.0778914166648497;-0.9599614391101915;1.1618499061197565;1.5995732900883626;0.32509727685364537;-0.15815633608509327;0.10568823941765575;0.4869437416920396;0.01520137452335236;0.9325088140596158;0.015040277352911153;0.0591414295911083;1.0983155904713406;1.2062971362724095;1.6240935328221782;-0.9636796091023326;0.22704839427073686;0.0
1.170979957664309;-1.6341415319932995;1.3711940612515066;1.9487461420017764;0.27044664212236275;-0.826188210452872;0.07314138623526134;0.3896741067840775;0.014916629793339185;1.434396811154602;0.013765677577240697;0.0591414295911083;1.1907373597443427;1.4178554598909283;1.9720590001106633;-1.6425243804255192;0.25491339352112174;0.0
1.1592990742980605;-1.6251170989037405;1.34397434366834;1.9487461420017764;0.271728074529489;-0.3056067795224749;0.07383614648750353;0.3244423820802636;0.012161255068185004;0.15357819290467836;0.013765677577240697;0.0428265524625268;1.176185347904836;1.3834119726260203;1.9720590001106633;-1.6245386948705216;0.2575709162806116;0.0
1.0488274159286628;-1.875354095302388;1.1000389484035964;1.9128302067971914;0.2898990023551451;-0.1434456993623807;0.08404143156650844;0.3391251660092287;0.012024468351103903;0.11623928880304232;0.013765677577240697;0.0428265524625268;1.0625895358424298;1.1290965216818305;1.9516499427383263;-1.9015845865579795;0.24571393362463906;0.0
1.0233432725353278;-1.6583549132878037;1.047231453443314;1.9128302067971914;0.31246587038291984;-0.5181853144092504;0.09763492015415566;0.3774545155844506;0.012278250238066517;-0.2695054064520346;0.01478535739777713;0.0428265524625268;1.0333627308765385;1.0678385335646172;1.9516499427383263;-1.6605952771892138;0.2417125555143384;0.0
0.9591457063893373;-0.9945214650024967;0.9199604860851008;1.3486488229622395;0.34503175675722975;-0.8712271689776413;0.11904691317098014;0.47279606907242167;0.012174202218735754;-0.06509201895048213;0.014530437442643075;0.0428265524625268;0.9665673010451373;0.9342523474496811;1.358792391998909;-0.9792439149788386;0.23310010672309361;0.0
1.0547326631911642;-0.9078139862656466;1.1124609908023257;1.4353977788822005;0.3766370224163574;-1.1473128503046546;0.14185544665465968;0.5402914951274272;0.010891179749166969;1.3519767172423762;0.010451718160497649;0.0428265524625268;1.0593856773676051;1.1222980134116196;1.4424056762744435;-0.9023341870044236;0.25196492528578185;0.0
1.0047330974511972;-0.6823900942360385;1.009488597113877;1.343035595491843;0.3891252556200785;-1.5267806507482988;0.15141846456139144;0.6345297700338717;0.010626792857850098;2.2654784096889204;0.0091771183848272;0.0428265524625268;1.0077533799576734;1.0155668748161149;1.3497389002838194;-0.6789608704485462;0.24182131546493488;0.0
0.937915182336938;-0.2496295309687822;0.8796848892581317;1.2863064020705064;0.38285219533984577;-1.8705224068284223;0.14657580347653942;0.7335844394372555;0.010772556207923958;2.440079068358908;0.008922198429693155;0.0428265524625268;0.9401001203196937;0.8837882362251025;1.292434001499064;-0.25019974051458577;0.2283261334774551;0.0
1.0031508718848008;-1.1534251657318793;1.0063116717632359;1.6865393726837876;0.37468596019238054;-1.8032856559500317;0.1403895687652862;0.7806687155079605;0.010342814518857666;4.0144915121415226;0.00866727847455908;0.0428265524625268;1.0062851915492679;1.0126098867313467;1.707889345753073;-1.1636485228643039;0.23559629129824503;0.0
0.9986370549457949;-1.1414782691883494;0.9972759675108107;1.6865393726837876;0.34831385601360043;-1.2989162904576113;0.12132254229106318;0.5683479164747987;0.010308486494425817;4.187788803764512;0.007902518609156778;0.0428265524625268;1.0018329633610046;1.0036692864766918;1.707889345753073;-1.1537345762983457;0.23343659386715862;0.0
0.936594436088999;-0.8976593117209126;0.8772091377128699;1.318781842177101;0.3037053937471203;-0.26365023450411007;0.0922369661910934;0.3980213829095214;0.011185095824033342;3.010345153348491;0.009941878250229477;0.0428265524625268;0.9409609073389249;0.8854074291400927;1.3366687753864435;-0.9171932025298715;0.216008304802237;0.0
0.9979775667015425;-0.6319311922049274;0.9959592236395317;1.318781842177101;0.24615232159386566;1.120155043699213;0.060590965426049866;0.2883711752729933;0.010950953732539629;3.2670780330178952;0.009941878250229477;0.0418068726419904;1.0033193670315437;1.0066497522605773;1.3366687753864435;-0.6512077886729988;0.23232073583416255;0.0
1.070088578248595;-0.6492420590370885;1.1450895652980992;1.318781842177101;0.18122715476608145;-0.9858463332258326;0.03284328162460924;0.288214102953243;0.014234835099892271;2.0156746879875374;0.01300091771183852;0.05914142959110841;1.0764587552027798;1.158763451652718;1.3366687753864435;-0.6649282778279194;0.25213099306651404;0.0
1.1251123041927449;-1.0952484323796896;1.2658776970459078;1.7127532499718905;0.17182137580127033;-1.430580540036601;0.029522585182241365;0.288214102953243;0.014243755101874622;0.7235802559521763;0.016059957173447548;0.04435607219333129;1.132258568818924;1.2820094666638782;1.7370449137055726;-1.1088840607197439;0.2709355360213497;0.0
1.214940662093752;-1.3297238913446205;1.4760808124088045;2.13504094271736;0.19866930086817539;-0.736271566010819;0.03946949110744959;0.288214102953243;0.01391931712962056;0.8670181949937722;0.015550117263179376;0.043336392372795;1.2225394199024338;1.4946026332153795;2.1579590724778184;-1.3374641321885374;0.29851828491407806;0.0
1.2295759166255433;-1.338513436481152;1.5118569347455448;2.13504094271736;0.25201827733201093;-0.4582094326304621;0.06351321210939437;0.3824666365804207;0.014244031601794126;0.8736149221841982;0.015550117263179376;0.043336392372795;1.2376959154836527;1.5318911792049172;2.1579590724778184;-1.3517440879389293;0.31088000369802893;0.0
1.2511409413822314;-1.3929454459763124;1.5653536552028164;2.13504094271736;0.30066034058911423;-0.9811348603889762;0.09039664040316216;0.4700182351897614;0.016839925772842237;0.5972576630458674;0.016059957173447548;0.0616906291424493;1.2589815903640142;1.5850346448755026;2.1579590724778184;-1.4046084671027612;0.321133105483712;0.0
1.0999636519335223;-1.1197860946651115;1.209920035574931;1.6665932267478034;0.31717854153148034;-1.4568603703608325;0.10060222720803699;0.5424358082413807;0.01787460854299558;0.14717009435412176;0.016059957173447548;0.0616906291424493;1.1077884672599216;1.2271952881940866;1.6748963829110877;-1.1227610847495966;0.3034216551475393;0.0
0.9772618501209901;0.2409802117820858;0.9550407237019005;1.2131375744859723;0.3122015970300034;-1.5785515552524345;0.09746983718808461;0.5582396502615348;0.021159193893575096;-0.1653014612697891;0.020903436320995224;0.0729071071683491;0.9836928821235545;0.9676516863405453;1.2127776640684598;0.23349331416407546;0.2822123249562248;0.0
0.8482628345189673;2.817010647549671;0.7195498364261529;0.8844880299090736;0.29590551448636493;-1.420545993177952;0.08756007350344033;0.517593741906246;0.02279153406065791;-0.627419658526673;0.0323748343020292;0.0729071071683491;0.8532464882483053;0.7280295697080653;0.8829053052811258;2.804896834945988;0.2539521856833497;0.0
0.541776947036542;-0.7788421914975427;0.293522260340236;0.8427087205098349;0.25962426885266277;-1.2072699962531768;0.06740476097727971;0.42833789664280353;0.023313638536061783;-0.7594460070042177;0.033139594167431424;0.0729071071683491;0.5450572967048014;0.29708745669114595;0.8403869548875043;-0.7532737195801132;0.16981316223942416;0.0
0.4775869705123741;-1.351776822043975;0.22808931440318728;0.8427087205098349;0.22082730700728873;-1.5320412153168497;0.048764699520091354;0.37512601151393576;0.024307081836303524;-0.9230541450690276;0.03772815335984502;0.0729071071683491;0.47837372074524576;0.22884141669965039;0.8403869548875043;-1.342442226825694;0.15094646668248976;0.0
0.43759073900468204;-1.3461604378522685;0.19148565486266375;0.7600770291331043;0.1894250474963348;-1.2711751124658295;0.035881848618988695;0.3349466359624267;0.023567680631204825;-0.26582470131159097;0.02600183542367697;0.0729071071683491;0.43764340502150767;0.19153174995881941;0.7510339513203395;-1.3373095245348285;0.1395432479986972;0.0
0.4391995455488014;-0.9251459155444246;0.19289624081027368;0.5873575278621415;0.16933233310382667;-1.2191236252486892;0.028673439034385316;0.24380254714231903;0.02293038993664977;0.30879495544427427;0.023197715917201996;0.0729071071683491;0.44058670156170354;0.19411664159302164;0.5937438765076468;-0.8967399687906986;0.13637164880390565;0.0
0.6129210931922126;2.314446870051415;0.3756722664799369;0.5873575278621415;0.18342377874556576;0.3044301207875523;0.03364428260930226;0.2073858373813745;0.01952593671874646;3.188918763258596;0.022178036096665646;0.0729071071683491;0.5934574636730287;0.3521917611892242;0.5937438765076468;1.8695905606672403;0.18776240865850005;0.0
0.6676932749415871;0.29831253651325496;0.44581430940222194;0.8800830201127843;0.21313975932713108;0.8511926797098839;0.04542855700602737;0.13226340581145557;0.012213928719396814;-1.4040508002268577;0.021413276231263427;0.0367084735393086;0.6389267805958085;0.40822743096252445;0.879874455762585;0.164530564660687;0.20603033418627079;0.0
0.6871077960301176;-0.1050192427508926;0.47211712336536577;0.931696433279066;0.2333342055209023;0.05088947110818051;0.05444485146607068;0.17829273228813713;0.013969872913369154;-0.8619300563660747;0.021413276231263427;0.0458855919241358;0.6485211719400197;0.4205797104544565;0.9049913698594607;-0.037581340770841756;0.20969028508830276;0.0
0.7247346813061818;-1.0987510700216476;0.5252403582879729;1.314101327111036;0.2581456721669183;-0.6473056930672145;0.06663918805851005;0.34098934788908897;0.01707980993744691;-0.3551076209313092;0.022432956051799777;0.0560823901294993;0.6808083966194806;0.463500072907588;1.2143224476017593;-0.9893253047901536;0.22528448564253137;0.0
0.9323892641949576;-0.46745760086029625;0.8693497399860145;1.3370239562336157;0.3026276800818361;-0.8331634654180297;0.09158351275171416;0.4367651012798833;0.017984001562195647;-1.109539120752567;0.025491995513408805;0.0560823901294993;0.8371974299023442;0.7008995366350905;1.2292128807973857;-0.9231192331202263;0.29214429273311643;30.0
1.1113866757343118;-1.0642741023618238;1.2351803429997645;1.4868937824886608;0.35564238632468226;-0.7760213937802127;0.12648150695071453;0.4496077347119284;0.018411440244628857;-1.3642305050284025;0.030080554705822375;0.0560823901294993;0.9506547684533326;0.9037444887830595;1.3887611906664539;-1.503392020381586;0.3465195754273038;30.0
1.6673056405810394;1.8055282089521887;2.77990809911335;2.10877494136927;0.4083458361606444;-0.8272117004321305;0.16674632190973585;0.5128149230090226;0.016769146820105784;-1.402468322858577;0.028296115019883775;0.049964311206281205;0.9455122569593116;0.8939934280602913;1.4976032757206093;-1.6016180222711898;0.35654269588641824;30.0
1.6828823177681884;0.7001708162594361;2.83209289545683;2.6647546810509044;0.4354944622895261;-0.961290958744534;0.18965542668484348;0.6499990888439194;0.015294939810973573;-1.2105193153043206;0.027531355154481473;0.0479249515652085;0.9765991294323376;0.9537458596079996;1.8973477861145214;-1.5292096865669034;0.39639178722851864;30.0
1.8030432930728382;-0.43020314912257873;3.2509651166949443;1.9382484315883288;0.4495947647494028;-0.6220658719552545;0.20213545249007084;0.6105224370613438;0.01590093310388406;-1.2871195852042001;0.028296115019883775;0.0479249515652085;0.912547281421039;0.8327425408289291;1.0128004429043336;-0.9246718026654599;0.39659903392848245;30.0
1.9167880652086051;-0.9218227335044712;3.674076486926148;2.222778742411667;0.4020164068270739;-0.6154468602224868;0.1616171913581514;0.5500069905398806;0.01979382606088777;0.6697706568728979;0.028296115019883775;0.0713775874375445;0.7987861198737839;0.638059265303015;0.7424626809032904;0.14629486861331567;0.3646294375195502;30.0
1.9158926513944612;-1.2286463491553852;3.670644651667298;3.5592931954668536;0.3564484729690453;-1.1881076915361164;0.1270555138819642;0.5473236898838938;0.049880923627736835;7.508192194053716;0.0295707147955542;0.1866014071581523;0.6924182420396365;0.47944302190926075;0.7249120432149914;2.137234280182089;0.3306274118499158;0.0
1.6454118152421064;-1.499788826995368;2.707380041738324;3.1173619729467634;0.3304813598961185;-1.533453693092358;0.1092179292387878;0.5805707711706176;0.049708182991143254;6.635393401768864;0.03747323340471087;0.1866014071581523;0.4586003454631254;0.21031427685889795;0.7798694688223939;-1.767748046093535;0.2390779545446484;0.0
2.2159319374217707;0.6944652042618651;4.910354351285803;3.5592931954668536;0.33905659492833834;-1.0626720402763226;0.11495937456439931;0.5225994755103394;0.049693681579626656;6.5780681801995;0.03747323340471087;0.1866014071581523;1.2135436991430881;1.4726883097298902;0.7931500151523565;7.995128684871164;0.5372033851570241;0.0
2.482521919986854;-0.30401992407736445;6.162915083215217;3.5694934905893954;0.3390013071195847;-0.7699637893152985;0.11492188622878698;0.418762467357251;0.04948072482585028;6.605968230220317;0.03747323340471087;0.1866014071581523;1.4608383330473798;2.134048635300647;0.8107006528406555;2.0718875720674013;0.5875522989047428;0.0
2.721054930526971;-1.0411033676370065;7.404139934945139;4.196742690516961;0.3214121419798122;-0.4924644697834531;0.10330576501205097;0.38938636644628377;0.04821325254958511;6.727537573344008;0.027148975221780305;0.1866014071581523;1.658804065028562;2.751630926155282;1.4971451346578544;-0.3470132901758101;0.608971367405001;0.0
2.8534171256705783;-1.5105662992537463;8.141989293070145;5.6947851832180225;0.26752902018520697;-0.8708322188505936;0.07157177664125688;0.40746054244385976;0.0460788853407836;6.685341409049751;0.032247374324462;0.1774242887733251;1.7322940007713337;3.0008425051083534;3.1017522312359085;-1.3098573860631733;0.5962185249420167;0.0
2.893435292919118;-1.7323819698489415;8.371967794309944;5.6947851832180225;0.22009272779328068;-1.2290918365350072;0.04844080882748714;0.366055563715741;0.044144577541833714;7.652258943913262;0.027276435199347297;0.17334556949117969;1.6598599031682006;2.7551348981455486;2.9449822318190035;-1.381141223678191;0.5399194007350401;0.0
2.895853267722636;-1.769896150425749;8.385966148179868;5.6947851832180225;0.2015570291393684;-1.4726984344218121;0.0406252359954882;0.36268366220153014;0.0443345572717895;7.54006043354241;0.027276435199347297;0.1753849291322524;1.5701268585769321;2.4652983520246656;2.582858071638352;-1.2795974143300248;0.49140475579447107;0.0
2.6909522015087974;-1.4384696713721163;7.241223750805043;4.348070435040294;0.2103828664229653;-1.4055595838435455;0.04426095048434326;0.36268366220153014;0.047867453250296996;5.867292780325326;0.032247374324462;0.1927194860813704;1.5862463790045498;2.516177574905046;2.7713937915434346;-1.3130877903168157;0.49972603484019773;0.0
2.652314990224227;-1.25312457733594;7.034774807368141;4.198774168368084;0.24744580607533515;-0.3740149771696824;0.061229426944272365;0.36268366220153014;0.04925895277673981;5.323992358539503;0.0383654532476801;0.1927194860813704;1.5234557244802822;2.3209173444517415;2.708434847276541;-1.3013909743356749;0.47152694868663036;0.0
2.5232525432904196;-0.9383117111067577;6.36680339722157;3.830378431469617;0.3336286031814977;0.6054339447745652;0.11130804486083724;0.407943050060082;0.04924663836820343;5.123338614396681;0.0383654532476801;0.1927194860813704;1.6376569564548222;2.6819203070248716;2.708434847276541;-1.1424462327686273;0.520536657681718;0.0
2.187287359004623;-0.4238650542408291;4.784225990861419;3.048398174221061;0.4723153117633814;0.9582391209708526;0.22308175372614014;0.5292905014968536;0.04890959551561479;5.8748084719399545;0.03224737432446205;0.1927194860813704;1.6806743085836306;2.824666131533065;2.7905680217743134;-1.2624283158833114;0.5446554972580135;0.0
2.021449960341723;-1.1142497522161818;4.086259942165554;3.048398174221061;0.6447558110067492;0.612962921483879;0.4157100558269709;0.7619452468890368;0.023534569253118982;-0.2659755515792862;0.02638421535637805;0.08055470582237169;1.7964238347712398;3.2271385941342063;3.0025049225116405;-1.3959119586594564;0.6069875283331574;0.0
2.071516084364323;-1.2011141960614333;4.291178887780098;3.127368530198141;0.7434406790139726;-0.8063612102762464;0.5527040432127567;1.0911564241199336;0.022297140638906556;0.11834464699327327;0.021030896298562175;0.08055470582237169;1.9300421980937807;3.725062886422673;3.2142302757451344;-1.4169052508017983;0.678956323020267;0.0
1.9473803949133495;-1.178751962174148;3.7922904024928727;3.081231701390671;0.7219160506565445;-1.1155184911908684;0.5211627841955425;1.0639963895906641;0.0228053540752289;-0.09716642375552359;0.025619455490975777;0.08055470582237169;1.7896143228547896;3.202719424567007;2.8500400948358027;-1.1807876780586173;0.7466165693601904;0.0
1.7567044484569059;-0.45986485031760554;3.086010519228282;2.3521407504062983;0.6805969017229938;-1.0503273145349112;0.46321214263493843;0.9025023877627207;0.026890897412698955;-0.7734033030149912;0.041042112776588126;0.0866727847455898;1.6151570167705007;2.6087321888229837;2.1200778168063787;-0.21814148558026875;0.785499226355995;0.0
1.4604472519966987;-0.07501116989825252;2.1329061758647088;1.6817324311145612;0.6070499965995021;-0.819461143144361;0.3685096983714555;0.7988319763385572;0.02637703997555939;-0.7188463135908049;0.03721831344957678;0.0866727847455898;1.3085571300128844;1.7123217625075569;1.4447671045782988;0.49137362706359794;0.7797215104337145;0.0
1.16325562845449;-0.793234240228016;1.3531636571310501;1.61979492753339;0.533010988954475;-0.5472458312937142;0.28410071434622747;0.617160506689413;0.02302128348619141;-1.1300872033681868;0.0313551544814928;0.0693382277964719;0.9760748898055778;0.9527221905089708;1.271847721494129;-0.15199706229618198;0.7203449044752803;0.0
1.0044370160235327;-0.9246873252112758;1.0088937191582588;1.6710228669561509;0.47898957252980856;-0.20789561322950476;0.22943101059228874;0.45794696451794925;0.025033142740744457;-1.2875082460927436;0.03721831344957678;0.07392678698888541;0.7547996333438592;0.5697224864960244;1.0603030134858968;0.15736590920637417;0.6548872144765051;0.0
0.8620183170780226;-1.0678592221426988;0.7430755789780263;1.240345836156347;0.45480530650170947;-0.13476384921054635;0.2068478668221139;0.45794696451794925;0.02716017031523078;-1.0770086657875828;0.04333639237279493;0.0825940654634444;0.56089771479723;0.3146062464647549;0.5976554851034619;-0.5407327657763246;0.5510655319346692;0.0
0.7882301027298214;-0.2693492968773228;0.6213066948494649;0.9576412503233496;0.449573370779467;-0.12751339335263576;0.20211621571401214;0.45794696451794925;0.024554375314740685;-0.45642995908254486;0.034924033853370055;0.0825940654634444;0.4918669540590293;0.24193310049530722;0.511343303702751;0.25171790439606906;0.5091524084889807;0.0
0.8905824286139261;1.5350893218423443;0.7931370621558788;0.8028721193858737;0.4731930155190126;-0.2847294077220321;0.2239116299359765;0.48138649499393615;0.02665165290624641;-0.682635154113054;0.034924033853370055;0.0825940654634444;0.55080423210029;0.3033853020995901;0.511343303702751;1.4955530640767614;0.555867217156557;0.0
0.888172183272677;1.5123695298115567;0.7888498271393537;0.7731652260489259;0.5007713662113081;-0.561418530919614;0.2507719612171401;0.6765573406610683;0.026756955886956157;-1.017942692798408;0.0374732334047109;0.0825940654634444;0.5463651918230763;0.298514922835867;0.5285907672513377;1.2531393396032848;0.5317473728887799;0.0
0.9109180018449677;0.5806371410582711;0.8297716060852287;0.6565234212778277;0.5255712645095739;-0.10347278208637616;0.27622515407819254;0.6290635043914405;0.027078844213580002;-1.1057317954775026;0.04129703273172224;0.0825940654634444;0.6823753939662754;0.4656361782906297;0.5285907672513377;1.0323177760672422;0.6199030622895287;0.0
0.9088336421955797;0.6486625303186562;0.8259785891864829;0.6427099206036393;0.47556507680021626;1.046910082123764;0.22616214227199558;0.5472495223874587;0.03308151779238597;-0.6554940382343786;0.045503211991434644;0.10808606097685321;0.6923795513720262;0.4793894431581283;0.7267828348409628;0.18649601966074114;0.591223879409871;0.0
0.9344073022381879;-0.2569947965154414;0.8731170064760483;0.8681735006265103;0.34241855970165835;-1.3268938358436007;0.11725047002815817;0.5552576862201898;0.04803008728615327;1.2634784693069157;0.053405730600591346;0.1672274905679615;0.6464362325417096;0.4178798027427192;0.829664758083242;-0.27844847666604805;0.4976838693135075;0.0
1.208278302622176;-0.07275451754026044;1.4599364565875264;1.4617857946876713;0.3014526469991089;-0.8409579744887904;0.09087369838276936;0.4252872823948797;0.04793405205030102;1.4179867874383931;0.053405730600591346;0.1672274905679615;0.8232843042993199;0.6777970457056152;0.9388514407514348;0.6181856920003699;0.5353323408028302;0.0
1.249409327041557;-0.9235282938136266;1.5610236664984363;1.7795349390116881;0.25734969927994833;-0.25004872215293716;0.06622886771947985;0.2541640947539314;0.05094896612654736;1.1498030520985556;0.053405730600591346;0.191699806260834;0.9074353098052033;0.8234388414812652;1.2481161350709624;-0.7866712499975885;0.5307396728552798;0.0
1.4138862451542622;-0.9794637806415127;1.9990743142364187;1.9924809273223918;0.21992774012748956;0.8852923362532938;0.04836821087758458;0.16922503101623487;0.050818778544899974;0.9995286841033704;0.053405730600591346;0.191699806260834;1.054636850162943;1.1122588857216142;1.5105775724117931;-0.7019661468390729;0.5316524951737759;0.0
1.3640655464644063;-0.7681528500313592;1.8606748150512393;1.9136818289382707;0.2123876137995168;0.6336166265204118;0.0451084984954527;0.16922503101623487;0.05010573980895713;1.167915392891728;0.04575813194656873;0.191699806260834;1.0084513948466667;1.0169742157681876;1.5105775724117931;-0.6282091401511157;0.4985147573315332;0.0
1.3658362819196688;-0.9191524033578156;1.865508749008145;2.1011833088024714;0.29077571487366227;2.2674967004318938;0.08455051636028933;0.16922503101623487;0.049854150105868994;1.3566524138963296;0.04078719282145408;0.191699806260834;0.9609200791841259;0.9233673985792269;1.5194663145540785;-0.8800756870674895;0.4419072859716883;0.0
1.3933599012962232;-1.0352016667524873;1.941451814540221;2.1509549013660783;0.3421490284952801;0.007615761522292688;0.11706595770026401;0.28575104704320287;0.049592767712321635;1.872246979997423;0.03619863362904047;0.191699806260834;1.0443401003329398;1.0906462451634147;1.5194663145540785;-0.7376449244791622;0.4932138234443306;60.0
1.2310359163238032;-1.339919488676417;1.5154494272791856;2.0385076276364575;0.35783074389116004;-0.9023959366798573;0.12804284127370097;0.5283870978499238;0.049475729965844706;1.8883447860317777;0.03619863362904047;0.191699806260834;1.0380167957671502;1.0774788682947016;1.451783856738911;-0.7161433780063456;0.46061245767466497;60.0
1.2564918409698758;-1.4691303780082914;1.5787717464238675;2.0385076276364575;0.3530585202174215;-0.9446111204319354;0.12465031869811544;0.4887182591133771;0.047090554027600796;2.388180119361664;0.027276435199347374;0.191699806260834;1.0541185893907024;1.1111660004990442;1.451783856738911;-0.8364589968591095;0.4571520002117461;60.0
1.1703853890056055;-1.2853482044993425;1.3698019587978023;1.8220851831828704;0.3838832673393757;-1.236235359793055;0.1473663629431546;0.5513985478271719;0.04610548069659299;2.732178488674821;0.0270215152442133;0.191699806260834;1.0538823079861879;1.1106679190862943;1.4511814867966735;-0.8350830288245226;0.4570097333491573;60.0
1.1754800430924535;-1.3636614819585762;1.3817533317086363;1.8220851831828704;0.5216795719209798;1.629730847248112;0.27214957575965676;0.634651903724248;0.04646074994619878;2.7766201352810627;0.0270215152442133;0.191699806260834;1.0642980856553834;1.132730415129714;1.4511814867966735;-1.0121887312611244;0.47604344060288684;60.0
1.114098233123635;-0.9895423773715486;1.2412148730492054;1.6355862042526417;0.7274185009445975;2.5316194528721465;0.5291376755164854;0.637244549607417;0.05529026614565352;2.7734932105957415;0.02829611501988375;0.2335066789028244;1.0505410729384226;1.1036365459306123;1.4079365823032957;-0.847710227826818;0.4631337296842371;60.0
1.0898189008138248;-0.601403834740551;1.1877052365710534;1.4265589800174705;0.9271801465000659;0.7353349130860446;0.8596630240638835;0.7157504187720682;0.04334320787843948;0.3222868614374439;0.0395125930457836;0.1335780564902621;1.0577919280960628;1.1189237631451863;1.4358376789328324;-0.7502144086599205;0.44641944238318976;60.0
1.2283217295532898;-0.8335158142706461;1.5087742712927854;1.7401555067405716;1.0393738457202215;-0.8377773811184808;1.080297991167243;1.4170716078001262;0.0453015458235433;0.1418014739898322;0.043081472417660825;0.14530437442643;1.0246043988712354;1.0498141741862859;1.3958841666049517;-0.7042623294882756;0.45876763035636137;60.0
1.2338815196679704;-0.952638131126718;1.5224636045781401;1.8898919194788797;1.0771780437290632;-1.679835402110673;1.1603125378919719;1.9918345353217264;0.04254613750340065;2.0852885630888496;0.02829611501988375;0.14530437442643;1.0024640578256483;1.0049341872322648;1.3628463614621678;-0.46620891909137185;0.4731445984040548;60.0
1.101217283393497;-1.405631716645789;1.2126795052445536;1.8898919194788797;1.0702369233356888;-2.101542751320905;1.145407072071041;2.0372660344210116;0.04116404182257347;2.2235636901641467;0.0178443968593862;0.14530437442643;0.8952979210580152;0.8015583674508041;1.3628463614621678;-1.0961953850624797;0.4351861171486398;60.0
1.2494189246281646;-0.9075472277814495;1.5610476492189995;1.7814230502403379;1.1457341797632874;-1.8295394902637065;1.312706810677853;2.025028235907603;0.04203516856131791;1.0919001045429897;0.027148975221780378;0.14530437442643;1.096785382913833;1.202938176173443;1.271555255841991;0.35065692337094057;0.4679908296845553;60.0
1.2242295369411498;-0.7458962242726728;1.4987379591191419;1.7814230502403379;1.184992156901857;-1.616031814015628;1.4042064119189157;2.087335611948683;0.041391244697366554;1.213157651929505;0.024599775670439503;0.14530437442643;1.0988390175498635;1.207447186489949;1.271555255841991;0.312987306342331;0.46785898013637267;60.0
1.2604467836399247;-0.7252248011033866;1.588726094388231;1.7814230502403379;1.171800158846534;-1.0063372812575824;1.3731156122727624;1.5970143350649828;0.04412827017027742;0.8658401543626155;0.029188334862853077;0.14530437442643;0.924976896242038;0.8555822585815541;1.2529283320295987;0.8590644950089711;0.36883709484219546;60.0
1.224529117661592;-0.390816620684861;1.4994715600010773;1.6560609499402448;1.0697535754447594;0.3184306468767166;1.1443727121768466;1.1856160837770495;0.053325688953556286;-0.5680222340641087;0.0641123687162231;0.1544814928112571;0.9140517883218989;0.8354906717344616;1.200965431165037;1.3025510581740454;0.3706386961369931;60.0
1.2315718729360514;-0.4423247421750943;1.5167692782072137;1.6642990193643614;0.8230873416069578;1.9714359416430765;0.677472771913609;0.8069992971450688;0.06322793553800145;-0.8840149111064489;0.0917711838482717;0.1891506067094931;0.9504711532911356;0.9033954132385815;1.3410772624809248;0.46981041282080266;0.3783415217276872;60.0
1.3465278865475845;-0.8534215427118979;1.8131373492503047;2.0819526464337366;0.5500200526574448;1.315371830029391;0.3025220583252983;0.752207258352358;0.0753486039441336;-1.1192092795879804;0.11624349954114413;0.22076068114612;0.9055789125685059;0.8200731668887576;1.3410772624809248;0.6480515124514227;0.3558134592789929;60.0
1.436525979755564;-1.1111848410700191;2.063606890512683;2.685835194243165;0.45103109479428927;-1.0232748353707646;0.20342904847133514;0.752207258352358;0.07393509739179346;-1.050270078922197;0.11624349954114413;0.22076068114612;0.9752394947158636;0.951092072053653;1.3504857495692437;0.3601942133862792;0.39134248324831805;60.0
1.6391595148073093;-1.0138496683781757;2.686843914983333;2.7313711149410214;0.5818382189378172;0.695627019159918;0.33853571301673124;0.752207258352358;0.0768386066435086;-0.7328989861513637;0.10349750178443967;0.2273885999796063;1.0070276611566455;1.014104710334624;1.4135873163064647;0.09361787521687512;0.41105244015244946;60.0
1.9103014929611004;-0.2873260104171733;3.6492517940094094;2.13706219048066;0.808317119576595;0.8010264504553334;0.6533765658006034;0.8884040608794863;0.08151826463578085;-0.49334197043246303;0.1020954420312021;0.2477821963903334;0.9987212087629138;0.9974440528328558;1.2617100300382775;0.28765713253405034;0.41048941614232454;60.0
1.8978560001466565;-0.19099907580490796;3.6018573972926657;2.13706219048066;0.9984655695080553;-0.42831940669818147;0.9969334934930452;1.3962921566188018;0.08025360743137507;-0.42559165414294725;0.08781992454369328;0.2477821963903334;1.0414051078107847;1.084524598574392;1.3466631051583609;0.016029662841555138;0.4355760748624799;60.0
1.9178530211332807;-0.29382552301207865;3.6781602106700517;2.270203331255904;1.1422822592105555;-1.3506879997934593;1.304808759707171;1.9845247429125175;0.0797684591040263;-0.6426874522951102;0.09699704292852042;0.2477821963903334;1.0344689968925633;1.0701261055319062;1.3466631051583609;0.07084632897349176;0.4308974503508108;60.0
1.8933675149223297;-0.27205096019562675;3.5848405465631585;2.1206516208569965;1.2926011905074568;-1.7200733135814525;1.6708178377012948;2.5523607379144613;0.07952715221021375;-0.634988382616152;0.09699704292852042;0.2477821963903334;1.0236184764725846;1.0477947853760554;1.2305236973860831;0.8537338312451848;0.45247393590102986;60.0
1.5770247256475274;-0.16653700140051278;2.487006985303659;1.7733657418623354;1.345221640331815;-1.8014231885485588;1.8096212616170186;2.4937833001035377;0.07986900626126216;-0.5520825367411425;0.09699704292852042;0.2477821963903334;0.7444015280944755;0.5541336350293902;1.0277310606166483;-0.7107819222224135;0.3716404327560844;0.0
1.6252374501419522;-0.37015238477525636;2.6413967693439147;1.81774612212075;1.3719923822855076;-1.5922828913562377;1.8823630970494625;2.2626607305943303;0.09915006012450658;0.048889743553811135;0.11292954012440082;0.3538288977261139;0.7224906332617872;0.5219927151510183;0.9607577340303819;-0.3526901296591076;0.36476695807938414;0.0
1.7439191113509918;-0.643104230994724;3.041253866935233;2.3473093416609854;1.3308068248621352;-1.2554139533106001;1.7710468050996375;2.137228026217982;0.09904362757329384;0.06477095029081473;0.1114000203935963;0.3538288977261139;0.7746886100849674;0.6001424425953786;1.0743224063123251;-1.0454542965894587;0.38097834374553946;0.0
1.7742825732863974;-0.742533521419017;3.1480786498678004;2.3473093416609854;1.2507129771020482;-0.8802535996051568;1.5642829510914686;1.788024229371004;0.09752999153034045;0.32751244140586283;0.09992862241256233;0.3538288977261139;0.780129932481639;0.6086027115538065;1.1037453635007717;-1.1423967529428922;0.3821038286138093;0.0
1.6489946285504629;-0.840245657664928;2.7191832849882793;2.5062757040760015;1.1816493129151904;-0.49090718478544965;1.3962950987129417;1.4230774675761964;0.08950931632978822;1.479706261700151;0.08998674416233297;0.3538288977261139;0.6642426050755554;0.44121823839756025;1.0154014615018432;-1.5650380541073348;0.3385927614234361;0.0
2.2240563285667783;0.3114425939924704;4.946426552637937;3.0020547987153527;1.0624389492350084;-0.48123052329942007;1.1287765208515885;1.254242690119042;0.06416417567287269;0.6808725224875268;0.07800550627103083;0.2304476394412153;1.1812804849067138;1.395423584021441;1.1037453635007717;4.104939975772254;0.5176191417592041;30.0
2.8590902168055345;-0.16296390616292217;8.174396867833119;3.4872528097107702;0.893659203970873;-0.7149541558232063;0.7986267728418542;1.4013607591412445;0.059369190333499806;1.409589363448465;0.056082390129499254;0.2304476394412153;1.6532020463068433;2.733077005913134;1.280968128386976;2.031268855011472;0.6024545542833656;30.0
3.176060074361274;-1.1701065464301292;10.087357595951742;5.004436738471263;0.7248204520437761;-1.0878740170416872;0.5253646877009439;1.0780010134778824;0.0593651601611455;1.4965593669347173;0.056082390129499254;0.2304476394412153;1.794774971796735;3.221217199387971;1.8713084646897618;-0.19499006018639747;0.5819632380044173;30.0
3.182547148193411;-1.1999294678192567;10.128606350474014;5.093785506196252;0.6276401101235823;-0.793094997288871;0.3939321078359425;0.8619442073481862;0.0600537167418704;1.8323095601882213;0.054552870398694726;0.2304476394412153;1.792572685260986;3.2133168319437817;2.011113629806289;-0.2846762853370914;0.5750885200031929;30.0
3.132814988592408;-1.3256693875060204;9.81452975274925;5.093785506196252;0.5459722197514711;-0.2766459458488915;0.2980856647403487;0.6628284019142945;0.06433838283944494;1.2172403546407262;0.05582747017436517;0.2304476394412153;1.6978644512375733;2.882743694776266;1.4357808315371812;-0.12190536647073663;0.5239129688269923;30.0
3.1051224862508513;-1.2983099179956221;9.641785654620668;4.8386167358420895;0.44888180562135854;-0.5685707749533644;0.2014948754178911;0.5304583282388744;0.0637436911892643;1.2682470579925513;0.05582747017436517;0.2253492403385336;1.6683507516725344;2.783394230606311;1.326964174844003;-0.04683595857215374;0.5091076468097852;30.0
3.2715774454961037;-1.4030574971637975;10.703218981878813;5.187302086224997;0.4030040294359391;-0.814972696035722;0.16241224774160326;0.5295371832750426;0.0636860810767281;1.2770165262376503;0.055572550219231076;0.2253492403385336;1.5834133841119744;2.507197944984935;1.2352015985452516;0.10222544731624782;0.4655446234030986;30.0
3.3714881921176336;-1.4746884157187974;11.36693262958863;5.531050308723764;0.355477523301442;-0.7684690315089774;0.12636426957252722;0.4918801190005446;0.0636860810767281;1.2770165262376503;0.055572550219231076;0.2253492403385336;1.473862630448603;2.1722710534328753;1.1969778385780994;0.3112659538984859;0.4188363032604001;30.0
3.6664756688592335;-1.3156409954772221;13.443043830336764;5.725183036057785;0.44174520808994555;0.338241714264484;0.1951388288704293;0.4918801190005446;0.04632966034774951;-0.6320453953598195;0.05200367084735383;0.1498929336188436;1.4857779355844507;2.2075360738695924;2.3517895743887216;-0.6519520242142581;0.39984350903209676;30.0
3.9004659522059897;-1.3458642741762548;15.213634644318178;5.725183036057785;0.6393304198636948;1.4927018404729677;0.4087433857630883;0.5557772207885006;0.045967980701598354;-0.4790856353611395;0.04856225145304363;0.1498929336188436;1.5016708586976826;2.2550153678618354;2.3517895743887216;-1.2157388282500574;0.3879219498721581;30.0
4.103460002371192;-1.5316797616907363;16.838383991060184;6.267999508900351;0.76723924594223;-0.17721254763120428;0.5886560605140017;0.7822405300389574;0.042205976704551125;0.43355253724022114;0.037855613337412025;0.1498929336188436;1.4476826698358376;2.0957851125430187;2.192114999570802;-1.2171638021905773;0.3599258437566027;0.0
4.3384702294897615;-1.6561874990529013;18.822323932168942;7.863513078958566;0.8649600137524971;-0.6818481339613799;0.7481558253907199;1.1654441615425237;0.03291849045795176;0.036100252567745704;0.032119914346895075;0.1142041399000712;1.3751705431746912;1.8910940228153754;1.9987782220988688;-1.0955528810028232;0.3264536716540371;0.0
4.095145446071952;-0.9143640239456532;16.77021622448385;6.894121005813793;0.8942832701337639;-1.4527617807776463;0.7997425672411385;1.536365674217203;0.03315097150845637;-0.032402980883664945;0.03441419394310183;0.1142041399000712;1.3408430278085997;1.7978600252229329;1.854395529855502;-0.6733869152443661;0.33190324758631246;0.0
3.561208561427038;-0.03244255496272912;12.682206417981233;4.317588895135468;0.8723132509859113;-1.7689472613125345;0.7609304078456095;1.4372219145759848;0.03390188547677995;-0.22657807237667132;0.037855613337412025;0.1142041399000712;1.149864747034019;1.3221889364716088;1.854395529855502;-1.6419114200372662;0.2926859807791292;0.0
2.90121538010369;0.41154140250049714;8.417050681750199;2.75158763804242;0.8710898119784085;-1.7596772435821553;0.758797460532579;1.419140392418596;0.03761615953515285;-0.45898145040304333;0.03811053329254613;0.1203222188232894;1.221485362645633;1.4920264911575336;1.854395529855502;-1.2007205408418617;0.30771974002443325;0.0
2.262744652297691;2.77146442617208;5.120013361501799;2.4695495252689446;0.8859615424182424;-1.5261865930433227;0.7849278546441112;1.4956423535894716;0.0372385988725878;-0.2742645042145821;0.03811053329254613;0.1203222188232894;1.2052157140328634;1.4525449173517446;1.854395529855502;-1.099775046635982;0.3014039649043097;0.0
1.3905327582731575;-0.5297899188528561;1.9335813518307552;1.7420647541563103;0.8832885587535315;-0.7733119096007424;0.780198678024891;1.2491215017950457;0.03342192313328239;0.32982073625999975;0.03811053329254613;0.1203222188232894;1.1374314089198152;1.2937502099973157;1.5989361469888057;-0.7082885226195749;0.2781662730489287;0.0
1.138653216571907;-0.43085727903752385;1.29653114760955;1.3445198507864955;0.8222677251780224;0.9215691642820376;0.6761242118694398;0.6448516271463527;0.031160929323873;-0.24128511351794435;0.03811053329254613;0.10706638115631681;0.978704126210475;0.9578617666614094;1.3796471781796162;-0.5736617777107035;0.2313839401657014;0.0
0.9886269076942655;0.3922057660184824;0.9773831626171259;1.1221057985247134;0.6482599663889922;2.568640241139465;0.42024098402265725;0.47636448788569624;0.0438825734073156;1.6506272635594605;0.038365453247680224;0.16110941164474352;0.9082973692045324;0.8250041109038747;1.1485211530153965;-0.13051608775950918;0.20892231153407623;0.0
0.7933813550520906;0.3175005744262282;0.6294539745442914;0.9872464448199216;0.4844593129193837;0.7980851652819296;0.23470082587432134;0.5266727079214621;0.06641327192730714;2.0874425022399277;0.04881717140817785;0.23146731926175168;0.7845521094565907;0.6155220124527863;0.9910954454544076;0.3080339715118271;0.176110341098559;0.0
1.5299427819268447;5.338540056994052;2.3407249159700525;1.076535804287702;0.45901796120918203;-0.32497544615281476;0.21069748871263416;0.693868785915064;0.06852213160794;0.28997809349185544;0.07851534618129904;0.23146731926175168;1.186043145164745;1.4066983421922807;1.0703387058231;2.614709898806694;0.28534971484785804;0.0
1.8645276140528158;1.1852463171009409;3.4764632235654855;1.0190308804797548;0.4992801859212086;-0.9601328019788133;0.24928070405351663;0.6734286934188575;0.07002645585506581;0.17821729939218914;0.08221168553074334;0.23146731926175168;1.4145927571686119;2.001072668633895;1.0608324891261214;0.5076094645803165;0.36643838211789703;0.0
1.9551323052621488;-0.19627986254244864;3.822542331079684;1.6722133214649002;0.4940439918897105;-1.2823110221229752;0.24407946592232033;0.7437821076493915;0.0693277047337688;0.22521600134454048;0.07991740593453653;0.23146731926175168;1.5267326812374595;2.330912679958522;1.60931513652609;-0.6014648793577066;0.4192153363510353;0.0
1.9058449632919172;-0.10545061704822084;3.6322450241051696;1.2892016109183677;0.509472217515971;-1.4521940380108649;0.2595619404206409;0.8096188856884589;0.0695466416491254;0.2083612296981433;0.08068216579993882;0.23146731926175168;1.4851269127999693;2.2056019471227675;1.2920252261470107;-0.3662102754483423;0.41962117072229294;30.0
2.0069680617724517;-0.9144811700095873;4.027920800974671;2.841568437073957;0.5031541148024592;-1.1559000500674883;0.2531640632426463;0.7669594055705812;0.07211583774483529;0.022559406239237332;0.08756500458855915;0.23146731926175168;1.6098339977662597;2.591565500364098;2.572996541906143;-0.998076165367472;0.47667552459754897;30.0
1.9105863435300212;-0.8117778261368901;3.6503401760834167;2.6272116547330318;0.4359141206297986;-0.27175827437365696;0.1900211205644506;0.5697195035545249;0.07053904043442803;0.025589394096201406;0.0818293055980422;0.23146731926175168;1.5405903107909864;2.3734185057030683;2.3106012191630843;-0.6374467779230056;0.49754114114358333;30.0
1.6174422257130687;-1.5460746423131109;2.616119353519646;2.5105044322508867;0.35397564199867193;-0.8478247704221132;0.12529875512837194;0.5364324849464841;0.07038561085374626;-0.8507032158683987;0.11267462016926691;0.22330988069746088;1.264733256251943;1.5995502094696432;2.2531301991477806;-2.075098564694551;0.4645402352520294;0.0
1.5800755054087732;-1.4415366654730222;2.49663860279279;2.5105044322508867;0.30747234385882943;-1.3544975278067786;0.09453924223804226;0.5307457840496254;0.06957156859674006;-0.9164836259215166;0.11267462016926691;0.22330988069746088;1.2542878597615068;1.5732380351451012;2.2531301991477806;-1.885806733559097;0.48416356704843877;0.0
1.6888032368958703;-1.231925231649271;2.852056372949969;2.655028739399408;0.3133088967300865;-1.2392504096252475;0.09816246477022399;0.5307457840496254;0.07211202841347598;-1.1215773112021357;0.12287141837463042;0.22330988069746088;1.3081584034925722;1.711278408628235;2.254312430732808;-1.2412335716095533;0.56141346870957;0.0
1.594774227401096;-0.5905880354741732;2.543304836382763;1.6802061577231198;0.3573632881082142;-1.056625324806975;0.1277085196875145;0.5672188028618944;0.0762994889863172;-1.2607343434298777;0.12796981747731215;0.22330988069746088;1.2793762497777512;1.6368035884953829;1.0419391889592182;-0.19285076639579365;0.6191415540619306;0.0
1.4012104081260088;0.04127081614903368;1.9633906078406562;1.6917900914846926;0.4160527307438855;-1.2948938717071339;0.17309987475944408;0.6277302856784847;0.07555002972375809;-0.6050031953547451;0.10885082084225547;0.22330988069746088;1.1340538945424645;1.2860782357269314;0.75887511652903;1.106577770855674;0.6632407742803078;0.0
1.1441451962136697;0.2861381849807932;1.3090682300188166;1.729197964342999;0.45415588576467936;-1.5773255192472981;0.20625756857470048;0.7909482113867025;0.06005868436346767;-0.34338568370491646;0.06882838788620364;0.17844396859386139;0.9121836345851245;0.8320789832049279;1.065688773212512;1.8800848346714056;0.6604708437995072;30.0
1.1755017800728884;0.12740047637559038;1.3818044349545295;1.740088899293685;0.4387617678891606;-1.5062009636184899;0.19251188896122162;0.7480446311220462;0.051503447856153406;1.7682485580755813;0.057611909860303775;0.17844396859386139;0.945367168623884;0.8937190835119392;1.1663947322386985;1.5455784771057128;0.7181254178502765;30.0
1.4356794361035303;0.22838056744707147;2.061175443250551;1.8260794998258443;0.38257444370435784;-1.4178145053643014;0.14636320497569885;0.6636279619635694;0.051157716539740695;1.8286114091958867;0.0530233506678902;0.17844396859386139;0.9760257448034264;0.9526262545190832;1.2983601603535706;0.6100117546802513;0.7037373992238058;0.0
1.5278677079206906;-0.28312348658120073;2.3343797329068248;2.072745396297735;0.3642708491170785;-1.4605624209636012;0.13269325151647737;0.6636279619635694;0.052353050025697026;0.8049983106094689;0.05888650963597422;0.17844396859386139;0.9730567238268107;0.9468393877845663;1.2983601603535706;0.7015868167817656;0.7058818645887872;0.0
1.4341366047098236;-1.0418846619628381;2.056747800968621;1.9186964347717188;0.32631700692259874;-1.6287820728165296;0.10648278900692336;0.5842859587250904;0.05237967410390873;0.30819693765429607;0.06882838788620367;0.17844396859386139;0.79646057217231;0.6343494430250435;1.2983601603535706;-1.4515378531678664;0.6156455059661111;0.0
1.4380545579346504;-1.0585495395559121;2.068000911596623;1.9605106303174877;0.305843783683546;-1.4031877898404574;0.09354042001786765;0.5054743845427676;0.048092366405393154;0.7704076094175516;0.0657693484245947;0.16977669011930238;0.7958313165424384;0.6333474843896709;1.2983601603535706;-1.447789171632094;0.6194502230678757;0.0
1.3870121311981183;-1.052445070879955;1.9238026520907463;2.1941429044673177;0.28309687389479904;-0.9658342249196513;0.08014384000900776;0.44511118407708894;0.05077055090504039;-0.23231086352542624;0.0741817069440196;0.16977669011930238;0.7786841447706031;0.6063489973171255;1.1027267841829786;-1.280426882790352;0.6184578657454396;30.0
1.265100243086323;-0.37026339936381497;1.6004786250570737;1.4303111000712094;0.3240793761496976;-1.0509077337443165;0.1050274420455772;0.5072310638815066;0.03947654392715602;-1.2039118897193304;0.0657693484245947;0.1198123789130212;0.8090746126229396;0.6546017287909597;1.2385022430215282;-1.378139953802537;0.7001817482645075;0.0
1.1313927607072127;-0.8960758013186939;1.2800495789806883;1.4683267016417276;0.38399257424967653;-0.7434886268281882;0.14745029707889334;0.5634678607801494;0.047230831585265726;0.0647929357282736;0.0657693484245947;0.16059957173447528;0.8436562703067212;0.7117559024278475;1.2887890210330202;-1.481787279512047;0.7131319423024277;0.0
1.7847748907668344;2.5042515258368048;3.1854214107117653;1.9138155189337316;0.41563516727027355;-1.1952054860776768;0.17275259227178827;0.6233786803947671;0.04628475386336413;0.23565036110621487;0.05582747017436525;0.16059957173447528;1.5095985421594986;2.2788877584900833;1.7038468847875383;4.197528967026361;0.9460753209740503;0.0
2.093823200719574;0.5187935806347658;4.384095595871561;1.978244167380888;0.4295692786370814;-1.4000118380171427;0.18452976514878247;0.7439269882575598;0.04332975758443062;0.5362542236895207;0.053533190578158474;0.1478535739777709;1.89007050761472;3.5723665237549653;1.85799815151797;0.7875667416938389;0.940216488890237;30.0
2.2341153924338424;-0.7178630399451384;4.991271586709822;2.6064157382840016;0.4713623960864898;-1.5129065599746938;0.22218250844439688;0.7798176030737904;0.04135792829484628;0.8250719661168571;0.05225859080248805;0.1417354950545528;1.9908905275770874;3.963645092796173;2.067892622323549;-0.7137155420375083;0.8229772257875081;30.0
2.235224973785254;-1.0642656238634995;4.996230683433289;3.521579037387702;0.5161271009350437;-1.63375819493173;0.2663871843196128;0.8999927270634901;0.04288940866233917;0.732328449441238;0.05404303048842672;0.1417354950545528;1.9447544814369975;3.782069993069285;3.153162921762906;-1.328172629981688;0.6996632248474961;30.0
2.156485763042176;-0.7774081216525739;4.650430846203597;3.17463805651933;0.5904767024381817;-1.4862452896444864;0.348662736122269;1.0084469332602433;0.04561278047744702;0.36765724622112606;0.057356989905169894;0.15091261343938;1.8201437107326441;3.3129231277195994;3.039470351347268;-1.341417249150955;0.598934574307703;30.0
2.1578283933085567;-0.6992496469121647;4.6562233749685875;3.17463805651933;0.6199812048190485;-1.1370833042641486;0.38437669432887894;0.9682867235324684;0.04504043511538066;0.4496125813246452;0.057356989905169894;0.15091261343938;1.8090314813291404;3.272594900439904;3.039470351347268;-1.3671830881090512;0.5698819518714313;0.0
2.1287619185822897;-0.508258554690021;4.531627306006151;2.880337866254198;0.6189745319463636;-0.6817048303873593;0.38312947119821994;0.6461455851554416;0.049811472298900386;0.6754857346882703;0.04690527174467212;0.1794636484143978;1.7724344090536797;3.1415237343974667;2.6124879213965397;-1.2254816406038547;0.550131217806147;0.0
2.23914888377163;-1.0785457886066814;5.013787723695735;3.379153789883704;0.6333581286274298;-0.30807904630127925;0.40114251909843995;0.7474978553057159;0.04929957249520321;1.4596807209664613;0.041042112776588126;0.1794636484143978;1.8258446673322137;3.333708749225482;3.0789726844612373;-1.4335841908417766;0.580720854886524;0.0
2.152975638422255;-1.3706991304664298;4.635304099639717;3.379153789883704;0.603851974557015;-0.5978463495297989;0.3646372071764059;0.7916976521568176;0.049098564396587344;1.9621716288480342;0.01733455694911795;0.1794636484143978;1.8031041618443089;3.2511846184602677;3.0789726844612373;-1.389917534816624;0.5695451535010086;0.0
2.38671860686864;-1.4983221717795128;5.696425708372981;4.169976471983348;0.545926510408259;-1.6487667944906204;0.29803575476653893;0.9731494143759711;0.04348898481750667;6.368807344082178;0.008667278474558974;0.1794636484143978;1.795625620882737;3.224271370370515;3.0059920161909126;-1.3693042367482025;0.5657338574931948;0.0
2.3950293680700185;-1.5136568743356498;5.736165673917873;4.193460521001733;0.5525487176853849;-1.747358779235337;0.30531008541576327;1.0524898765359736;0.04358532628976374;8.16936103393652;0.0122361578464362;0.1794636484143978;1.650375552755236;2.7237394651321507;3.001191353059305;-1.6474879159779177;0.5037013272817955;0.0
3.019656302986943;-0.710315754437279;9.118324188168772;4.587525623659547;0.5396644667277792;-1.4646764626995328;0.2912377366485784;0.9604248303173077;0.022850943910199005;2.3223195091542848;0.0122361578464362;0.09483022330988061;1.629494215847491;2.65525139948043;3.001191353059305;-1.662281610055832;0.47710388629508244;0.0
3.246911071005712;-1.0480175629097164;10.54243150301946;4.511019560616036;0.494210322156888;-0.6183048210232427;0.244243842526415;0.7048136871526054;0.02362863934653741;1.5912126176439256;0.012491077801570275;0.09483022330988061;1.4939104124650702;2.231768320471556;2.465630423818083;-1.4282230972589325;0.45514105854224934;0.0
3.2821627163779397;-1.3208417608169283;10.772592096781414;5.170790976989625;0.3919407539458313;-0.7247057152654546;0.15361755460362667;0.5708210926200912;0.02575008934376631;0.40455779009356296;0.01707963699398385;0.09483022330988061;1.323917572185437;1.752757737941382;2.385987071919166;-1.7572728464781373;0.4194084433890106;0.0
3.4927961207120126;-1.065874304540465;12.199624740860884;6.007960918720972;0.3539447129188704;-1.0532185491111072;0.1252768598032216;0.5708210926200912;0.02576614392257088;0.3941753372031428;0.01707963699398385;0.09483022330988061;1.5297027672859138;2.3399905562421828;2.385987071919166;-0.2927048194668594;0.46882540909702797;30.0
3.159704793669404;-0.867018800477814;9.98373438313741;4.586172843671512;0.32900739619289937;-1.5325618836419248;0.10824586674963146;0.5708210926200912;0.03332861098811345;0.3695987393828482;0.029825634750688248;0.1213418986438257;1.4903438114605332;2.2211246763587096;2.293445440844991;0.46293048786355057;0.48241073911361726;30.0
2.819449150505538;-0.2685007797895417;7.949293512286399;4.060645895158037;0.3946314413832615;-0.6236573814116191;0.15573397452823057;0.605468925010767;0.03455988516456181;0.08016171706158086;0.0326297542571632;0.1213418986438257;1.5369998046481854;2.36236839948856;2.361048700709916;0.6143415760515767;0.5263273847162608;30.0
2.3258455662412802;-0.2307621239801329;5.4095575980042225;3.3919486043035376;0.4936221531524611;-0.4749314015187805;0.2436628300828718;0.767002059436389;0.034837289427461594;-0.15405740785803787;0.03645355358417455;0.1213418986438257;1.5780908311689068;2.490370671419371;2.369297369925701;1.129512613317187;0.581859747620999;30.0
2.1228037755408184;-0.19254567799454333;4.506295869450354;3.359647239801577;0.5739858597160756;-1.2661118798853292;0.32945976715400244;0.8515010756347137;0.030302707507148505;0.4252467854112979;0.028296115019883775;0.10706638115631681;1.7433072999375911;3.0391203420156945;2.392590006906242;0.6444385145753169;0.6867015045166579;30.0
2.3655734684346434;0.02127964703420528;5.5959378345619095;3.359647239801577;0.6265826943694373;-1.55911141788767;0.39260587288326365;1.0855396165519107;0.033473761937763795;-0.5276157825152413;0.03492403385337005;0.10706638115631681;1.7192550547070171;2.9558379431356285;2.3781880175114196;0.6929739805767597;0.6609980495486336;0.0
3.121051628563555;0.6699298020562298;9.740963268159218;3.899554549512287;0.6585074279447207;-1.6462262534848853;0.4336320326583716;1.2625205092686678;0.033346449854179123;-0.5015322335962745;0.03492403385337005;0.10706638115631681;1.8417963555944439;3.3922138154809756;2.453590331784091;-0.5354621910867826;0.6328948854603093;30.0
3.288712667500616;-0.23022170160481134;10.815631009379016;4.492254700981032;0.6784935471933542;-1.414072878069695;0.4603534935830204;1.115785849445598;0.03361840333814058;-0.5830427203308666;0.035943713673906405;0.10706638115631681;1.8143338850037722;3.2918074462728812;2.453590331784091;-0.42201942097154743;0.613195017784994;30.0
3.3646465140100625;-0.5632956877786613;11.320846164240065;5.543774456666737;0.6515349462957939;-1.2596642567553418;0.42449778624466306;0.9280245285373816;0.030014887292376367;0.08450691871168045;0.0316100744366269;0.10706638115631681;1.8051724301298853;3.2586475025010357;2.349972455709599;-0.3824580711844937;0.6076816853998753;30.0
3.273834139929117;-0.30715492542880724;10.717989975765422;4.520219529893135;0.6198459101449585;-0.8465300078284606;0.384208952323432;0.945965920685572;0.030174546251188428;0.022794044252740123;0.032119914346895075;0.10706638115631681;1.7914347676589208;3.2092385267771717;2.349972455709599;-0.0031210370860138585;0.6354638160117368;30.0
3.1466290468967615;0.13435165637234706;9.901274358774423;3.940200937469216;0.5332402187323373;-0.9292844758340753;0.2843451308737109;0.8577995259734905;0.030473138454616615;-0.10548160986104259;0.032119914346895075;0.10706638115631681;1.7898419366723382;3.2035341582709864;1.3247150627759507;0.6219889737301716;0.6870761538186467;30.0
3.060465159665823;0.4109674613223749;9.366446993528353;3.940200937469216;0.46121222425564745;-0.8296073849975869;0.21271671580284163;0.6524557930525937;0.031305091419606294;-0.4583971872142267;0.043591312327928976;0.10706638115631681;1.728925083106857;2.989181942996052;1.0635809715967668;1.5429017566221621;0.6866351164396445;30.0
2.858261791404027;0.022170721169498444;8.169660468200158;3.940200937469216;0.4020130100198425;0.3522812848544403;0.161614460225214;0.5293296702142103;0.03589116273366237;-0.6501444280686883;0.04665035178953808;0.1213418986438258;1.493557837766949;2.230715014755084;1.0635809715967668;0.679479085569635;0.6192218575189067;30.0
2.8162673762901056;0.04411086900447003;7.931361934755956;3.500398223519687;0.30466773313071804;-0.04356355644591253;0.09282242761101042;0.4143666074431002;0.03416503831289482;-0.1784709357111107;0.04690527174467213;0.1213418986438258;1.539763403049726;2.370871337371273;1.1392852111401195;0.5975006690830532;0.6693248033099962;30.0
2.9580414726446493;-0.3951508666067077;8.750009353885726;4.131544982001093;0.2288310112545195;-0.39373332933315436;0.05236363171176603;0.31781982291109145;0.034968972572769035;-0.8470959516915836;0.04665035178953808;0.1029876618741715;1.5618363397974944;2.4393327523120343;1.8606515459196922;-0.12051662852080022;0.6344124524108191;0.0
2.9829716003890208;-0.48111778038930564;8.898119568727436;4.131544982001093;0.18833381596946502;0.7470952769648698;0.035469626237620316;0.17923116361293034;0.03546550928490838;-0.8956093316765349;0.04665035178953808;0.1029876618741715;1.5259234004276605;2.3284422239727145;1.594056219382618;0.04547665876432663;0.6050511806122536;0.0
2.9801833645823224;-0.4583541331417027;8.881492886533211;4.131544982001093;0.13843722613015094;0.30161366587649546;0.019164865578610548;0.14992590471984946;0.03442698048126714;-0.7760041424563427;0.042571632507392675;0.1029876618741715;1.4957903702265447;2.237388831662464;1.594056219382618;0.0036438995755727573;0.5888421502720148;0.0
3.141529349085099;-0.21330691116839945;9.869206651163044;4.367062804747318;0.12282024120355467;-0.5497199966128398;0.015084811649299347;0.14992590471984946;0.034194536432426544;-0.6921689704970845;0.0418068726419904;0.1029876618741715;1.6757242107767498;2.8080516305833614;2.267450732498555;-1.0656854686600645;0.6031904013194326;90.0
2.459692473394198;-0.9694113354659881;6.050087063672067;3.391549311825422;0.16150626705426693;2.465571827867878;0.026084274297804192;0.14992590471984946;0.03434680735594341;-0.9373392230479017;0.042571632507392626;0.1029876618741715;1.5840253229687036;2.5091362238061055;1.9043144185872332;-0.3191275405054562;0.6622649636361695;90.0
2.197999113493021;-0.783316909803632;4.831200102916107;2.902386566602605;0.20049101172373326;0.10234671303268152;0.04019664578200615;0.22214045668517035;0.03241176477096233;-0.8241517903563369;0.04078719282145406;0.0989089425920261;1.6867399852171248;2.845091777730266;2.2730817824337484;-0.5132876854246837;0.7549611018369213;90.0
1.9281592749115677;-0.5713296673079071;3.7177981894275023;2.656759640190586;0.24688421270194624;-0.6015265404338253;0.06095181448145983;0.3518708188912478;0.03373535109845865;-0.9460420691936033;0.042571632507392626;0.0989089425920261;1.6955210084435488;2.8747914900734286;2.2730817824337484;-0.5226433091338972;0.7665154302358875;90.0
2.107097941901371;-1.2799988728248537;4.4398617367649935;3.3095336584834545;0.33102118017323956;0.6313796072928332;0.10957502172328432;0.4780344855777032;0.03431247618549592;-0.7725632998076517;0.043718772305496006;0.0989089425920261;1.8695451108968772;3.4951989216784174;2.906318939946719;-1.4433188383785285;0.7641920732795676;90.0
2.2606655040137125;-1.5752406988292622;5.110608521037573;4.403682656721158;0.4478802391846996;0.7344495950368588;0.2005967086521437;0.5123193138439877;0.03469372811070706;-0.810460480724286;0.04499337208116645;0.0989089425920261;2.015127077888018;4.060737140037502;4.00009789452476;-1.8327080524329482;0.7265538015972658;90.0
2.2540715924428545;-1.5521054797596614;5.080838743857867;4.403682656721158;0.5256360754166051;-0.44360454938563343;0.27629328377937096;0.6431366658529537;0.03620904979396634;-0.5278780586735858;0.05174875089221983;0.1029876618741715;2.01205502594768;4.048365427441319;4.00009789452476;-1.7925512767884106;0.7392515511109861;90.0
3.0785463729801963;1.3105691602617653;9.477447770589523;4.427189886675177;0.6398487082458287;-0.5217949842502663;0.4094063694438556;0.9326935255910477;0.03105762369872214;1.5538150530744133;0.028296115019883723;0.1029876618741715;2.889590875045256;8.349735425144809;4.019240346048574;1.945306943092506;0.9198051602867163;90.0
2.827695824604709;1.7988818957092514;7.995863676486905;3.7305702620165384;0.7342797259080542;-0.8739494926863617;0.5391667158796073;1.1378105535087333;0.029993195999857395;1.4840128246879158;0.026894055266646226;0.1029876618741715;2.8247763084804682;7.979361192952541;3.744649772612856;1.819970300107357;0.8350551978093447;90.0
2.837859380087677;1.9477048033218756;8.053445861151614;3.7305702620165384;0.7355022221126608;-1.3535598369942663;0.5409635187326619;1.095541655659511;0.0212409347569091;0.5401162551477702;0.023197715917201975;0.0693382277964719;2.8312422254614047;8.015932539235648;3.744649772612856;1.9437112781850905;0.8551092209836448;90.0
2.8949011494989905;0.8913713119087144;8.380452665370576;3.9514874309464805;0.6842400697722589;-1.5478397987071357;0.46818447308194583;1.172602363284427;0.021172963294256976;0.45229975991129107;0.023197715917201975;0.0693382277964719;2.8865315898471318;8.33206461918541;3.9673214796783616;0.9055230719390168;0.7950798486680313;90.0
2.692341138931709;1.3035120137265217;7.2487008083840925;3.0717617532373636;0.6177074491718483;-1.2685869523693565;0.38156249276239157;1.0570637732866472;0.02178466468450852;0.6138182644973799;0.02243295605179975;0.0693382277964719;2.70032107543301;7.291733910427687;2.9516691996206603;1.3250786457530301;0.6795688280100073;90.0
2.9005320718854213;1.1384381746597;8.413086300035935;3.7599097011126723;0.5442223555959256;-0.8657567915547708;0.29617797233037807;0.7547059609531658;0.01680779579620994;1.903995004596551;0.017334556949117952;0.058121749770571995;2.815965680124393;7.929662711638435;3.7457507725662644;1.3248207215825896;0.7805197157573531;90.0
2.8149762834701333;1.4483937908458877;7.924091476499324;3.291849734379349;0.48325587210480087;-0.13880780812405266;0.23353623792377165;0.48138769952966776;0.011317412501490284;0.16361031834437212;0.015805037218313375;0.037728153359845;2.711892953830704;7.35436339303662;3.2179074613440646;1.709172790865211;0.7292346515411308;90.0
2.6550422132433713;2.083504520453226;7.049249154104259;2.7952013308818175;0.4060475644727242;0.3908383245123351;0.16487462461423114;0.42680605019931495;0.011217443590230454;0.9200681406511699;0.013893137554807774;0.037728153359845;2.5252601962427317;6.376939058727879;2.6545308256814777;2.456801011512291;0.6440543447453433;90.0
2.6487307207771247;2.1142998405443514;7.015774431188507;2.7952013308818175;0.34884537253483855;0.05579322609902293;0.1216930939389703;0.42680605019931495;0.011367846814699566;0.8343207705116444;0.014148057509941874;0.037728153359845;2.5106470533265104;6.30334862637709;2.6545308256814777;2.5293576150728616;0.6380069051878243;90.0
2.6844255266534742;1.7005958077309287;7.206140408148784;3.153923613992636;0.3245375816906857;0.38360813269381866;0.10532464192963847;0.40218983546883735;0.011221392760959709;1.439096778491397;0.009559498317528226;0.037728153359845;2.5453383468908495;6.478747300153043;3.0422694577417286;2.036250474061905;0.6371300923977299;90.0
2.7327929314767103;1.2415233628210476;7.468157206329071;3.4200534293820697;0.3234276317864555;0.37384163963472977;0.10460543300299506;0.40218983546883735;0.013182247349474452;-0.5668390347575673;0.018354236769654274;0.037728153359845;2.592156273570542;6.719274146611118;3.3123846626167768;1.5043883621950613;0.6386162088804861;90.0
2.7264733756327324;0.8781081972322972;7.433657068034146;3.3888948869753976;0.3282660384783842;0.42290778640609433;0.10775859201829202;0.40218983546883735;0.01762699755574487;0.675765252257422;0.02294279596206788;0.054552870398694796;2.5763505917294767;6.637582371504823;3.210131696645673;1.0805368110290765;0.59824011344763;90.0
2.145077636987536;-1.3164958061671004;4.601358068704032;3.7537947179079336;0.3058189153614981;2.8317787284721727;0.09352520899288312;0.22873048441279376;0.017710586363927226;0.49505130673342895;0.02294279596206788;0.054552870398694796;1.9788218657896486;3.9157359765272264;3.6765994908772575;-1.6622346784841793;0.5588360567455669;90.0
2.154966954284886;-1.387659733726227;4.643882574059878;3.7537947179079336;0.20717577705696175;0.5790531606715307;0.042921802599155914;0.11447806325059806;0.02976780739888186;3.946030419359147;0.02294279596206788;0.09890894259202611;1.9923957576129125;3.9696408549539317;3.6765994908772575;-1.692355648517662;0.5826577672045821;90.0
2.1466074234950003;-1.3094407512745092;4.607923430603844;3.7537947179079336;0.17010965173855197;2.0809884499427365;0.028937293614611434;0.1472852754305891;0.04011212764567748;1.1248099257882498;0.0354338737636382;0.11777301927194861;1.9836009515568935;3.934672735017413;3.6765994908772575;-1.6815357280526537;0.5625424588291394;90.0
2.092964046474865;-1.2373168196528985;4.380498499836441;3.4693914278179965;0.1290483057512412;-0.9427804712297113;0.016653465217265833;0.2019598814897242;0.04501163555898448;0.7287980060025575;0.03645355358417452;0.1580503721831344;1.919757288004993;3.6854680448482853;3.3688144609382427;-1.6170243146536147;0.5533935827079262;90.0
2.083123165468453;-1.2040150539422616;4.339402122511308;3.4693914278179965;0.1255579792835066;-0.7022886993586888;0.015764806161757468;0.1934236539116303;0.04711912774233511;0.42286564604647514;0.037345773427143875;0.1580503721831344;1.909447402558683;3.6459893831381014;3.3688144609382427;-1.5731740227402715;0.5536669061183362;90.0
1.9170697425012255;-1.4568809874414954;3.675156397613715;3.1760755792544604;0.12268753223771083;-0.3658968424236087;0.015052230566579332;0.1759147802340182;0.04893036650332266;0.1873543295355148;0.04448353217089832;0.1580503721831344;1.8706250626460947;3.499238124999706;3.1547659964359913;-1.5275963828175505;0.47914888616582657;90.0
1.8668514561737408;-0.9095948427112059;3.4851343594180166;2.9382445192384266;0.1263965299639547;-0.2921221265477028;0.0159760827869289;0.17997290406453836;0.049321436937423385;0.15031891162249672;0.0502192311614152;0.1580503721831344;1.822468607858619;3.321391826630133;2.8890675572986413;-1.0375941653537344;0.43287307810450154;90.0
1.8234299593403838;-0.49115196270134776;3.3248968166200736;2.2898291244135685;0.1795865684228608;1.7380884392043994;0.032251335557898865;0.16711048169141862;0.049858317136758076;0.10998852919596074;0.051748750892219725;0.1580503721831344;1.7816567304008724;3.1743007049827265;2.3043890275057395;-0.6697117031421657;0.4167488618662507;90.0
1.9558393158400282;0.8852230777951345;3.8253074293855893;1.8907433234553328;0.21227754430643056;0.08767678786152197;0.04506175581676859;0.185652431798273;0.049682029839167786;-0.12794989929364786;0.05327827062302425;0.1580503721831344;1.9119688067139342;3.6556247178471053;1.9132173946575275;0.6795849783793787;0.3962137708325041;90.0
1.9663444353701336;0.8175049430760434;3.866510438511089;2.0692533730218456;0.23820220128389996;-0.5350649831644735;0.05674028869649559;0.23703261222724947;0.050034947568130574;-0.14761116750356174;0.05327827062302425;0.1580503721831344;1.920146562952653;3.686962823218887;2.0527001260290962;0.6254569078762302;0.39663458515499206;90.0
2.322896346435537;-0.0476649927365909;5.3958474362835664;2.3493324742690733;0.23920776156373133;-1.2754058279247085;0.05722035319233094;0.43593143480816626;0.05498990198043912;-1.1480223018952618;0.07966248597940233;0.1580503721831344;2.2848583688875226;5.22057776587535;2.3508832712962624;-0.02948482349445385;0.5255769554639054;90.0
3.087185750272219;0.5236849480343266;9.530715856683843;3.6163564434247277;0.24805486274089575;-1.7008137484174068;0.06153121492940463;0.41816650560594715;0.056491491187435995;-1.4483050357856728;0.0972519628836544;0.1580503721831344;2.2848695160747283;5.220628705487563;2.823055892020263;-0.1553650757355753;0.5526079591246145;90.0
3.1036342495313542;0.4395970673932475;9.632545554864054;3.663439111799475;0.28473223192538116;-1.1495587285226305;0.08107244389720904;0.43102272138985387;0.056491491187435995;-1.4483050357856702;0.0972519628836544;0.1580503721831344;2.337523797061088;5.464017501826885;2.823055892020263;-0.18266728540648386;0.5699221846746942;90.0
3.203988544147276;-0.17503629465440312;10.265542591026982;5.025049052272599;0.36870219325948717;0.02432902437620012;0.13594130731435622;0.48807231693027686;0.0519679122018115;-0.4931587313402278;0.05914142959110828;0.1580503721831344;2.4842674717499706;6.171584871194992;3.2420995679682942;-0.6644896452282448;0.6270556185782692;90.0
3.3193875014989342;-0.8019594381107481;11.018333385107338;5.191395775435318;0.4080042827804225;-0.713396669017505;0.16646749476716696;0.5412113616851607;0.042901803609565504;0.5488892630529973;0.04512083205873345;0.13969613541348008;2.664920125620731;7.101799275938412;4.874853324626368;-1.1795971611277827;0.7235091761841919;90.0
3.296587668661939;-0.8105093987768347;10.867490257173957;5.191395775435318;0.46673988907898184;-0.8410622735241368;0.21784612405746026;0.5705317557637155;0.042756972315090236;-0.5974257909487196;0.05404303048842653;0.1264402977465075;2.693195666098412;7.253302895891269;4.874853324626368;-1.1164412560512655;0.7980809871618805;90.0
3.3936944269119724;-0.9548467725503674;11.517161863253381;5.37324346674018;0.539826604547442;-0.22385940757883735;0.2914127629772203;0.721791201493414;0.040745747271477804;-0.7922462596944854;0.05735698990516969;0.1264402977465075;2.7418814213825677;7.517913728922891;4.874853324626368;-1.0193722630038564;0.876104206876972;90.0
3.4720495029314984;-0.41951110888598525;12.055127750806866;4.087110409090627;0.5313314442394668;-0.9437175821362852;0.28231310363759754;0.7352212413700403;0.04604590287272951;-0.8048263060870751;0.07341694707861728;0.13969613541348;2.5586828760188;6.546858060031837;3.293843051642826;0.07314374542682521;0.8962552817076037;90.0
3.3922623522886446;0.601523225476837;11.507443866754887;2.7179193766502543;0.5390736559087793;-1.4563452389723697;0.290600406494857;0.8915425373284073;0.04684074167560344;-1.3021680261547033;0.0746915468542877;0.13969613541348;2.4053775704366402;5.7858412563596735;2.3134691243519567;1.7071217170424018;0.9279699144046987;90.0
3.298284964344579;1.672218851026269;10.878683706021521;1.716865604785336;0.575378814282238;-1.5268815198145236;0.3310607799248341;1.030283002908551;0.04375422353836794;-1.0312524884851029;0.06347506882838784;0.13969613541348;2.40455624597508;5.7818907400577695;2.154792207928015;2.3775348133936807;0.9970713033589124;90.0
2.5627807492893178;2.1275181951546114;6.567845168927916;2.867436089440666;0.5871594058705966;-1.5117042131067566;0.34475616790231195;1.047332100023694;0.048144422275639594;-1.3618124444590232;0.0746915468542877;0.1407158152340164;1.6820458403683578;2.8292782091004947;2.154792207928015;0.8773883741327015;0.8124520654558747;90.0
1.697594533042276;-1.1926008861167174;2.8818271986150226;2.686590208585025;0.5420431347299249;-1.243021359512657;0.2938107599078435;0.7579324679723286;0.04618713615645803;-0.9522877640154901;0.06423982869379015;0.1407158152340164;1.1880154007531836;1.4113805924267473;1.7874624505342978;-0.17453184674832994;0.6841311591048318;90.0
1.7082668455730643;-1.2163974993882016;2.9181756156841474;2.6967702949361785;0.4757746460424656;-0.6409837441521846;0.22636151381683342;0.6625155530924522;0.04392563200227198;-0.663403183433008;0.05888650963597428;0.1407158152340164;1.107659706738202;1.2269100259313594;1.5365030527272918;0.11031730178535276;0.6110370695171407;90.0
1.7483050650200673;-1.25444116670182;3.0565706003748216;2.6967702949361785;0.38718575357233503;-0.3078810564984735;0.14991280776937693;0.48744121820127584;0.043032490067361394;-0.46261606762587604;0.05047415111654942;0.1407158152340164;1.1583526861388436;1.3417809454850744;1.5365030527272918;-0.3030050531569423;0.6256845491906808;90.0
1.7387867083341364;-1.2377197426802873;3.0233792170794613;2.663048173422949;0.30712394641684676;-0.4616635788485117;0.09432511846265816;0.318991229414083;0.04232562310944649;-0.20918251199803484;0.03517895380850417;0.1407158152340164;1.1169608668752091;1.2476015781306184;1.492922640337112;-0.16858824293953173;0.5904357952257762;90.0
1.8192044075468183;-1.2379704582002107;3.3095046764377702;2.663048173422949;0.27616239907847445;0.027134012311142895;0.07626567066477857;0.3029649035540176;0.04224440484047594;-0.1875906972626707;0.0349240338533701;0.1407158152340164;1.0728351354817678;1.1509752279241832;1.3503876195550792;-0.012364530044391132;0.5470488728114425;90.0
2.175002725518006;-0.654628339805291;4.730636856010755;2.9031178922056458;0.23655174559681508;-0.5039211548980626;0.05595672834490033;0.3029649035540176;0.04195270739045013;-0.1955479447451694;0.0349240338533701;0.1407158152340164;1.0649154078405298;1.1340448258561622;1.6859576072214506;-1.0246407111849212;0.4842917065189419;90.0
2.2723475879077;-0.9072082739637091;5.163563560269943;2.967555662490426;0.2589601574042058;-0.2316974657902847;0.06706036312281104;0.3029649035540176;0.04181617439565974;-0.1564153114347587;0.03454165392066894;0.1407158152340164;1.0388563513759694;1.0792225187941915;1.6859576072214506;-1.0136823377589785;0.45690506728328845;90.0
2.3137173905752064;-1.044481281601668;5.3532881634501415;2.967555662490426;0.27963546764950714;-0.43583341067789044;0.07819599476755856;0.3308005978347348;0.041944820898978434;-0.15231687546830383;0.03454165392066894;0.1407158152340164;0.9940063433271946;0.9880486105747006;1.4440657442652558;-0.8020413278037103;0.4243741865003358;90.0
2.254762738429997;-0.8891517593003054;5.083955006612339;2.702221257486452;0.288372243411073;-0.6393570021466897;0.08315855076993511;0.36115303645159014;0.03663079418781937;-0.17066763556557843;0.033776894055266675;0.11624349954114399;0.9757149801741407;0.9520197225362238;1.0771646678212972;-0.35061073175852914;0.42941680175722513;90.0
2.302784701428404;-1.0127407261155383;5.302817381132704;2.862368482183464;0.27834290406960593;0.1287318564669445;0.07747477224590184;0.28473675143185473;0.046435630313470935;1.5513090029545178;0.033776894055266675;0.1743652493117161;0.9934743381285588;0.986991260519978;1.4250800787104354;-0.7112375404446829;0.4299184703370563;90.0
2.342955445219343;-0.9650109535435522;5.4894402182829705;3.182754428913241;0.24631343729383876;1.5796127747967577;0.06067030939150583;0.2769559083717482;0.04906293606381042;1.0768220040569172;0.05812174977057207;0.1743652493117161;0.9573544229344879;0.9165274911122263;1.2488863502758216;-0.5986635718756247;0.39649685162355985;90.0
2.521806497215927;-0.6464436181068424;6.359508009400463;3.182754428913241;0.20837296734703126;-0.34550411614555526;0.04341929352100696;0.2769559083717482;0.049691066120613914;1.012162217236118;0.05812174977057207;0.1794636484143978;1.1887378628746181;1.4130977066317143;1.2488863502758216;1.9185003972053918;0.4728663364620076;90.0
3.079093494592591;-0.48366666382809675;9.480816748442415;3.573073266828355;0.26253829200422196;0.4201454739716193;0.06892635476849412;0.2769559083717482;0.05216699936145004;1.095348419533026;0.07163250739267868;0.1794636484143978;1.7750252502930928;3.150714639178057;1.4306288131527691;2.0619318552369617;0.5997113547227054;90.0
3.073706282835629;-0.4794066438597238;9.447670313143222;3.9797643840819914;0.3304169046464928;-0.1465648419627832;0.10917533087616951;0.3584037182930636;0.0557841201259239;-0.09784045675853956;0.0749464668094218;0.1794636484143978;1.6878366558594384;2.848792576862772;1.4247569006145242;2.0217576409685662;0.5309224715880253;90.0
3.1628279330730513;-0.7289644630965338;10.003480534227151;4.357930571783705;0.39090999682176086;-1.0092850817174799;0.1528106256151891;0.5656487695244748;0.05576350071480663;-0.08153034898885116;0.0749464668094218;0.1794636484143978;1.7674988672892984;3.124052245868953;1.9446718980939952;0.683076363472373;0.5340585439980212;90.0
3.1038122090870686;-0.33209564824890914;9.633650229277949;2.584332931854018;0.43615883621322876;-1.6307807004484978;0.1902345304068781;0.7430591990132774;0.056095029364185464;-0.046453234503742474;0.0749464668094218;0.1794636484143978;1.6180087456207084;2.617952300905098;1.7717712653246958;0.9950081026463693;0.4586009921271299;90.0
2.8874429660075176;0.9038352705955112;8.33732688194629;1.6964469394881254;0.4521202563610144;-1.8461930943357427;0.2044127262119494;0.8644079689188907;0.05583464782432548;-0.23738537850025965;0.07571122667482402;0.1794636484143978;1.528013012061246;2.3348237650284815;1.4717262409026106;1.4177146676933154;0.420763559187456;90.0
2.4616167576991663;0.8547650624358375;6.059557061785356;1.6964469394881254;0.44173522080417;-1.5642373958817608;0.19513000529890884;0.7739060291222797;0.057834202705590455;-0.6996411500795545;0.07010298766187412;0.1794636484143978;1.6306425617782563;2.658995164282754;1.7717712653246958;1.0587454056878294;0.468460299255592;90.0
2.4778681421666673;0.9049736737198695;6.139830529964491;1.6964469394881254;0.3897218196017513;-1.0425336177615319;0.15188309667369998;0.6025766408213222;0.05784598258503075;-0.70354673190035;0.07010298766187412;0.1794636484143978;1.6129916928936143;2.6017422013438076;1.5321475457563474;1.13866746820363;0.45987192369781826;90.0
2.802960287820042;-0.29259081985696045;7.856586375096214;2.3734794055173856;0.36245063833447516;-1.3688026258060981;0.1313704652290685;0.6025766408213222;0.06009238120615661;-1.089232607632002;0.09393800346691136;0.1794636484143978;1.6182937298126991;2.6188745959510973;1.5321475457563474;1.1124902977501785;0.4621084287138201;90.0
3.542766745814709;-0.2861228560144778;12.551196215250542;4.643604848175118;0.44866939605032274;0.9181699553754318;0.20130422695216135;0.6025766408213222;0.06342035084434454;-1.3635126163649438;0.11560619965330877;0.1794636484143978;1.6186876221804758;2.620149618200283;2.357880408324485;0.20228023930239752;0.4312738129151925;90.0
4.1097449536932515;-1.0015225576490272;16.890003584407143;5.681691536676621;0.6698243460221186;2.1922053742114045;0.4486646545239589;0.6257825541005935;0.055037151584183125;-1.2416805795783838;0.0825940654634444;0.1560110125420617;1.6826204833759637;2.8312116910763616;2.518904122442133;-0.667074999864329;0.4228432594803756;90.0
4.134518218600716;-1.1764024828110413;17.09424089994124;5.681691536676621;0.9887362466883469;1.5984427508528136;0.9775993655153595;0.9639379497358049;0.058815471764046924;-1.254687577969566;0.09049658407260108;0.1753849291322524;1.7599588752756514;3.097455242661536;2.678622308538605;-0.8420272676962169;0.45040015560015406;90.0
3.9974866817953023;-1.0072249540437326;15.979899771130817;5.390370156954176;1.381448219537822;0.8805046368758161;1.9083991832642182;1.5605299702414812;0.05606656951789851;-0.9991788730705694;0.06576934842459463;0.1753849291322524;1.7059733983672347;2.9103452359366515;2.5175985944209573;-0.3720763794370656;0.4469838307384567;90.0
3.9974866817953023;-1.0072249540437326;15.979899771130817;5.390370156954176;1.381448219537822;0.8805046368758161;1.9083991832642182;1.5605299702414812;0.05606656951789851;-0.9991788730705694;0.06576934842459463;0.1753849291322524;1.7059733983672347;2.9103452359366515;2.5175985944209573;-0.3720763794370656;0.4469838307384567;90.0
3.9974866817953023;-1.0072249540437326;15.979899771130817;5.390370156954176;1.381448219537822;0.8805046368758161;1.9083991832642182;1.5605299702414812;0.05606656951789851;-0.9991788730705694;0.06576934842459463;0.1753849291322524;1.7059733983672347;2.9103452359366515;2.5175985944209573;-0.3720763794370656;0.4469838307384567;90.0
3.9974866817953023;-1.0072249540437326;15.979899771130817;5.390370156954176;1.381448219537822;0.8805046368758161;1.9083991832642182;1.5605299702414812;0.05606656951789851;-0.9991788730705694;0.06576934842459463;0.1753849291322524;1.7059733983672347;2.9103452359366515;2.5175985944209573;-0.3720763794370656;0.4469838307384567;90.0
3.9974866817953023;-1.0072249540437326;15.979899771130817;5.390370156954176;1.381448219537822;0.8805046368758161;1.9083991832642182;1.5605299702414812;0.05606656951789851;-0.9991788730705694;0.06576934842459463;0.1753849291322524;1.7059733983672347;2.9103452359366515;2.5175985944209573;-0.3720763794370656;0.4469838307384567;90.0
3.9974866817953023;-1.0072249540437326;15.979899771130817;5.390370156954176;1.381448219537822;0.8805046368758161;1.9083991832642182;1.5605299702414812;0.05606656951789851;-0.9991788730705694;0.06576934842459463;0.1753849291322524;1.7059733983672347;2.9103452359366515;2.5175985944209573;-0.3720763794370656;0.4469838307384567;90.0
