acc_X_std;acc_X_kurt;acc_X_var;acc_X_iqr;acc_Y_std;acc_Y_kurt;acc_Y_var;acc_Y_iqr;acc_Z_std;acc_Z_kurt;acc_Z_iqr;acc_Z_range;acc_std;acc_var;acc_iqr;acc_kurt;acc_cv;class
1.853359687788352;-1.283349101277072;3.434942132318938;2.7226516027672036;0.35882500599882594;-0.28673127930150344;0.12875538493005748;0.5393199894276042;0.04438054965324244;1.0732355099684847;0.0439736922606301;0.1560110125420618;1.3506622476801742;1.82428850730846;1.9907840685270521;-1.3410835776142078;0.2953075755851717;60.0
1.853359687788352;-1.283349101277072;3.434942132318938;2.7226516027672036;0.35882500599882594;-0.28673127930150344;0.12875538493005748;0.5393199894276042;0.04438054965324244;1.0732355099684847;0.0439736922606301;0.1560110125420618;1.3506622476801742;1.82428850730846;1.9907840685270521;-1.3410835776142078;0.2953075755851717;60.0
1.853359687788352;-1.283349101277072;3.434942132318938;2.7226516027672036;0.35882500599882594;-0.28673127930150344;0.12875538493005748;0.5393199894276042;0.04438054965324244;1.0732355099684847;0.0439736922606301;0.1560110125420618;1.3506622476801742;1.82428850730846;1.9907840685270521;-1.3410835776142078;0.2953075755851717;60.0
1.853359687788352;-1.283349101277072;3.434942132318938;2.7226516027672036;0.35882500599882594;-0.28673127930150344;0.12875538493005748;0.5393199894276042;0.04438054965324244;1.0732355099684847;0.0439736922606301;0.1560110125420618;1.3506622476801742;1.82428850730846;1.9907840685270521;-1.3410835776142078;0.2953075755851717;60.0
1.853359687788352;-1.283349101277072;3.434942132318938;2.7226516027672036;0.35882500599882594;-0.28673127930150344;0.12875538493005748;0.5393199894276042;0.04438054965324244;1.0732355099684847;0.0439736922606301;0.1560110125420618;1.3506622476801742;1.82428850730846;1.9907840685270521;-1.3410835776142078;0.2953075755851717;60.0
1.853359687788352;-1.283349101277072;3.434942132318938;2.7226516027672036;0.35882500599882594;-0.28673127930150344;0.12875538493005748;0.5393199894276042;0.04438054965324244;1.0732355099684847;0.0439736922606301;0.1560110125420618;1.3506622476801742;1.82428850730846;1.9907840685270521;-1.3410835776142078;0.2953075755851717;60.0
1.853359687788352;-1.283349101277072;3.434942132318938;2.7226516027672036;0.35882500599882594;-0.28673127930150344;0.12875538493005748;0.5393199894276042;0.04438054965324244;1.0732355099684847;0.0439736922606301;0.1560110125420618;1.3506622476801742;1.82428850730846;1.9907840685270521;-1.3410835776142078;0.2953075755851717;60.0
1.8740181967824407;-1.3118010696517892;3.511944201871711;2.7762883069318387;0.35533830092102436;-0.3973691271179474;0.12626530810144046;0.5393199894276042;0.045094158176689686;0.9917985004764085;0.0439736922606301;0.1611094116447436;1.3689779774428916;1.87410070272363;2.043399511282848;-1.3998652624760455;0.29816875302104495;60.0
1.7681523578627607;-0.7342247739304179;3.12636276061564;2.4441469626008354;0.45015694560089503;0.14878063673163713;0.20264127567272716;0.5684276661256766;0.04467695771378212;1.925479520514821;0.04333639237279491;0.1611094116447436;1.2439793640652195;1.5474846582201076;1.900456642672271;-1.0980941849227597;0.26353624252952396;0.0
1.7655658513019359;-0.8272657875216541;3.1172227752835293;2.4441469626008354;0.5514960682865527;-0.7593237822366253;0.30414791333552604;0.8147190605989616;0.04246183973064899;2.4804553043447752;0.04129703273172218;0.1611094116447436;1.2986405495285236;1.6864672768797455;2.0291530403586258;-1.2548676505392207;0.2850226555888137;0.0
1.5129667916807605;-0.976472111132686;2.2890685127287735;2.1402339650500872;0.641793802170242;-1.2581640406688437;0.41189928450413565;1.083541956502378;0.042470001152997316;3.2634928886239476;0.024472315692872407;0.1611094116447436;1.2513182368871003;1.565797329966241;2.0291530403586258;-1.328106085801615;0.2725978618281708;0.0
1.6034185073594418;-1.242357544010178;2.5709509097427805;2.4441469626008354;0.7662500755188896;-0.8026158067049405;0.5871391782327039;1.2382007647764557;0.025917938496070388;2.3301430924815767;0.011726317936168004;0.1029876618741715;1.4354241127688165;2.060442383518144;2.3860540103249264;-1.1184777207778438;0.328045870074697;0.0
1.5508344876120967;-1.05005936073302;2.405087607967075;2.1402339650500872;0.8786486026769392;-0.7863485747593605;0.7720233669861378;1.2600316967739484;0.02609240676839673;2.3380973335118864;0.012491077801570306;0.1029876618741715;1.4452858573034144;2.0888512093212657;2.3860540103249264;-1.1639501632294247;0.3316483528120986;0.0
1.3626188056031523;-0.9967326703962922;1.8567300093833616;2.0300878880293785;0.9063215222745619;-1.2628902883908175;0.8214187017380792;1.3588388206972302;0.023834922858834453;5.7415407338642;0.008412358519424928;0.1029876618741715;1.4093156390061854;1.9861705703474124;2.1748267871565856;-1.0000449965618095;0.31929758832869476;0.0
1.3434287926724866;-0.6753611920856296;1.804800920981455;1.4527815322158486;0.9441474231788305;-1.3379578850794864;0.8914143566952256;1.6005390378262834;0.026722380001275425;3.974975488696624;0.00841235851942495;0.1070663811563168;1.3709847501017485;1.8795991850115537;1.4532784110010804;-0.4905247837093839;0.32046633752196796;0.0
1.28297551285338;-0.4397143387224307;1.6460261665813933;1.0444596617485784;0.9670553988291452;-1.3580275939717572;0.935196144404597;1.5577456570664894;0.016530472543376407;0.14639306534458885;0.0122361578464363;0.057102069950035604;1.3766219724668582;1.8950880550785434;1.4532784110010804;-0.5151163982442881;0.32264943642931826;0.0
1.2815876985551953;-0.5016959812440771;1.6424670290880021;1.1936963964147127;0.9832612443656982;-1.3214557393433792;0.9668026746715813;1.4504143318866016;0.01646482259413897;-0.21486513035683666;0.021413276231263382;0.057102069950035604;1.3735724614380673;1.8867013068210312;1.2373049791549189;-0.42021663661624364;0.3238129142776862;0.0
1.3460912462836083;0.4333878640941205;1.8119616433213581;1.072695109875076;0.9506339936651083;-1.4274190553849764;0.9037049899116731;1.5524700648328158;0.01682893006434191;-0.5693374818927098;0.023452635872336126;0.057102069950035604;1.3918080580218415;1.9371296703745295;1.025445902974203;0.5378818592264395;0.3655862523418493;0.0
1.1592160036153987;1.08014953796517;1.3437817430380559;1.072695109875076;0.9165814210339055;-1.391389561610667;0.8401215013845335;1.6107375188942736;0.013770826512366526;-1.2138792131287623;0.02243295605179975;0.0387478331803813;1.1702618643571023;1.369512831168561;1.025445902974203;1.3099767514582508;0.32012416135299404;0.0
0.9693986501726926;1.2719417728131868;0.9397337429566384;1.072695109875076;0.8981356822819739;-1.154120855955456;0.8066477037881069;1.3447492704372233;0.012843805296269887;-0.22701971994396153;0.020393596410727053;0.0387478331803813;0.9544583454212615;0.9109907331442922;1.025445902974203;1.2846892365585159;0.2706935477062273;0.0
1.1567699490820245;-0.3870987906807487;1.3381167150992292;1.2334734217564929;0.8669820050195605;-0.8885789478876954;0.7516577970277372;1.1081162774711366;0.021487590892990027;3.087715492949427;0.023452635872336126;0.0723972672580809;1.0512093241019675;1.1050410430789155;1.0833289739377654;-0.4738520598958101;0.3171749440033044;0.0
1.2786317556789897;-1.3756040272854666;1.6348991666307355;2.095125884181252;0.8368844886554376;-0.6876485473857845;0.7003756473520734;1.1867884777778148;0.021307210729439547;2.0518795302791797;0.0267665952890792;0.0718874273478127;1.1058516664440257;1.2229079081770287;1.8477605422153789;-1.249599692707016;0.3434850871380474;0.0
1.3015927117306212;-1.6801057518508202;1.6941435872302717;2.095125884181252;0.7898732885411569;-1.0846855477063375;0.6238998119508218;1.21026045025608;0.03592382079671095;3.7894822361218163;0.0303354746609564;0.12389109819516661;1.1099164273976154;1.2319144758070861;1.8477605422153789;-1.3436902593367326;0.34713300207651093;0.0
1.350190195026785;-1.2623785782786965;1.8230135627464676;2.252879421153194;0.7902104836458649;-1.1192977939517523;0.6244326084638318;1.1049236000025098;0.03562658206539323;2.9355542723345276;0.032374834302029025;0.12389109819516661;1.1774064848865902;1.386286030652996;1.6052622594551424;-0.7120707800789173;0.3420360440911055;0.0
1.47789148612759;-1.9183792545581724;2.184163244768417;2.9498748232225376;0.7845381313112806;-1.0169591653099803;0.6155000794813962;1.1563661628772255;0.034255037390361114;3.0521337737723115;0.026256755378810948;0.12389109819516661;1.220244707857422;1.488997147054045;2.0318071886720994;-1.2702855810857463;0.36515828987792026;0.0
1.4524695363607567;-1.9119988413911306;2.109667754056032;2.9498748232225376;0.6960154939595765;-1.4657765813494015;0.4844375678317933;1.2284834127770359;0.03227034984986296;3.7442169098896176;0.02166819618639735;0.12389109819516661;1.2084395174385794;1.4603260673071867;2.0318071886720994;-1.2301999918470998;0.36682626996641604;0.0
1.4584478213946255;-1.9262230051628384;2.1270700477307294;2.9498748232225376;0.6138464659038423;-1.4831798229970818;0.37680748370263706;1.0698918096698642;0.03582061755675986;0.8799147282682978;0.03415927398796765;0.12389109819516661;1.238051255090156;1.5327709102303104;2.1191429360986542;-1.3687766607317162;0.3712518726793809;0.0
1.4435425717349666;-1.8776587987220503;2.0838151564112013;2.9498748232225376;0.5302857618223241;-1.3552387797069072;0.2812029891914827;0.762040042207035;0.03579380749385464;0.8851600116982827;0.0337768940552665;0.12389109819516661;1.2411145638417327;1.5403653605800542;2.1191429360986542;-1.4384579889803522;0.37860020562702756;0.0
1.4971911886672524;-1.648260470726311;2.2415814554228604;2.8791471721441724;0.5031873205370564;-1.3452327995525808;0.25319747954926236;0.7533157051284503;0.035462177636405946;0.9527781528212844;0.030972774548791576;0.12389109819516661;1.3436579656302525;1.8054167286016287;2.3628439922947004;-1.3590573139543352;0.44559894972607755;0.0
1.6942294704051328;-1.228074194953742;2.870413498389257;2.9796509130747486;0.5239648492486022;-0.9859841932399535;0.2745391632481104;0.7533157051284503;0.035125735258695154;0.992413358147512;0.030972774548791576;0.12389109819516661;1.4284155499525608;2.0403709833462766;2.3628439922947004;-1.1615476094777655;0.4825178955814453;0.0
1.6499390870621906;-1.0552663346135274;2.722298991015615;2.0491059137001697;0.652561217086529;0.14802550840747195;0.4258361420454521;0.7533157051284503;0.03421008183821176;0.5038388397230947;0.03951259304578357;0.12389109819516661;1.5209499666463298;2.3132888010414714;2.003348005229107;-0.944638137551886;0.5831173845450109;0.0
1.5279580646546655;-0.2681823700298802;2.3346558473432313;1.978432408858945;0.8767894634458401;0.28200127253079726;0.7687597632096441;1.088525498717376;0.030979918413779606;0.8620443563783972;0.03849291322524722;0.0994187825022941;1.477413076008307;2.182749397160328;1.9523001039464218;-0.5023247845151212;0.6386438684922016;0.0
1.5556299952893047;-0.3769951728486963;2.4199846822438023;2.025600193099169;1.2046672478746132;0.47031069627711114;1.451223178101795;1.5144500321561107;0.036287062159485156;1.1423811361616465;0.0280411950647496;0.13969613541348;1.4781974920355623;2.185067825460226;1.9523001039464218;-0.5058116682965862;0.6394780046953856;0.0
1.5510714050070347;-0.4192212520815499;2.4058225034304965;2.025600193099169;1.4845523755751302;-0.44646129642842236;2.203895755825762;2.034973487040383;0.03774472160676814;0.7426104465825366;0.03173753441419385;0.13969613541348;1.4819526353048469;2.1961836132869803;1.9523001039464218;-0.6255570965591492;0.6271660655786686;0.0
1.544284769918243;-0.2042965949316782;2.3848154506014407;2.025600193099169;1.6853481145435383;-1.1593986639677565;2.8403982671954595;2.730753196590843;0.03454834481456745;0.3870452607704559;0.02408993576017115;0.1254206179259711;1.4819924404763176;2.196301593628952;1.9523001039464218;-0.6260449990505499;0.6271556643099503;0.0
1.2316290127893723;0.5714762909310814;1.5169100251445238;1.337134770911167;1.8295497367317957;-1.4602514052447033;3.347252239175383;3.1622937820364365;0.038629008514517116;-0.1795497919666439;0.0344141939431018;0.12847965738758022;1.2436526212885175;1.546671842437801;1.9010188468166032;-0.921047555298743;0.5656405776327992;0.0
1.236620161459082;0.5594982335068752;1.5292294237270858;1.337134770911167;1.866282860933048;-1.6632299234271755;3.483011717012442;3.2464326260703524;0.049893377499562325;0.408008810186488;0.055062710308962926;0.18252268787600678;1.2714366823299685;1.6165512371742374;2.053323703815615;-1.1208280811419253;0.5614137712962555;0.0
1.2224774651978019;0.745671916489894;1.494451152916443;1.3062738879303433;1.8252965644108663;-1.6755488292844172;3.331707548050112;3.218827761470547;0.05389333644605179;-0.47766541339432506;0.06423982869379014;0.18252268787600678;1.3378579074389374;1.7898637804968927;2.053323703815615;-1.2537936242329706;0.5759557232254229;0.0
0.9438149856646225;-0.33756418216607736;0.8907867271651116;1.0521139659922094;1.696013142457101;-1.6103670541569328;2.8764605793872104;3.1301721464196453;0.0504557134547339;-0.9744710241919166;0.06933822779647189;0.1631487712858162;1.2049213045555076;1.4518353501717465;2.053323703815615;-1.3626177331014153;0.5432364333933879;0.0
0.8025410346834438;0.722280939035403;0.6440721123507727;0.7376152024678755;1.533739836498074;-1.165427618469285;2.352357886061139;2.5432976785875874;0.05472435238725395;-1.146204995263814;0.09355562353421022;0.168247170388498;1.2114378477881456;1.467581659053574;2.053323703815615;-1.3895151077133852;0.5437858140507241;30.0
0.8021763467592568;0.5942774372339007;0.6434868913000273;0.768536324376716;1.2999678132083716;-0.28590410726409154;1.6899163153777559;1.6263694587641604;0.05317080905028661;-0.8369052921219963;0.0805547058223718;0.168247170388498;1.164728263940139;1.3565919288210102;1.602929519100614;-0.7300121655474521;0.492899956207715;0.0
0.7446509027356467;-0.22025426378890528;0.5545049669450136;1.0470275866619692;1.0297536444237525;1.1205900787378387;1.0603925682040003;0.9744291341725444;0.05016318494199207;-0.02379441583262355;0.06678902824513105;0.168247170388498;1.051116929289577;1.1048467990391495;0.6326884033349285;0.8955741151340697;0.4111023796438162;0.0
0.9045565944907151;0.31284529296421887;0.81822263263664;1.0470275866619692;0.7435478847483776;2.1513362994674066;0.5528634569137867;0.8573453080306885;0.038708452022579345;-0.715279925603804;0.0532782706230244;0.12440093810543491;0.792560749093265;0.6281525410032773;0.49493317893104294;1.9704878203324863;0.29152120999593967;0.0
0.9303090841018148;-0.1092565666735431;0.8654749919623576;1.2583645118573155;0.5608156723686805;-1.0053448989111151;0.31451421837433513;0.8573453080306885;0.032236403480684815;-0.6970917081181376;0.038237993270113194;0.1029876618741716;0.6640135211240783;0.44091395623559676;0.49493317893104294;0.6732563120530913;0.23924631169856922;0.0
0.9431160380690706;-0.2972066324956276;0.8894678612631007;1.3164452555385995;0.6773852498037315;0.7031444150541246;0.4588507766516637;0.8573453080306885;0.03594442588679799;-0.825885762920868;0.04180687264199042;0.11012542061792602;0.7904356567541878;0.6247885274684243;0.49493317893104294;1.450832655191931;0.2911175141908661;30.0
0.9449220623618738;-0.11374023291380947;0.8928777039382169;1.0130822130924835;0.897616259490854;0.3545829936855101;0.8057149493023522;1.0365620416672248;0.06251706274395599;4.992094850929372;0.04180687264199042;0.2335066789028245;1.0222718907644046;1.0450398186470309;1.0194680807063983;0.2601042687246402;0.404805409515454;0.0
0.9109951883098769;0.6822381290688934;0.8299122331237481;0.8523137219195007;1.105575199796221;-0.6545479197859941;1.2222965224044542;1.5796828934413458;0.06325171007806024;4.102474549798559;0.06525950851432649;0.2335066789028245;1.165881922816533;1.3592806579503762;1.6803197091978386;-0.9555430779774674;0.5010302041225352;0.0
0.9206323252033138;0.42839772290634526;0.8475638782092602;0.9297144702551059;1.2624919901869471;-1.2529140811840127;1.5938860252861984;2.1770252132810892;0.06463405763851128;2.832361265050862;0.07239726725808093;0.2335066789028245;1.1807386878778514;1.3941438490515103;1.9113879184627574;-1.340875524178029;0.544834307550922;0.0
0.940676698380201;0.4559792781613857;0.8848726508754755;1.083068746864745;1.3719794078141172;-1.5809856738179744;1.8823274954659757;2.3476319103784733;0.06524918778526334;1.2953838738192915;0.06857346793106965;0.2335066789028245;1.2259743727316967;1.5030131625948775;2.1491832928770904;-1.4412658971971402;0.627783815653478;30.0
0.7166895555148861;0.9927554505075598;0.513643918984125;0.6923586174268416;1.3995953658143954;-1.7088162267335547;1.9588671880091313;2.4595986756185435;0.06533170796631378;0.5349412807324996;0.0752013867645559;0.2335066789028245;1.0925386548339253;1.193640712306323;2.2046787206178577;-1.8690358539556626;0.6541034992951129;0.0
0.7089451967941318;1.1089319548288503;0.5026032920574703;0.5687645541548717;1.3380192951234837;-1.6546940110707842;1.7902956341227445;2.4886017036172916;0.06367335594076076;0.21701629203753958;0.0950851432650147;0.2335066789028245;1.0392436880778855;1.0800274432097254;1.8436687056747585;-1.4298982772326998;0.7169004375121906;0.0
0.7548630623755714;-0.027624328297053403;0.5698182429390258;0.9594746835927753;1.2001994391425057;-1.4449654731388295;1.4404786937179852;2.02742961504911;0.05453467426612849;0.5984805391943111;0.06602426837972868;0.1871112470684205;0.913708643464168;0.8348634851411302;1.2124084115403786;-0.47635406658288654;0.7005190814395643;0.0
0.8569738284447186;-0.5907935178404216;0.734404142639198;1.1255754656044052;1.0488163858542563;-0.6525348477855403;1.100015811236384;1.4358506817575447;0.05409147126311787;0.6557915868378416;0.062200469052717394;0.1871112470684205;0.8233177019044025;0.6778520382691465;1.1243736606238675;0.4148768473828366;0.6662647304430401;0.0
0.743647635406573;0.47048124103970396;0.5530118056457873;0.67078570037876;0.8595438756354593;0.2088098177724223;0.738815674142426;0.987447625167128;0.05166241173166567;1.1150059790015197;0.0546803303762618;0.1871112470684205;0.6044341915756963;0.36534069194576557;0.8190328141856555;-0.2897107203345551;0.5752599950368184;0.0
0.6484107287129937;-0.18394480908811298;0.42043647311011545;0.9819310698731987;0.6668244758976377;-0.03112337410920721;0.4446548816561592;0.9157219757634942;0.04628883807125923;2.1390586206532096;0.04359131232792897;0.1866014071581523;0.4794544136564119;0.22987653477461373;0.7438884612995649;-0.6072300063279228;0.49486817993489085;0.0
0.6690829614787188;-0.9500925122960969;0.4476720093411327;1.0428171114477698;0.5622478976555222;-1.4820843061604803;0.31612269841805457;0.9157219757634942;0.039902444155808715;3.436620582714426;0.04155195268685625;0.1473437340675027;0.4869414903262667;0.2371120150011657;0.7438884612995649;-0.6719340490107673;0.4998998858574175;0.0
0.6847342671073346;-1.0691037582701761;0.46886101655101875;1.0886316108843435;0.598278799441037;-1.0856775741046356;0.3579375218606086;0.9157219757634942;0.04678224755551324;2.080211629186063;0.04588559192413573;0.18864076679922498;0.4913047470577899;0.24138035448151893;0.7438884612995649;-0.9031377251998164;0.4952915862448075;0.0
1.1207303686357177;4.052359335537709;1.2560365591823517;1.0886316108843435;0.7245978098289962;-0.9502587743695756;0.5250419860089782;1.0589337289842722;0.036094661277189494;-0.3373774206345306;0.037345773427143854;0.11726317936168029;0.7165156819080604;0.5133947224201727;0.7694501506381214;2.0806943058151295;0.5982624559647747;0.0
1.192919544681676;1.7841844483918459;1.4230570400835374;1.1853906305336555;0.8503514378827755;-1.28176200373604;0.7230975679093038;1.3197316243540829;0.04041301818263203;-1.027929479803737;0.05264097073518908;0.11726317936168029;0.7205274254661732;0.5191597708489119;0.9449060782076643;0.8427396963935944;0.5432026546992883;0.0
1.1747543239668645;1.9387282364282858;1.380047721678845;1.1393663719621112;0.8753712088957819;-1.577498828748888;0.7662747533636627;1.5491598359438157;0.04397592569231991;-1.5263115103441736;0.07698582645049454;0.11726317936168029;0.7259484301929187;0.527001123299563;0.9774300492760103;0.441176689482147;0.5308584377396074;0.0
1.1687504822036443;2.412705333550087;1.365977689651251;1.042607352312799;0.8579640842181725;-1.4235678633559101;0.7361023698083273;1.5287253213724268;0.040934567709958916;-1.237195955418039;0.06844600795350265;0.11726317936168029;0.6825345003108458;0.465853344114576;0.6671004496677417;0.696224511000621;0.4655989369185716;0.0
1.2519638253548888;0.6658454446170481;1.5674134199972465;1.3498228807317627;0.792295333230138;-1.1039611582766597;0.6277318950582554;1.1511218998053179;0.03854421601817035;-0.6309393655663226;0.05773936983787091;0.11726317936168029;0.6480625113947441;0.4199850186752629;0.6865420824542396;0.7715847740631646;0.4078239321634636;0.0
1.2662418051417035;0.2810701982452732;1.6033683090885198;1.6732093635543421;0.689957730564377;-0.590826771505566;0.4760416699655454;0.9935122122568765;0.030403137670462634;-1.5349842318535207;0.05200367084735395;0.0815743856429081;0.54428534439453;0.29624653612267215;0.6661344408813181;1.6554536781027775;0.321859291797576;0.0
1.2231916370505087;0.48917232838559055;1.4961977809503033;1.4020268341082058;0.5673533769000948;-0.0019406232687035501;0.321889854279941;0.7878637236835855;0.027362176193626995;-1.5042121385680336;0.04512083205873353;0.0769858264504946;0.5288893917684568;0.27972398872520826;0.3968874760985166;2.02521280327341;0.3069401929191144;0.0
1.102802252956242;1.0097205717003155;1.2161728091253632;1.1894086620255502;0.42395713847305827;-0.39086761913064394;0.1797396552622639;0.5169711444048295;0.029340336147555955;-1.3842039677405098;0.04512083205873353;0.0795350260018354;0.5283409925317875;0.27914420438947424;0.3437698471527264;2.3118549446921333;0.31241885902648736;0.0
1.1003348583152128;1.023962680453278;1.2107368004235597;1.1894086620255502;0.3453233583629869;0.6040330047745152;0.11924822183109186;0.3963692639231011;0.030830819096642675;-1.7448391429225407;0.05302335066789031;0.0795350260018354;0.46381696217365376;0.21512617439999657;0.3205517855556492;3.5595753632149405;0.26686691181768163;0.0
1.1445968796553097;0.7956768360082833;1.3101020169166715;1.1894086620255502;0.26303221599687804;-0.1550742625061408;0.06918594665222831;0.38904797974690486;0.03586833106324181;-0.5486108518299129;0.05302335066789031;0.1101254206179259;0.4433254562295087;0.19653746014110204;0.36921533184854316;3.6008444627782965;0.2470744268124792;0.0
1.0814964384231027;1.251360121446509;1.169634546321856;1.1149848884333098;0.22963362143050642;-1.3816988545955338;0.05273160009128914;0.38904797974690486;0.0361038529671568;-0.6505917519616351;0.05608239012949936;0.1101254206179259;0.47064567814562225;0.22150735435715266;0.49304558854257396;2.7930968748914933;0.26729633821691495;0.0
1.1408860721137501;0.9373302312430042;1.3016210295431412;1.1894086620255502;0.26957562920596895;-0.4491518365794516;0.07267101986179407;0.38904797974690486;0.03460395947807641;-0.7345590371635057;0.05531763026409708;0.1101254206179259;0.44305492166280114;0.19629766360963086;0.43988497080009514;3.6231145039408665;0.2476007707136338;0.0
1.054570608084132;0.64091362808774;1.112119167434936;0.8080288362918824;0.4037988837504834;1.7383053411658806;0.16305353851813642;0.44427025087049254;0.03302423373591467;-0.32947456986509627;0.04231671255225858;0.1101254206179259;0.3888965192159619;0.15124050265829103;0.43988497080009514;1.9565616180785381;0.21978247833745396;0.0
1.0697799024544943;0.3423266765381167;1.1444290396955474;0.8583750909938601;0.5120465071134592;0.7697355235332559;0.2621916254470939;0.5569265912776273;0.029694983543570204;0.5170571137149687;0.025491995513408798;0.1101254206179259;0.4187639438217696;0.1753632406451622;0.4499853436542831;0.6484220209065887;0.233255843129561;0.0
1.1337596816850002;-0.34657371605680204;1.2854110158144727;1.2136726900626456;0.6236897218379555;-0.4914052426807902;0.3889888691263063;0.8381984375726752;0.024845414172393242;1.4135681291569748;0.0214132762312634;0.09890894259202601;0.4251335244833039;0.18073851363959595;0.552110271195609;0.030099836912688083;0.2324038642369337;0.0
1.1334676270760202;-0.2934759776887183;1.284748861629344;1.2136726900626456;0.6954366423284805;-1.2632843919860905;0.4836321234931109;1.1355743967580665;0.025402694361902428;1.186628143467798;0.0214132762312634;0.09890894259202601;0.4526023595823375;0.20484889589949953;0.6052708889380878;-0.30966446153400146;0.2524093183238065;0.0
0.9140741789466965;-0.6424661694406287;0.8355316046170774;1.1394511302918198;0.7237498193697119;-1.7010921487567257;0.5238138010376907;1.2328646397687377;0.021042959986146626;2.3877753900875076;0.016824717038849822;0.0856531049250534;0.45109975863130436;0.20349099223722106;0.5481490466665477;0.30092298107602145;0.2592135952871161;0.0
0.8004589031445333;-0.9467468300113991;0.6407344556233493;1.1298596881989973;0.7492596552019085;-1.7644380088979201;0.5613900309132829;1.3403593238903604;0.020578731765513798;2.7114998216742503;0.015295197308045301;0.0856531049250534;0.5393423137190604;0.2908901313678293;0.6369793356188631;0.22687422466706772;0.32512965853926096;0.0
0.7367048572380265;-0.7302395211919519;0.542734046678101;1.0757055215738112;0.7584100277154188;-1.6988034752053798;0.5751857701393023;1.3483610694063692;0.020442012354876953;2.8094185452640406;0.014530437442642999;0.0856531049250534;0.5431012127000178;0.2949589272362299;0.6369793356188631;0.20442754232780216;0.3311459711077998;0.0
0.7176421809102107;-0.8659467520956342;0.5150102998215635;0.9242395923176447;0.786359829334822;-1.3399561048972055;0.6183617811914903;1.2785887419136879;0.022768064029172152;1.2125460262872447;0.014530437442642999;0.0856531049250534;0.5641647617017528;0.3182818783459955;0.7656092652619455;-0.465852515522282;0.3326455152829847;0.0
0.7408773516248384;-0.9118359507188137;0.5488992501506343;0.9146679171775873;0.8059974434954909;-0.9560806221567456;0.649631878921267;1.068101238437973;0.022860593656945174;1.0678975882432074;0.015550117263179349;0.0856531049250534;0.6626702009366278;0.43913179520939055;0.8371110364055185;-0.5958150531675851;0.3620602353508317;0.0
0.9740736022422883;0.10224196733939835;0.9488193825852677;1.1971411600880346;0.8401104526244118;-0.4166529997901901;0.705785572608794;0.9765682705538025;0.02126859027542206;0.7780782457215808;0.015550117263179349;0.0764759865402262;0.9529829066085354;0.9081764202880523;1.0477095884947383;1.1931857739946206;0.4724338381588303;0.0
1.2010047324281765;0.6762559560234378;1.4424123673148757;1.4134860815805386;0.8944272224259204;-0.1269228489693363;0.8000000562165469;1.0307571506586566;0.031788860043576526;1.867408848217441;0.025746915468542853;0.1203222188232893;1.2977921565634318;1.6842644816375631;1.3119710646574823;1.1358173125702473;0.551701858028462;0.0
1.2237548789822008;-0.19699466568124535;1.4975760038327408;1.5333477007425038;1.0102555366653554;0.074932475022365;1.0206162493630053;1.1855154408196136;0.03684843415439409;-0.22093831105186343;0.04741511165494028;0.1203222188232893;1.4227399562814087;2.024188983199625;1.8295026070130165;-0.5072623247193772;0.5452001353141135;0.0
1.4030678481323131;-0.987704682921903;1.9685993864626399;2.2371826627196585;1.1566240771972012;-0.4989310593388249;1.3377792559522774;1.606769922468804;0.04521733309642745;-0.3768535712628547;0.05404303048842647;0.1498929336188435;1.6974945762093248;2.8814878362600753;2.848701960357916;-1.063994918847277;0.591642555808049;0.0
1.5083127944556791;-1.5649266986413533;2.2750074859187;2.5975223803964305;1.27227261013851;-1.156557836604147;1.6186775945086573;1.985048668065992;0.04398040340916575;-0.25244732557798605;0.05251351075762198;0.1498929336188435;1.8780773849794998;3.5271746639714365;3.33145122728161;-1.6606508333934284;0.5959568761445546;0.0
1.5943739368239367;-1.763486062186079;2.542028250423458;3.1408027586388743;1.3426988140918594;-1.5971761964770828;1.8028401053636856;2.388814445106311;0.043345388613913044;-0.2592412401014403;0.05251351075762198;0.1498929336188435;2.012122789961351;4.048638121881852;3.925515254054229;-1.853618603954289;0.5785743736853888;0.0
1.5349976014579043;-1.319288996872179;2.356217636481519;2.7170427166975095;1.3283241653810711;-1.8105366453063823;1.7644450883353193;2.4669993734454922;0.039397374673462375;-0.779074172139055;0.06678902824513092;0.12134189864382569;1.9572545550769058;3.8308453933692963;3.5025046924372583;-1.5914584732391392;0.5119405583947519;0.0
1.553976786715095;-0.4878851284058353;2.4148438536493724;2.180995293366462;1.248585163197077;-1.7802350493467556;1.5589649097558713;2.304354768348106;0.03891933150222032;-1.1519558326258095;0.058121749770571954;0.1182828591822166;1.9355840449993387;3.7464855952560017;2.982136123959397;-0.8806624804651386;0.45697963589751484;0.0
1.2535037656058736;0.23983429508047543;1.571271690388105;1.3503615980082087;1.1145769844421909;-1.4054432413944793;1.2422818542482479;1.8873125980440977;0.038516617626138706;-1.2394652077203254;0.05353319057815842;0.1182828591822166;1.6035814283127223;2.5714733972294708;1.8749553935683698;-0.14877009284584233;0.34704095333217366;0.0
1.0510281356216122;-0.4708384776134747;1.1046601418682422;1.3503615980082087;0.9580007462459429;-0.7109347225610286;0.9177654298077834;1.3762326735638557;0.03380110204727831;-1.272752947152824;0.04741511165494029;0.1029876618741714;1.2844336293122531;1.6497697481082463;1.6426033679677037;0.05297992986751549;0.2661028883834904;0.0
1.1332886640151723;0.29038395157003455;1.2843431959852938;1.3503615980082087;0.7885874606458309;0.4578728528170315;0.6218701830878398;0.7531672108785208;0.03301454252443132;-0.9984039743728286;0.046650351789538066;0.1029876618741714;1.1124021051338018;1.2374384435061139;1.6426033679677037;-0.8836907283963948;0.22633710419367914;0.0
1.3863511643664788;0.22002849682220357;1.9219695509402912;1.397434616686867;0.6312478232314267;-0.19458127124474156;0.39847381433441453;0.7481690341844573;0.028183218381906943;-0.6646756630407493;0.034159273987967746;0.0927908636688079;1.2048783087435933;1.4517317388808215;1.6426033679677037;-0.17637862334206286;0.2474198580041579;0.0
1.3877529269594964;0.08274627186498391;1.925858186284649;1.4447694964215136;0.6182068535321628;-0.40790166657382215;0.3821797137541369;0.7481690341844573;0.027036924107098268;0.06760603505386548;0.029570714795554204;0.0927908636688079;1.2204965669615542;1.4896118699649394;1.83925355243412;-0.40938090444857445;0.25175664128269354;0.0
1.3603237701116986;-0.21489254455160753;1.8504807595309052;1.6497960183971512;0.7907674091594024;0.7792833562135721;0.6253130953886736;0.7481690341844573;0.02938644244486129;-0.8931208554103016;0.039767513000917756;0.0927908636688079;1.2973278922003602;1.683059659881029;2.0211658795685077;-1.2551687444119277;0.2773000283550233;0.0
1.5571171217989994;-1.1700233189192488;2.4246137309996;2.2665642446308114;1.03269850673603;0.001284731468394461;1.0664662058148262;1.3431206739356454;0.037230348508663365;-0.44491386183238746;0.05531763026409713;0.1233812582848984;1.6557551713643763;2.7415251874998754;2.5232391099583746;-0.5706834308038626;0.37752629601726934;0.0
1.575796966301347;-1.538497235173316;2.4831360790045283;2.9135465875607593;1.2621899668868264;-0.6169743722315724;1.593123512509768;1.8498825048741838;0.04746440461278976;0.8974909390783044;0.05595493015193232;0.16314877128581612;1.780509203294612;3.1702130230168137;2.4863084966016107;-1.1744685946672537;0.4421261633562809;0.0
2.0133885444680155;0.1326816562306817;4.053733430995035;2.8260722606680453;1.4053860235390878;-1.249450472974683;1.9751098751590093;2.1267854118296188;0.05420302956377451;-0.39243117389395554;0.06360252880595495;0.16314877128581612;1.8123705495009572;3.2846870086984015;3.119971516689625;-1.3109141563225937;0.4917471928771446;30.0
1.9677315565849147;-0.07288856835784133;3.8719674787800913;2.70732128998195;1.4346263068741545;-1.7022791073021513;2.0581526403753756;2.549102225481447;0.05692680214378928;-1.1823718219990533;0.0967421229733863;0.16314877128581612;1.8527791224443588;3.432790476565688;2.6683505568717014;-0.9868675595906944;0.572485587042004;30.0
2.088278862324428;-0.390169211270003;4.360908606831008;2.268446807868319;1.4292887714720077;-1.835431946838213;2.042866392255961;2.915490876966541;0.06066548001345651;-1.7298543664333965;0.10897828081982255;0.16314877128581612;1.8036118079339105;3.253015553718629;2.5009799962765595;-0.37799521765522287;0.6265571757583336;0.0
1.8503304953323036;-0.7081938363353648;3.4237229419566884;2.339751096425315;1.3729677293342126;-1.7631559276133923;1.8850403857931435;2.523234750805446;0.05785461169684536;-1.5617471624836705;0.09164372387070457;0.16314877128581612;1.518856352746733;2.306924620279108;2.2799603126846266;-0.7403985234641413;0.6323489627897273;0.0
1.5950128784560558;-0.7171056410406271;2.544066082440673;1.8147482494468137;1.3182487115780808;-1.2650126268802107;1.7377796655772697;2.0983381753483883;0.0520561089959516;-1.4692997286627247;0.08106454573263991;0.1478535739777709;1.2824899473824138;1.6447804651369464;2.218573346378089;-1.5080139536540063;0.6388344045939893;0.0
1.6914600566737008;-0.641524496105571;2.8610371233225993;2.209330737579884;1.2212357703587415;-0.4867259229811819;1.491416806803709;1.5915972207027562;0.04954032574263364;-1.3987987052741861;0.07978994595696945;0.1478535739777709;1.1351641440602196;1.288597633959971;1.625140848563536;-0.8623334517562891;0.6134613135906598;30.0
1.7263713330129078;-0.564855149004504;2.9803579794487645;2.160947705506139;1.0254593746243295;-0.08174284932412156;1.0515669290049208;1.1628881013989738;0.05227439608735408;-1.456625679966516;0.09559498317528288;0.15091261343938;1.0510933970936607;1.104797329413892;1.1178356972438461;0.4765047842927901;0.6206715750238146;30.0
1.770102429440255;-0.453334956549016;3.1332626107102928;2.2177385191260948;0.827748751265396;0.830533537049367;0.6851679952214226;0.7891111356424949;0.05756937331739408;-0.7974577647908543;0.08539818496991936;0.19373916590190682;1.0267677077358852;1.0542519256492042;0.7349358715925083;1.496461118842921;0.6395748278520597;0.0
1.5396476279179745;0.17275755822204056;2.3705148181534454;1.985224705213358;0.6007473925032167;1.4104674090901501;0.3608974295994139;0.5611721889402521;0.050648167391801203;-0.9956974967537854;0.08157438564290806;0.1611094116447435;0.7490980734382061;0.561147923628832;0.7349358715925083;1.704504240980293;0.5150162508643331;0.0
1.1762083707313995;-0.8402351487913589;1.3834661313786134;1.8151165440044443;0.4193388262928328;0.8460802466199254;0.1758450512366506;0.4747430380416767;0.04948337130029949;-0.8277132934276027;0.06857346793106964;0.1611094116447435;0.5068260968177818;0.2568726924155475;0.5723328444077938;-0.8245573205487788;0.3851374423381864;0.0
1.1044501964502311;0.48623357967168707;1.2198102364389543;1.2806381804318565;0.3731002050993397;-0.42700086418697275;0.13920376304516935;0.4747430380416767;0.05119829139388392;-1.0657768911405836;0.08080962577750583;0.1611094116447435;0.526569627601911;0.27727557271281517;0.6800105825743927;-1.0198351488142288;0.3818811054174901;0.0
0.8088547526118209;0.5684320707680361;0.65424601082273;0.7464434747364017;0.4645606697639979;0.31486003831532483;0.21581661589157433;0.4747430380416767;0.051032171307503336;-0.5709579546174982;0.08029978586723766;0.1611094116447435;0.5251291871280197;0.27576066317373477;0.6800105825743927;-1.0294712439815523;0.3849123161645243;0.0
0.7948253524539307;0.6628358534756842;0.6317473409035151;0.678857640533872;0.6015021077244318;0.041593058555061665;0.361804785596934;0.6396892916777057;0.05919255131180744;0.23561035095088098;0.06806362802080138;0.2182114815947792;0.5261459177266679;0.2768295267404375;0.6948036476841852;-1.044431134839621;0.38519348819348564;0.0
0.6360697500258253;0.9608321885957701;0.40458472689791586;0.7162948269977083;0.6785093822684545;-1.0598872073463055;0.46037498182631964;1.0419304615967573;0.05863635874032651;0.5551705743230501;0.04512083205873343;0.2182114815947792;0.5226511834131844;0.2731642595232021;0.6275521623252212;-0.6385397707035003;0.34837772428402514;0.0
0.66166154719709;0.11497488054152301;0.43779600303924704;0.8588261332998114;0.7203747182035886;-1.6908407590276913;0.5189397346268997;1.3042772323337082;0.056388861213483195;1.298786876417148;0.03747323340471077;0.2182114815947792;0.5336348166050965;0.284766117493155;0.6648698364751073;-0.8602174197343042;0.35867288819115317;0.0
0.6258133697656804;1.4745039463840928;0.3916423737774762;0.6810106923900867;0.733326130394935;-1.8615459238560936;0.5377672135200092;1.3042772323337082;0.057412153119625144;0.6386649991712968;0.056592230039767426;0.2182114815947792;0.47080437856134794;0.221656762872537;0.5533480687029597;0.07972644044024706;0.30205898452300606;0.0
0.42959755325345517;-0.4976246783564989;0.18455405776135525;0.641787046814323;0.7103994556802307;-1.5360586262529674;0.5046673866307679;1.1628174103927063;0.06000536343348423;-0.07476009270410044;0.0762210665850922;0.2182114815947792;0.3717780130178674;0.13821889096351356;0.5404152633541248;-0.7113863882218658;0.22915936960367572;0.0
0.4997239087048838;-0.3450389899176451;0.24972398493128703;0.4911724877452164;0.6285619272988333;-0.8831314957668086;0.39509009644962384;0.9078786066306286;0.05770166692472138;0.4596272259655052;0.0723972672580809;0.2182114815947792;0.4660936599355074;0.21724329983207638;0.36500836437425943;0.7901494840448209;0.3114153674470436;0.0
0.5030386489592059;-0.23245178335511948;0.25304788234670317;0.5877267104627193;0.5311711769786601;-0.383340408173198;0.282142819252895;0.6687399740362551;0.060891906036949536;0.27416402677878676;0.056592230039767426;0.2182114815947792;0.46888933406918354;0.21985720760384242;0.40755036709976067;0.8780044700114514;0.30699085484803246;0.0
0.8021413535464997;2.6335462604082975;0.6434307510694106;0.7274640398255281;0.4288857173206238;-0.5588340510497226;0.18394295852162604;0.5580551511068195;0.048853457644466275;0.05581038512869946;0.03849291322524712;0.1662078107474252;0.5163631296698229;0.2666308816824144;0.52313288856797;-0.34047093608437473;0.34968932026043803;0.0
0.8047919024032583;1.1061438235049472;0.6476900061738555;0.9925256305821643;0.406537648744865;-0.9306001604558446;0.1652728598470032;0.5580551511068195;0.048841121635338325;0.06290809599328592;0.03849291322524712;0.1662078107474252;0.5686145509012798;0.32332250749666414;0.7508556072621267;-0.5609935976267707;0.4283343512388782;0.0
0.7919052499293513;0.9921480692333053;0.6271139248656684;0.8907184717140292;0.492962592078159;0.4564243768576843;0.24301211718841742;0.5580551511068195;0.051528619239792246;-0.3844684033067078;0.06296522891811958;0.1662078107474252;0.5660444437899803;0.3204063123455082;0.7508556072621267;-0.6160381263117636;0.4381201005555319;0.0
0.7751537434786558;0.45855549731403283;0.6008633260289739;0.9435104201564127;0.631709474149509;-0.08680798818277695;0.3990568597302492;0.6922443508725035;0.0515857586942928;-0.3083542949008467;0.06296522891811958;0.1662078107474252;0.5383182018799958;0.28978648647531186;0.6355832017770152;-0.1798114174595273;0.4399820705764127;0.0
0.9108933713467235;0.029950954468594342;0.8297267339634;1.0917140050667338;0.7428342862151688;-0.7706115490220669;0.5518027767767993;1.013200662836212;0.05270411108225256;-0.15961580927320762;0.06296522891811958;0.1662078107474252;0.7119453057594386;0.5068661183929005;0.7508556072621267;0.3498062425281565;0.5279392463412408;0.0
0.953782245630508;-0.40226111171189066;0.9097005720799747;1.3999911414140613;0.7933667379223535;-1.2087830731165645;0.6294307808415563;1.244558390767396;0.04284420561763035;0.9622956801129153;0.05327827062302433;0.1519322932599163;0.7786569395616949;0.6063066295275851;0.9202893173276848;-0.6266657574974885;0.5503927170383185;0.0
0.9613286844585486;-0.4442148659272435;0.9241528395628037;1.3999911414140613;0.8127542201955852;-1.600011300488416;0.6605694224457338;1.3645039580842164;0.050787323344479766;0.9053940407481857;0.04945447129601306;0.19577852554297942;0.8193945812283374;0.6714074797463625;0.9805040136298692;-0.8608902820424255;0.5669775101520549;0.0
1.0327413832519365;-0.6221317585165562;1.066554764681123;1.6386160290868936;0.7816374357425729;-1.8296472199047435;0.6109570809542249;1.4172586522035924;0.05084661265615906;0.8969879329372089;0.04945447129601306;0.19577852554297942;0.8927121658088396;0.7969350109831091;1.5159407095148234;-1.4160870341477305;0.5591078713426182;0.0
1.116510221291168;-0.9121793324473338;1.2465950742476528;1.810351521647772;0.7349626062170495;-1.8308582292558966;0.5401700325373577;1.4043007648311052;0.05022909211739757;1.05612859901383;0.044101152238197175;0.19577852554297942;0.9815470883817493;0.9634346867106895;1.6638866446243363;-1.728366772309064;0.5707577524238268;0.0
1.5015837107983185;0.5522525721634648;2.2547536405348483;2.101062679692922;0.6894479151465985;-1.4922959912370257;0.4753384276999913;1.199905374912415;0.048389396890283334;1.5899674433609858;0.04053227286631998;0.19577852554297942;1.3625359801559904;1.8565042972196457;1.8326115686428355;0.6557627484277602;0.6725503765737699;0.0
1.457440607177324;0.8682539693176592;2.1241331234494067;1.7752439057125327;0.6337472860938987;-0.6915294539724345;0.40163562263138197;0.8459077988973094;0.05049747632589816;1.1859967192885128;0.04180687264199035;0.19577852554297942;1.281329764029502;1.6418059641878993;1.701550041145639;1.001813042343154;0.5841868201687811;0.0
1.4583989570529294;0.8401808717698285;2.126927517933072;1.7752439057125327;0.5967071558696961;0.761795417018121;0.3560594298661018;0.5552558100279145;0.03875352475498923;0.5604506653205009;0.039002753135515406;0.1417354950545527;1.2814691131912859;1.6421630880632605;1.701550041145639;0.8002214410863038;0.5627830345427991;0.0
1.2323505945289677;1.8755053128326684;1.5186879878358999;1.1811112426868045;0.4958593962974497;0.8980494818205911;0.24587654089647124;0.37097718578172545;0.034478993042719036;1.2055004932879672;0.03441419394310183;0.1274599775670438;1.1914643471824855;1.4195872906069862;0.6811254490138845;1.6705063690610196;0.4916588251060586;0.0
1.1033591616851455;3.197324938229262;1.217401439674547;0.6911084431055388;0.3659587121274683;0.7092608312851181;0.1339257789819952;0.2684388561477389;0.03067512185109389;2.1778640726498844;0.017844396859386102;0.116243499541144;0.9940942971709172;0.9882234716677399;0.3497521939799775;3.4246806983383116;0.3822582376750567;0.0
1.1112929425230609;2.154999032212542;1.2349720041015633;0.6435554917860631;0.34821374132745114;0.3926231064507931;0.12125280964926106;0.2684388561477389;0.03239851719845502;1.9449096548901315;0.030845314571224625;0.116243499541144;0.9233267475210347;0.8525322826877726;0.3664243990575371;3.587652450212516;0.32808777043449644;0.0
0.9643773263947694;2.774615262752036;0.9300236276643236;0.6435554917860631;0.5021465932651443;2.595376291810236;0.25215120112779027;0.2684388561477389;0.032248404796497585;1.157968041898462;0.022178036096665597;0.116243499541144;0.881099986189852;0.7763371856637573;0.3664243990575371;3.8085119321998744;0.31074028829001493;0.0
1.1779262880665209;1.8709182366004509;1.3875103401181725;0.72649804769065;0.7128517284342389;1.4382773891194542;0.5081575867316819;0.3759853758278169;0.03594215223472099;0.5651207114435168;0.038237993270113194;0.1274599775670438;1.1279976020992508;1.2723785903416598;0.3959303635005136;2.1377619138695083;0.4284903665851753;0.0
1.3525346107054588;0.7538449787001589;1.8293498731561668;1.1144253414590826;0.9527999827239304;0.4297874433948178;0.907827807078722;0.9151318069604792;0.03612828003265145;0.6029395941573569;0.038237993270113194;0.1274599775670438;1.2224530587672369;1.4943914808893737;0.6899505226652334;0.9532691032189967;0.4869047146350394;0.0
1.5278421091641863;0.01299451308976245;2.3343015105352696;1.5526309491846944;1.1548494047803457;-0.6535096454988459;1.3336771477215188;1.5499813563815106;0.027079026017044112;-0.5319982153434991;0.031864994391761;0.0887121443866625;1.262010900778877;1.5926715136847123;1.474539328104362;0.564228971510963;0.5231224042552725;0.0
1.6918696697899267;-0.2827335981622557;2.8624229795550753;2.197955456207345;1.3445838328352384;-1.2880769789685136;1.8079056835219005;2.0982829725734966;0.026906124920104375;-0.32402824783275086;0.031864994391761;0.0887121443866625;1.2625719406868998;1.5940879054098844;1.4216881811218949;0.7257772809857057;0.5398720628891883;0.0
1.717125429577916;0.0016465916424730645;2.9485197409031425;2.0831388385612772;1.4534372868501328;-1.7445269568387836;2.112479946806275;2.640534057859548;0.02799424486989065;-0.12493799839750623;0.03313959416743145;0.0887121443866625;1.2564486645759485;1.5786632467146846;1.1962499717196948;1.1976261672917663;0.5642212624352754;0.0
1.3145632497402044;-0.32659409803733613;1.7280765375675273;2.042694605232267;1.5173168016349012;-1.7709984775232657;2.302250276523566;2.8348940842034986;0.032222625470229124;0.2410299302561403;0.030080554705822327;0.1131844600795349;0.8901677871675929;0.7923986893108491;1.1408160899004285;0.18134802665068844;0.4485472179420559;0.0
1.2857109742161088;0.07362668735390734;1.6530527092197354;1.693597326777651;1.5119010909255493;-1.4276424871067215;2.285844908741866;2.6194839017239286;0.03257031535744658;0.7628259830880892;0.0316100744366268;0.1244009381054348;0.8798375196273943;0.7741140609440855;1.0907573412899971;0.3734831470011999;0.447674687053144;0.0
1.4874252367695593;-0.46070586131642255;2.2124338349789796;1.7266150896463366;1.4017065596945262;-0.6670015782645206;1.9647812794906643;2.058954827113139;0.033467290155850905;0.3178402157944125;0.03849291322524717;0.1244009381054348;1.066330718167091;1.1370612005067438;1.0907573412899971;0.237774964214588;0.5120174354886549;0.0
2.143028227551326;1.1088337233505354;4.592569984081778;2.5584314930407377;1.1627332268541437;-0.2846589816281412;1.3519485568306495;1.6088408665060079;0.04447303377231395;0.7115757175336783;0.049199551340878875;0.1672274905679616;1.7107496491308674;2.9266643620013855;1.382612460234102;2.745693888107634;0.703965442843258;0.0
2.3593398913251558;-0.4381667552770207;5.566484722798198;3.73121996301719;0.9422339439642577;0.5730884596542271;0.8878048051584401;1.0495915492240728;0.05482932587102169;0.37134997762430416;0.05506271030896282;0.1967982053635158;1.9032280396469918;3.622276970898531;2.423583626976368;0.3067055422199404;0.7132870221046445;0.0
2.285260270959974;0.34553326381173216;5.222414506028054;2.4168255683798634;0.7047004206057795;1.3575417270719325;0.49660268280196257;0.7067406196471544;0.05482932587102169;0.37134997762430416;0.05506271030896282;0.1967982053635158;1.8757586387026182;3.518470470667499;1.6797692083703923;0.8459892648612632;0.7254624956115805;0.0
2.3834457786945262;-0.6694210482352876;5.680813779976756;3.843094616992211;0.4936912076921322;2.947115746760221;0.24373100855251603;0.37948400095597323;0.047434959527283445;0.630697012161077;0.0471601916998061;0.153971652900989;1.8943622283275026;3.588608252113941;2.5927286946858525;-0.09035862762820493;0.6667784205965389;0.0
2.343107449020934;-0.8788668221227144;5.490152517657389;3.843094616992211;0.31033723405206975;1.4438830237794118;0.09630919883908913;0.34506056110823313;0.048440808351089236;0.5255892377034539;0.05098399102681744;0.153971652900989;1.734550844914112;3.00866663359226;2.3408772959685153;-0.0024247555209595045;0.5602230490612383;0.0
2.246050678622583;-0.6824818142098908;5.044743650940965;3.00807958519007;0.33342966210278274;2.381819050999065;0.11117533956997586;0.34506056110823313;0.04960642530090147;0.43023608291788945;0.05098399102681744;0.1651881309268889;1.6114234762435453;2.5966856197888317;2.1173949202358164;0.3239550235345228;0.49675948555244936;30.0
2.080358893307231;-0.16662762577498647;4.327893124962485;2.473327397088495;0.41267853872187904;1.148520971289031;0.17030357632162543;0.34506056110823313;0.0522647514759622;0.15727057971317512;0.054297950443560596;0.16926685020903431;1.5447094853989758;2.3861273942815684;2.016344363507966;0.5573037806502366;0.4667400363328049;30.0
1.8109351234431008;0.27572141433902986;3.2794860213198787;2.0051863691218785;0.4470106144849198;-0.6091403374984673;0.19981848946218558;0.5855735061254579;0.051123696598694014;0.31056224955796286;0.048434791475476545;0.16926685020903431;1.5262203852097664;2.329348664229848;2.008807945667403;0.6358918446006;0.4583230389248621;0.0
1.688655417780778;0.3043610075446629;2.851557120000374;2.0051863691218785;0.4717181975637944;-1.5111392565985735;0.22251805791283497;0.8776451670840701;0.05264130273423051;0.13051600636860913;0.0540430304884265;0.16926685020903431;1.5620884511975326;2.440120329364706;2.008807945667403;0.5430620758036607;0.47308127901279373;0.0
1.7622068262808501;0.16747529156193272;3.1053728985908267;2.0051863691218785;0.48046556073613045;-1.9504306054275742;0.23084715505348424;0.8820708176443399;0.05243019631453023;0.3948917530416881;0.048689711430610697;0.16926685020903431;1.6533695041458982;2.7336307172396537;2.008807945667403;0.2521664094800138;0.5136458258070441;0.0
1.898875959720176;-0.12399998340521531;3.6057299104032197;2.145734483301477;0.49010906442994645;-2.0477925540144195;0.2402068950363974;0.9207206882533225;0.05211797898301046;1.3319414067832263;0.04359131232792895;0.16926685020903431;1.7628023453054784;3.107472108614495;2.241123454974555;-0.08399504596984886;0.5672992081930784;0.0
2.00974146164025;-0.08605570146713022;4.039060742635889;2.666500307467082;0.47811553790174555;-1.7098957545374553;0.22859446758307547;0.9105130713747469;0.0524199793128617;1.0619373363797346;0.050729071071683396;0.16926685020903431;1.8328632632118653;3.359387741631647;2.396504664431055;0.22670856212012735;0.6453819119048134;0.0
1.74884656177036;-0.6473929115582658;3.0584642966160094;2.4856827404466184;0.4404596737939091;-0.8038799690911099;0.1940047242386368;0.6154025164341466;0.045175505690614;5.072664252270304;0.038237993270113076;0.16926685020903431;1.4094295130435073;1.9864915522380577;1.6580810966238104;0.08407263009171086;0.5885207263178582;30.0
1.6481714043970752;-0.9061074220097586;2.716468978272227;2.1937360509966304;0.3735711107625028;0.8245111553046942;0.13955537479633015;0.23680755081699667;0.02579913906928675;-0.695677995812452;0.0265116753339451;0.07953502600183529;1.0742627933382047;1.1540405491508023;1.4349547302975858;0.18147881845806005;0.5128380303978523;0.0
1.6389524207781652;-0.831365173966756;2.686165037574608;2.1937360509966304;0.28227087128830997;2.8786855974817223;0.07967684477786165;0.17986630100116274;0.025745959405355796;-0.6290099668989304;0.025746915468542797;0.07953502600183529;1.0569788128517745;1.1172042108175468;1.056447844623091;0.7838614434183537;0.5196447386070948;0.0
1.3866438981508666;-0.8057125061134697;1.9227813002790313;1.928047735828196;0.2495703504032563;1.4380668935136751;0.062285359800404144;0.17986630100116274;0.02340001429105932;-0.18410323708447626;0.024217395737738272;0.07953502600183529;0.7642776634622388;0.5841203468672991;0.8878841077752302;0.20064789900980978;0.41337750309358856;0.0
1.2059477009136808;-0.5826932000109164;1.4543098573389923;1.6221399931357814;0.28019931683911803;1.042053290164933;0.07851165715710845;0.17986630100116274;0.02383574903459594;-0.49211740500371853;0.031100234526358673;0.07953502600183529;0.5737991907291591;0.32924551128143786;0.865125094211022;-0.7580101377279694;0.3346552518967603;0.0
1.1088443243591255;-0.6070828788797946;1.2295357356634453;1.6013427572616465;0.3400222111560899;-0.31394925031535575;0.11561510407947656;0.3733315105950248;0.039838360028006996;4.092408219210556;0.029825634750688175;0.1519322932599163;0.5441124556351393;0.2960583643773015;0.865125094211022;-1.23243395418204;0.32024761124615253;0.0
1.0231435092729437;-0.3011834266201712;1.0468226405673542;1.394381167641186;0.3625026189210265;-1.393668016576414;0.13140814872460294;0.6417040890906829;0.05519878201638558;2.011770168671324;0.03161007443662678;0.1911899663505658;0.5279942036110956;0.2787778790469151;0.7316886398248208;-1.0058298610949021;0.31450230147476727;0.0
0.9393344097036987;-0.04325093094753545;0.8823491332533963;0.9219633577350076;0.36991165330633446;-1.9048548244052776;0.1368346312518258;0.6417040890906829;0.05820847102081374;0.18463812460602058;0.05965126950137645;0.1911899663505658;0.5050103544182878;0.2550354580696847;0.6747063481696867;-0.5219071646236229;0.30846316290815096;0.0
0.9334179090462826;-0.004072721174197921;0.8712689929283343;0.9219633577350076;0.36214167546294934;-1.868216401602891;0.13114659310711213;0.6417040890906829;0.0626423028542627;-0.012827624557038083;0.05965126950137645;0.2115835627612929;0.49778375373201916;0.24778866547953948;0.6582196443862245;-0.36898523581742904;0.3011772596232403;0.0
0.9490910071954812;-0.0913956994715439;0.9007737399393331;1.0910849357536072;0.3540838446862711;-1.7471987740956822;0.12537536906781135;0.6417040890906829;0.06323526969916526;-0.011046444116151912;0.05965126950137645;0.2115835627612929;0.4721940531088593;0.22296722379137227;0.4796622807451345;0.2051251823388845;0.27940604372826516;0.0
0.9415763770984777;0.08829263114783556;0.8865660739098948;0.976828792320371;0.34532890932865545;-1.7371512342486097;0.11925205561811875;0.6291648546356787;0.0649591627034822;-0.1629229361261284;0.06576934842459455;0.2115835627612929;0.4581788863888047;0.2099278919324852;0.4796622807451345;0.25763842660160147;0.26971917215798247;0.0
0.9601757474119034;-0.25206783760384105;0.9219374659180073;1.0559361488409107;0.350446757982511;-1.6835011351418947;0.12281293018045264;0.6291648546356787;0.06488345308679223;0.0724817376786354;0.04665035178953795;0.2115835627612929;0.456470616653768;0.2083654238682712;0.4796622807451345;0.24944571079742875;0.268563796289257;30.0
1.1093378941820158;0.18423824376966802;1.2306305634681893;1.0559361488409107;0.39733939422924486;-1.2186924451156602;0.15787859420646325;0.6429670536614607;0.0649726210371693;0.07308540321767762;0.04665035178953795;0.2115835627612929;0.44844573839830554;0.2011035802876015;0.3911765911376257;0.5257424835780625;0.2563885812627583;30.0
1.052788043729618;0.483850235403465;1.1083626650200362;1.0559361488409107;0.4544126413688798;-1.03718002806247;0.2064908486358422;0.6677592308980198;0.0637310393540718;0.17777687727967442;0.042954012440093677;0.2115835627612929;0.48598926898277856;0.23618556956641548;0.5442281843760624;-0.36663942882824596;0.2862126015695774;0.0
1.0816453549204594;-0.44093082698492225;1.1699566738210065;1.3106074672939583;0.5531028812263062;-1.0247152118092553;0.30592279722084137;0.8362326688680104;0.06402495154173825;0.16215666231948186;0.04830733149790955;0.2115835627612929;0.4950637727117691;0.24508813905161017;0.7607586397326069;-0.44887251566458225;0.30275156089063654;0.0
1.114510762729395;-0.879197647072314;1.2421342402396582;1.694807308026851;0.6881287887909708;-0.35225987236568446;0.4735212299629286;1.0301107367508218;0.06547983787237426;0.1495151057525997;0.0549352503313959;0.2115835627612929;0.4679492398848222;0.21897649110878287;0.6787886485574264;0.489780317376834;0.2952515384890882;0.0
1.1395026181606827;-0.9793313187013957;1.2984662167950505;1.7848923544378057;0.8435030752873639;-0.2208580188402032;0.7114974380192404;1.04049568575976;0.06659107314979014;0.17917702620193332;0.053788110533292535;0.2115835627612929;0.46075792321513837;0.21229786380552734;0.5462287276742559;0.9490381251678868;0.29461375313618726;0.0
0.941459429752678;-1.4178223412738549;0.8863458578702378;1.5129722834113126;0.9750416733705349;-0.4226275537736152;0.9507062648092129;1.191563509009279;0.059233589795331436;3.0086267288669624;0.025237075558274757;0.2115835627612929;0.3288543166913132;0.10814516160651051;0.41897537051218103;-0.8412717394802781;0.22455525512966465;0.0
1.2118458363509428;0.7777621513780616;1.4685703310811158;1.5665152150831751;1.1022641857237439;-0.6561675898485336;1.214986335129228;1.5269104708543635;0.03795815380465842;5.676013661061236;0.026384215356378124;0.15397165290098902;0.7622899414021405;0.5810859547628787;0.41897537051218103;7.89364076291251;0.4696718885215715;0.0
1.228214904151971;0.2073054256518857;1.5085118507810351;1.4056975925339423;1.1581755347124212;-1.315738339668295;1.3413705692064029;1.851472520289379;0.018772828059393582;0.27833506277485753;0.02230549607423275;0.0672988681553992;0.828030197164895;0.6856340074169349;0.48998443732016694;3.746668636100051;0.4835946709990375;0.0
1.2424781738874737;0.0009436939569253708;1.5437520125867514;1.3554267962034139;1.140284987994189;-1.7426049166214708;1.3002498538449077;2.03974164138439;0.014303630320679843;-1.0024209240424076;0.018864076679922532;0.0448659121035994;0.9314812607818412;0.8676573391877285;0.9558875912757525;0.5700118656883079;0.502552313585049;0.0
1.13698359623508;-0.7848176327736105;1.2927316981076555;1.406904483229541;1.0765772410166359;-1.8086732928735298;1.1590185558749917;1.9097138694833409;0.01371896312523286;-0.5034588383785389;0.016059957173447582;0.0448659121035994;1.0331705390870618;1.06744136283745;1.6660320773194983;-1.001621598539426;0.5143161720529561;0.0
1.1159522566511453;-1.3083365420106117;1.2453494391247837;1.7919286224124529;1.0084345356780173;-1.6099057145699822;1.0169402127481384;1.8157647260273069;0.012459744990363732;-0.3183681405587417;0.015040277352911254;0.0443560721933313;1.1161738011820854;1.2458439544452655;1.9247271674504174;-1.6221728241028819;0.49738486509164276;0.0
1.0830885452061314;-1.692110382414085;1.1730807967567343;1.928714850244371;0.9197737870285427;-1.1110346554180417;0.845983819304827;1.4080385389060779;0.013000841977822598;-0.03486130713940333;0.015550117263179408;0.044865912103599505;1.1333829022064255;1.2845568030138599;2.0460300192208414;-1.933361488556781;0.454706101681229;0.0
1.0868160955590358;-1.7100426898146701;1.1811692255661874;1.928714850244371;0.8250600989372493;-0.13340232364207244;0.6807241668583436;1.0369706204842144;0.01262553891802367;-0.7248670502649462;0.018226776792087323;0.0387478331803814;1.1436997111100398;1.3080490291931886;2.0460300192208414;-1.9706822982929715;0.438603916257471;0.0
1.0080827583908045;-1.2185104531909436;1.016230847764813;1.7810037216876287;0.6849304999385247;1.0307571578797092;0.46912978974603736;0.6188164167525092;0.017875269541394987;0.872556709509273;0.0268940552666463;0.0596512695013766;1.0454288060121124;1.0929213884399112;1.972611396078328;-1.5781411774401028;0.3770413765902214;0.0
0.9438941949946906;-0.56101280748082;0.8909362513446751;1.3056195282038063;0.5088982581782121;1.4178336512342684;0.25897743717681826;0.5230548133728343;0.01880133845679306;-0.3728922207393206;0.02141327623126338;0.0596512695013766;0.9248472783968241;0.8553424883580127;1.1013822854518156;-0.8711240959217832;0.3175613587157196;0.0
1.1016831121896837;-0.5013906499536511;1.2137056796839472;1.3406543193820841;0.3672888169886857;0.7155321870531067;0.13490107508494825;0.4975074044925014;0.01990671970903956;-1.1223979674895752;0.028805954930151957;0.0596512695013766;0.8696006461121543;0.7562052837186762;0.9947595016619997;-0.6046009321056494;0.29458976562635725;0.0
1.0854057806051485;-0.27680123296872805;1.1781057085710716;1.2845101101114151;0.2666050895763091;-0.7932707883016342;0.0710782737879918;0.4154335649915597;0.019773321229461033;-1.1045326715241908;0.028805954930151957;0.0596512695013766;0.7768428209484324;0.6034847684591182;0.8812199405318397;0.24759154668781208;0.25678282166921795;0.0
1.0390326032068145;-0.17803162974414086;1.0795887505267296;1.2845101101114151;0.22299712299490138;0.19259751151400842;0.049727716864003166;0.28189193233120236;0.017917522718215114;-0.6181142839929843;0.023962475782604277;0.0576119098603039;0.6651240947595479;0.4423900614297081;0.8812199405318397;-0.9733595319973125;0.21586472862790243;0.0
1.015427895641503;-0.5222028738476373;1.0310938112469312;1.3726477346180996;0.22409537368399463;-0.016687632932035335;0.05021873650656919;0.2956248032579738;0.017922302929482593;-0.6219159651934143;0.023962475782604277;0.0576119098603039;0.657425574121025;0.4322083855083594;0.9489037007627728;-1.1243222552045362;0.22319962424164286;0.0
1.1276667522798367;-1.227909045030379;1.2716323041973547;1.6008256330429103;0.23972740862159245;-1.0085342684905096;0.05746923044442396;0.4154335649915597;0.018740859632867857;-0.9330380162537526;0.027531355154481504;0.0576119098603039;0.7693406994550168;0.5918851118379345;1.1715589522294976;-1.1194321601165023;0.2702019564214082;0.0
1.1063865334690772;-1.1078458295160816;1.2240911614417216;1.4957303456123923;0.2443921614389035;-1.1356044439978834;0.05972752857277907;0.42497143422042694;0.01718458004533943;-0.5288851834974126;0.02090343632099516;0.0576119098603039;0.776967107294994;0.6036778858183506;1.1715589522294976;-1.2029771156510467;0.28079016006249435;0.0
1.1126475703411292;-0.9142547794545124;1.2379846157860177;1.5713563870364264;0.2412690821721176;-1.2511300534465124;0.058210770012176026;0.42497143422042694;0.01648986007416299;0.20351056641276463;0.01631487712858161;0.0576119098603039;0.8336173166553653;0.6949178306276915;1.0898351436380738;-0.9103771843653438;0.32092190304270735;0.0
0.9670175750059563;-0.13685143160674457;0.9351229903704003;1.3254289071655874;0.2751258882132692;-1.2572480783706397;0.07569425436514031;0.48566000856858493;0.0132922578268435;1.2972921858347919;0.012491077801570306;0.052513510757622096;0.7568387350408797;0.5728048708582789;0.9887628994404949;-0.23279068824274482;0.31261056807745163;0.0
0.7843059803951978;-1.194451624857775;0.6151358708836724;1.3000955507791685;0.3002902682380131;-1.8257401244191063;0.09017424519845785;0.5292439449532589;0.013407315082451339;1.0263795961367812;0.01478535739777706;0.052513510757622096;0.5951978655143773;0.35426049911287066;0.7047201405190906;-0.7318037614895351;0.25780514325447357;0.0
0.6829461135144739;-1.123530035211887;0.4664153939645246;0.9693669208120737;0.30897288863385924;-1.9357652519249986;0.09546424591075117;0.5999418541953236;0.017336090490639593;0.5100625121818092;0.01631487712858161;0.0627103089629856;0.5106506160899225;0.26076405171301736;0.667734811357537;-0.5930521608072878;0.23364132939467291;0.0
0.6141837820234344;-0.828676751660725;0.3772217181006096;0.7721417375718735;0.28508581688895485;-1.6203523836267326;0.08127392299124268;0.5359628900964586;0.01768877994725893;-0.550285493297238;0.01860915672478835;0.05098399102681761;0.432724400424511;0.18725040672275253;0.5022458727195109;-0.33961191973839644;0.20796942889481126;0.0
0.5642187009389971;-0.47717141712484096;0.31834274248928945;0.7454373495170672;0.2598270881715622;-1.1899766303118775;0.06751011574771276;0.41688327715588613;0.019179566490444964;-1.1584800140645055;0.029315794840420097;0.05659223003976751;0.3593298754845423;0.12911795941573667;0.4648696256174769;-0.8133128499801734;0.17676490444554271;0.0
0.5061156941123452;-0.2339364541237545;0.25615309582682105;0.5915891922079997;0.24278628542838582;-1.541055330506251;0.05894518039211363;0.41688327715588613;0.01752498494807441;-1.2146565475474782;0.028041195064749672;0.051493830937085705;0.3936501010172306;0.15496040203087583;0.5525470395690146;-1.1357335745632529;0.18922682697121715;0.0
0.515427675552398;-0.46895470797111644;0.26566568872534807;0.700108240693887;0.2468782405330831;-1.4713915434978373;0.06094886564871083;0.41688327715588613;0.017577045583364707;-1.5025609063593943;0.028041195064749672;0.051493830937085705;0.37404978151991286;0.13991323905509453;0.4648696256174769;-0.804158338991242;0.18243888327497393;0.0
0.6335624239510511;-0.1400588313496655;0.4014013450427314;0.7065468182010319;0.26553860006043467;-1.3345313217691661;0.07051074812205549;0.42830003293330376;0.01766599915063874;-1.5364106555820831;0.028041195064749672;0.051493830937085705;0.5196871416072861;0.27007472515195147;0.579468693275561;0.8261365109669384;0.2414009427934565;0.0
0.6341771943196424;-0.11670949683909587;0.4021807137951334;0.7065468182010319;0.3277077925324213;-0.8444891148612619;0.1073923972864725;0.5777700559080372;0.01761375423467302;-1.517812059026109;0.028041195064749672;0.051493830937085705;0.5344090229635274;0.28559300382483205;0.7731214601613845;0.17681949044029466;0.244896656578427;0.0
0.8211060513692898;1.697936518783768;0.6742151475952668;0.7065468182010319;0.3771643760783218;-1.368554250727095;0.14225296658254977;0.6256276582033045;0.020458767237311336;-0.9928358523267958;0.03237483430202914;0.06525950851432649;0.4982615613869883;0.24826458355579953;0.7347975077496485;0.6764304422050316;0.22175505430339598;0.0
0.9012913638782263;0.14332420924944433;0.8123261226014733;0.8619743209237365;0.39460817086813293;-1.7373478946440009;0.1557156085158936;0.7110062756926157;0.02491964802661352;-0.09518375688794234;0.03237483430202914;0.08310390537371269;0.49903317307634704;0.24903410783064733;0.7347975077496485;0.694303639069817;0.22300528075170548;0.0
0.880813803024888;0.6226878781429656;0.7758329555991662;0.6836808527825162;0.37633574642468987;-1.504367677487411;0.1416285940370285;0.5947701538400583;0.025365923253079743;-0.3709086766658951;0.03415927398796777;0.08310390537371269;0.4450409903635687;0.19806148310378607;0.7094724574352076;1.130781595226633;0.19551884275020057;0.0
1.0304563219131473;-0.5086020299519141;1.0618402313707718;1.0133680902743334;0.3625762419463279;-1.4976864898297324;0.13146153122392212;0.5739369299751664;0.03078201440400849;-0.6852732084971156;0.04601305190170285;0.09432038339961249;0.47515930803389933;0.225776368011254;0.7094724574352076;0.8785860681782576;0.21064192787799174;0.0
1.023620576934305;-0.7911900206350215;1.0477990855233195;1.5459982269679968;0.3942614565737503;-1.087971150103348;0.15544209613965518;0.5739369299751664;0.03178477129280618;-1.1889571612347596;0.054170490465993676;0.09432038339961249;0.5669183867386459;0.3213964572223489;0.5515632782686608;0.9197445799344728;0.26591537808883786;0.0
1.0669679758138213;-1.027328477384674;1.1384206614122432;1.6927204738104358;0.4760967312194521;-0.034883013239467825;0.22666809747784722;0.5739369299751664;0.029936317249743563;-0.886834994553308;0.0426990924849597;0.09432038339961249;0.6808329524235869;0.46353350910581814;0.6511987577024709;0.23389332956462378;0.3328771103940763;0.0
1.1098110583039136;-1.0796834195897154;1.2316805851336527;1.7989257852780214;0.5983795720820393;-0.2792557018158713;0.35805811228508444;0.7216968182628711;0.027638436455233378;-0.39462960099227506;0.03173753441419393;0.09432038339961249;0.792581075889594;0.6281847618583064;0.9847219400509175;-0.5075101823211292;0.4071834882459688;30.0
1.1187480070180877;-0.42525020870912916;1.2515971032069435;1.574690279546704;0.7193217679491192;-0.9824622404278247;0.5174238058454464;1.0431285068308205;0.02903887785060306;-0.057467359583313914;0.03173753441419393;0.1029876618741715;0.8476332133232813;0.7184820643287514;1.3733606119603146;-1.004227180299722;0.4660682826155559;30.0
1.0510307453599794;1.2727438890630278;1.1046656276919538;1.4576622431151085;0.8302015741138814;-1.3561694640889557;0.6892346536611664;1.3704882921634383;0.037449105195869775;0.39706319054152145;0.03505149383093707;0.1315386968491892;0.883813705019376;0.7811266651800765;1.3856493630472246;-0.8852518341577953;0.536377506002307;0.0
1.04132883008268;2.4361280051388805;1.084365732361363;0.7381125809981031;0.950400394875423;-1.3263229137920143;0.9032609105793601;1.6412890073297224;0.042227247081850335;-0.44240276498356934;0.040404812888752924;0.1315386968491892;0.9130329699790217;0.8336292042687131;1.4368238957939259;-0.7630813467044485;0.5980445989034799;0.0
0.6998839767451617;1.7643659142598493;0.48983758090462204;0.352979547139725;1.0544755987423045;-1.2436495444789106;1.1119187883429413;1.5777673126219487;0.04343712998325128;-0.973047578398454;0.06640664831242993;0.1315386968491892;0.7229733208810152;0.5226904227057233;1.1876594954748094;-1.2683628769622406;0.5317100211403639;0.0
0.6736922530259987;3.3873673344442183;0.45386125178724623;0.3184788434921981;1.1232323013218255;-1.0065072893306524;1.261650802732724;1.5813072377054156;0.04511616199421623;-1.4394225204034905;0.07405424696645255;0.1315386968491892;0.680988078545914;0.463744763121656;1.1876594954748094;-1.563769214619513;0.5101330181796665;0.0
0.814892687514712;1.3058682178822387;0.66405009216495;0.47521963491076025;1.158582563716404;-0.8873405269925728;1.3423135569476752;1.682334475468371;0.05751989018260924;-0.025858021593538498;0.07163250739267868;0.19679820536351578;0.7257616548335786;0.5267299796267744;1.1876594954748094;-1.1611979617573884;0.5335740276969353;0.0
0.8249727705971895;1.151274442816719;0.6805800722268031;0.6871135803066143;1.1687901675942634;-1.0807932340369708;1.3660704558650263;1.6967977268150565;0.06112823770203571;-0.6257047879768985;0.07724074640562847;0.19679820536351578;0.7610300781261201;0.5791667798126485;1.2225205393330587;-1.276477682346343;0.5490793218762813;0.0
0.6150943298121584;-0.3457059662592649;0.3783410345670683;0.771248848934445;1.1809893964451088;-1.2873999698653784;1.3947359545157825;1.806134801978204;0.06125406702280637;-0.7735632314613023;0.0848883450596511;0.19679820536351578;0.8054600289917224;0.6487658583033463;1.5572809614816674;-1.6363975394334527;0.563447868320604;0.0
0.6954242507095776;-1.311738365768187;0.48361488847497736;1.1038611054463496;1.1365921555810787;-1.5247500487301242;1.2918417281284433;1.968348512135873;0.0549357476945916;-0.9717182403745722;0.0848883450596511;0.168247170388498;0.9203874605807931;0.847113077594361;1.656705198254593;-1.8423541734174853;0.5938106794609587;0.0
1.0455042642186234;2.4899142530035205;1.0930791664993251;1.463823386338156;1.0668169885155838;-1.6285995622923075;1.1380984869854591;2.0176949150032457;0.04911723086115834;-0.7421003739515571;0.05506271030896283;0.1458142143366982;1.2351990791309095;1.5257167650858472;1.7450213202421379;0.10112991207682663;0.6740553846928299;0.0
1.0636717745522806;0.9011528957451276;1.1313976439791977;1.3985399381672936;0.9719848010498909;-1.466008416760538;0.944754453471996;1.6496269117413132;0.046233159707396096;-0.4567825303764904;0.04690527174467203;0.1458142143366982;1.2647740574825868;1.5996534164809655;1.9635878869716616;-0.6405955504957414;0.6181693593116566;0.0
1.6494581794491967;2.9158929984090642;2.7207122857518584;1.320661662439298;0.8492038418879061;-0.9085552705624574;0.7211471650771799;1.3015577218198044;0.04428033510871453;-0.37715854509223923;0.04690527174467203;0.1458142143366982;1.7100303311924687;2.9242037335982243;1.9010935292519777;1.3052886005061237;0.6759337049834542;0.0
1.898060691937217;0.19617439651733928;3.6026343902771867;1.9032397193677886;0.6991012827714954;-0.0627353043132113;0.4887426035727504;0.9104210805481825;0.045925807879482944;-0.6148717455681327;0.055062710308962856;0.1458142143366982;1.8707483672720713;3.499699453651121;1.6161237625685003;-0.15621331842040717;0.6324557446843421;0.0
2.05492481934116;-1.03932691262562;4.222716013144298;3.018932987794088;0.5376516090019735;0.3291285042456303;0.28906925266241096;0.6393190392721015;0.04589561167351501;-0.6007594789538548;0.05429795044356063;0.1458142143366982;1.922381223758862;3.6955495694606197;2.4739383260065697;-0.9449001722951752;0.5601295760159875;0.0
1.906037019341321;-1.0312974536925454;3.632977119099547;2.57827584503145;0.4216757879319455;-0.1917027026648245;0.1778104701280271;0.6248756533477633;0.04617877881672074;-0.7314859072798577;0.0581217497705719;0.1458142143366982;1.7155666613070306;2.943168969388152;2.4029435548776403;-0.9079465901677856;0.4690917885408051;0.0
1.8479386366509702;-1.5023148712328274;3.4148772048274463;3.0841713656380207;0.3589045651776545;-1.611998941833418;0.12881248690536126;0.6248756533477633;0.04559496834405777;-0.6587642668504139;0.0581217497705719;0.1458142143366982;1.585688102193832;2.5144067574390765;2.7077030680788816;-1.4580026952723264;0.3990223761057327;0.0
1.8731502938874995;-1.7447319834496944;3.508692023490826;3.4728152391319966;0.3743712959564397;-1.436870540826134;0.14015386723610418;0.6248756533477633;0.045334570306556715;-0.6438069433082477;0.0581217497705719;0.1458142143366982;1.55888347984892;2.430117703745878;2.8461937503763584;-1.806226106390042;0.3663262734958524;30.0
1.8076802642647152;-1.5111591247731304;3.2677079378121503;3.0141756771900625;0.4310325263486968;-1.6255764809521;0.18578903877054004;0.7700367254849112;0.038350276438965894;-0.07427536095387824;0.04894463138574477;0.1356174161313346;1.5016704593271306;2.2550141684157556;2.4669961400209743;-1.7006967194720752;0.3476968714125086;0.0
1.954774663522592;-1.1048265587358819;3.8211439851498623;3.0141756771900625;0.47724774941398485;-1.5770732883356402;0.22776541432071368;0.8541207424204651;0.031179124197330862;-0.7325515078348221;0.04155195268685617;0.1060467013357804;1.7303876554718336;2.9942414382093094;2.4669961400209743;-0.6801349133440883;0.4132091325365821;0.0
1.996716128142139;-1.094282776817265;3.9868752963829355;3.0141756771900625;0.47201900853773976;-1.5457778838117715;0.22280194442095083;0.789071733731401;0.027057018929175836;-1.1998790150636123;0.041169572754155045;0.08463342510451699;1.8664173471347134;3.4835137136853813;2.4669961400209743;-0.8604740112786822;0.4562330672994021;0.0
2.095216804516796;-1.3456171580864338;4.3899334579295735;3.2783918056386065;0.4330735303247069;-0.997339156221176;0.18755268266790484;0.6245641411601137;0.02323342645982185;-1.682058262186269;0.037218313449576726;0.06525950851432641;1.9832506603902196;3.9332831819382417;2.81722084963166;-1.2977228287645655;0.4990329241835023;30.0
2.156689238961714;-1.6590754679891484;4.651308473453257;3.9584462896666865;0.3657733251199963;-0.3368076410024824;0.13379012536933851;0.42688464513345803;0.024052866802199074;-1.772658843357695;0.04002243295605165;0.06525950851432641;2.0353557351585754;4.142672968642905;3.6555705615371985;-1.5996899528711714;0.5373936404515085;0.0
2.4388254537323486;-1.683381665538157;5.947869593772797;4.5784808004335655;0.29161866619701315;0.03700479963002231;0.08504144647452497;0.2881690027913342;0.023637305147726037;-1.3902427503103618;0.04002243295605165;0.06525950851432641;2.158989700281927;4.661236525923445;4.234651818626041;-1.8588737472543282;0.5974921436198235;0.0
2.370563272361225;-1.6437759507159977;5.61957022826796;4.376178764335132;0.23094448064317283;0.40096140707967026;0.05333535313954483;0.22055016851807308;0.0215079721092729;-1.3290871446745727;0.03568879371877215;0.0611807892321809;2.055142816004691;4.223611994175691;3.949500150395376;-1.6492659293027983;0.6456211361631607;0.0
2.318139282092301;-1.1877950638352703;5.373769731179409;3.300835465602935;0.17963185053406963;-0.06571455009952969;0.03226760172629433;0.187054548893554;0.018550599140417907;-0.5827901571433428;0.0170796369939838;0.0560823901294992;1.9350159617130969;3.7442867720844615;2.553567482975444;-0.9201128272638281;0.6949996741735234;0.0
2.1007507032808217;-0.5968542986750157;4.413153517334867;2.9602054201390686;0.16463308997424414;-0.9120488616789133;0.027104054314467566;0.2691722371599994;0.01799604234489426;-0.882381522396307;0.024217395737738248;0.0560823901294992;1.6525684997782009;2.7309826464591738;2.1582042255267098;0.04772672623715961;0.7019407312040062;0.0
2.112430698010468;0.0830515574302966;4.462363453896992;2.4229870065295973;0.18295080697602759;-1.0656443177388895;0.0334709977731797;0.2735774499790544;0.016959479199536706;-1.4953107202975173;0.0316100744366268;0.0499643112062811;1.6779816168806103;2.815622306589267;1.4129479778785776;0.819647364242884;0.7848253814446429;0.0
1.8566626323326083;2.750141941180363;3.4471961303002505;1.6058947141826163;0.19002183427616998;-1.3573148081392097;0.0361082975016802;0.27675245965062556;0.016853485056130053;-1.477381424746888;0.0316100744366268;0.0499643112062811;1.4166928837844441;2.0070187269654842;0.6765003860009733;5.091175215478409;0.7874122065791012;0.0
1.223375122705253;1.6070936354726617;1.4966466908540925;1.4066479743342288;0.18933148837200264;-1.317924760725405;0.03584641248915777;0.27675245965062556;0.01616646438878115;-1.2582018187823107;0.027786275109615448;0.0499643112062811;0.723682727175501;0.5237166896121705;0.40837583593406857;4.835814181323755;0.5002685645351835;0.0
0.8669718302576132;-0.8553326723697012;0.7516401544602356;1.4066479743342288;0.18857343138013002;-1.2799083768908093;0.0355599390224766;0.27675245965062556;0.016125240453410183;-1.2379746672145675;0.027786275109615448;0.0499643112062811;0.3842732456432972;0.14766592731723382;0.38599233408501865;2.9280907619966317;0.2988002306780072;0.0
0.8743816001276715;-0.7495278296349909;0.7645431826418272;1.4066479743342288;0.18960401186344894;-1.1216398869641042;0.03594968131471488;0.297666801951014;0.015615262096083528;-1.1253631842492275;0.027021515244213222;0.0499643112062811;0.3628267221001301;0.13164323026992505;0.3231210570123664;3.610689816496713;0.2744554033562174;0.0
0.9024034629251374;-0.15621009974154781;0.8143320098992799;1.133475874711816;0.2149157114406456;-0.6430350117334999;0.046188763024038855;0.2879475215244942;0.014051673160098229;-1.2881474858055937;0.024472315692872323;0.040787192821453905;0.3829865298437302;0.14667868204174245;0.3764290232730325;1.6697180034478758;0.2804721245130674;0.0
0.866189290605006;1.5152826104843744;0.7502838871588037;0.6345237125274122;0.2363592597462093;-1.0182567936545075;0.055865699667776034;0.33648275118772664;0.013586554587762806;-1.0498335819756581;0.022432956051799652;0.040787192821453905;0.39082816114266955;0.15274665154216047;0.4085578237966683;1.1584260558480342;0.28398747847861255;0.0
0.6065026812827914;2.5006830595566294;0.3678455024032152;0.5222961374952362;0.23295882191172662;-0.9132393313665842;0.054269812706499554;0.30643699545814873;0.011350163910500508;-1.5648180408677133;0.01988375650045875;0.0316100744366268;0.28233077464431855;0.07971066631126099;0.3376711955465812;-0.02844500975602576;0.21547815151458463;0.0
0.6342500079683171;2.1525983063368876;0.40227307260781037;0.6592392490297245;0.2317145610982167;-0.87668054880885;0.053691637824939194;0.30643699545814873;0.010716565459549928;-1.7986014327083877;0.01988375650045875;0.026511675333945002;0.28794566417101347;0.08291270551488608;0.36216553057163514;-0.20058765174287474;0.21674895365154628;0.0
0.5841470085224336;5.531308920490828;0.34122772756570807;0.6224540407102093;0.2331147257615386;-0.9326857674732063;0.05434247536687735;0.3084970471180455;0.010061096647781808;-1.6730177956948757;0.016824717038849725;0.026511675333945002;0.28822626739901236;0.08307438121876698;0.36216553057163514;-0.13174647101889403;0.21539952002641594;0.0
0.6116803056441111;5.52694197806685;0.3741527963128732;0.47519973044982966;0.263612633478639;-1.148680817194374;0.06949162052954326;0.3688374920614603;0.00975946314464348;-1.6594146388329645;0.01631487712858155;0.026511675333945002;0.33021032455602445;0.10903885844339502;0.30167237939869396;0.09194435818022839;0.23486503863924696;0.0
0.7876086523471699;3.2328916161432706;0.6203273892521252;0.48242661202766346;0.2706351176028604;-0.899595329911737;0.07324336687991408;0.4016371583536764;0.013470396955726303;0.7228126591139825;0.017589476904252024;0.046905271744672;0.4941324806542368;0.24416690843750974;0.3340397888387765;2.9661300393252303;0.3194306832752862;0.0
0.7813517359139965;3.8797089332899075;0.6105105352158158;0.43347720145269664;0.2586141818435692;-0.5954511062242299;0.0668812950506187;0.3738895620988676;0.016194699374747688;0.4978971084808494;0.01631487712858155;0.0540430304884266;0.4484964653158205;0.20114907940078497;0.3847161281697371;2.6353707866489016;0.2709611706168161;0.0
0.8034745753254109;3.585536226879568;0.6455713931943493;0.49996164589147574;0.24169351483842633;-0.9777667529326897;0.05841575511495261;0.30802045754778185;0.0176200139222395;-0.7596593902621388;0.022050576119098476;0.0540430304884266;0.43697413306449495;0.19094639296746693;0.5330156256111607;1.0813355226650514;0.24814088499205184;0.0
0.8105322473637047;3.5157025083330873;0.6569625240164577;0.5228618775400917;0.24193890596575884;-0.7549991483287121;0.058534434219908296;0.31783646294872936;0.017879620504206696;-1.0727143106528905;0.028933414907718877;0.0540430304884266;0.4355656642001405;0.18971744783010952;0.6113003697069961;0.314496277912323;0.23953454912197722;0.0
0.506282406789186;2.3788686157968857;0.25632187542425083;0.40598682528665253;0.21636801705336806;-1.1746929693671904;0.046815118803606566;0.40173031800375814;0.021740869639913774;-0.6964826147218338;0.031992454369327954;0.0723972672580809;0.4316220374978483;0.18629758325379395;0.6380709051483167;-0.1235738377743265;0.23013601962620756;0.0
0.48815665184127516;2.577171298675234;0.2382969167368839;0.40598682528665253;0.21321519711884054;-0.7154621180851652;0.04546072028242603;0.2881274151947717;0.026015426088150724;0.1170293843428308;0.037090853472009626;0.09584990313041689;0.3990503604197939;0.15924119015116744;0.48531590769976374;0.3163937481526773;0.20914388044926369;0.0
0.5161984958978981;1.9032012904552478;0.2664608871672523;0.5563427641026166;0.2124676308406805;-0.5681958935685063;0.045142494155051685;0.2881274151947717;0.03156902510691641;0.3115366755981016;0.037090853472009626;0.11522381972060759;0.40649407429220324;0.16523743243467523;0.549011800965467;0.17162205402847489;0.21448150466589017;0.0
0.6005890939525815;0.957905624316026;0.36070725977478274;0.6691072657865145;0.2200454760585809;-1.0868508821259721;0.0484200115338475;0.3877582734605374;0.03335563137727375;-0.4845327417497894;0.0442286122157641;0.11522381972060759;0.4380219777714263;0.19186325301079188;0.6380709051483167;-0.21325953581831275;0.23512199718163015;0.0
0.9996037368978513;3.6011134903188893;0.9992076308201487;0.7631660536147236;0.21421067328791585;-0.870436808791649;0.04588621255046222;0.366328356714972;0.03355106183102087;-0.5700192071205064;0.04575813194656862;0.11522381972060759;0.4273292341860788;0.18261027439006058;0.5857683314350277;-0.327251796518514;0.22203028774468084;0.0
1.1420236680620564;0.6753893335991166;1.304218058413914;0.9642001483345937;0.20086213741165243;-1.4140753796833123;0.04034559824557755;0.366328356714972;0.034398225554329705;-0.7947181092928632;0.046395431834403866;0.11522381972060759;0.4162361917179737;0.1732525672958818;0.5250176725471662;-0.09898254958218457;0.21488868653170975;0.0
1.427883907069116;-0.2978197667871945;2.0388524520669637;1.5388621118462713;0.25775285843062473;0.6638070854968336;0.06643653602915767;0.366328356714972;0.03776099576290815;-0.8339581010495206;0.0489446313857448;0.1182828591822167;0.4107594461162966;0.1687233225737668;0.5276717438305858;-0.23089669543597893;0.2022622522260184;0.0
1.6279670430957687;-1.1254653816884266;2.65027669340598;2.563383648175755;0.3613778439978733;0.8488587978327062;0.13059394613255126;0.40483225847231297;0.03777705439944788;-0.8442377191503763;0.0489446313857448;0.1182828591822167;0.44459445981139584;0.19766423369498687;0.6618023895721219;-0.7603479879780739;0.21299394322791865;0.0
1.527060223650551;-1.6665589403544485;2.331912926655671;2.890289540760405;0.4620666248017027;-0.12957635058643543;0.21350556575563748;0.5617286552084915;0.041128434729015374;-1.3397158391425787;0.06322014887325367;0.1182828591822167;0.40313245171405865;0.1625157736249878;0.5460661794610482;-0.8640879200742221;0.20183892825372426;60.0
1.4873176601725149;-1.699725731637767;2.2121138222610446;2.377202178072153;0.5111109000220658;-1.1749683641225834;0.2612343521213662;0.836748891393752;0.039868081200294336;-1.0572751247381689;0.060288569389211594;0.1182828591822167;0.42079975411681625;0.17707243306477302;0.5755671029891298;-1.184702869221747;0.21520153172775847;60.0
1.7240912514855289;-0.319480705482568;2.9724906434489373;2.3298814330939654;0.5512722242608751;-1.5270041263298917;0.3039010652415326;0.9939762383415444;0.04002093224105382;-0.887672156524953;0.0530233506678902;0.1182828591822167;0.8263152388056931;0.6827968738825096;0.6321212321318403;5.4541501546716304;0.3876104022585391;60.0
1.618647709015952;-0.2344933411116819;2.6200204059025896;2.505485024722958;0.5435945179434497;-1.7038573350848871;0.29549499993817147;0.9397570074747232;0.04035413706085516;-0.599499523980886;0.04461099214846528;0.1182828591822167;0.835930853081595;0.6987803911337231;0.8907878932533022;4.528209031720594;0.38539701236412927;60.0
1.481718278061714;-0.3367071641092012;2.1954890555421707;1.680400634383679;0.5184142506246537;-1.70809768659146;0.26875333525072126;0.8926038457136949;0.0399002973381032;-0.5475358619031006;0.04257163250739257;0.1182828591822167;0.8906803531485682;0.7933114914848581;0.9406662578930154;2.0190386025527776;0.3943882959110167;60.0
1.5729378281489759;-0.16246797394044468;2.474133411222017;1.3105570841353034;0.4725354495367465;-1.569079802333167;0.2232897510688951;0.8447350937626081;0.035730152863162626;0.7708939041095954;0.0418068726419903;0.1182828591822167;1.129667935745756;1.2761496450520773;1.1379017112983207;0.29582836371438237;0.449091368654177;60.0
1.3503724613816508;0.05199981451981191;1.8235057844579379;1.5126727261902175;0.476381848067714;-0.7478119306923197;0.22693966516841052;0.6719347740820141;0.03357057163272483;1.1231859061466416;0.036198633629040376;0.1152238197206076;1.1020617557047248;1.2145401133869802;1.4468767300408112;0.011029427660446345;0.41771435950427493;60.0
1.1147608829971325;-0.08685035910337749;1.2426918262605464;1.3899155217884047;0.4630996767754124;-0.1934924270847186;0.21446131062949148;0.40226344610963016;0.03325940981165674;0.8486337926391501;0.036198633629040376;0.1152238197206076;1.0195042468435984;1.0393889093321327;1.055251434580856;0.24706102993745718;0.36859891742721945;60.0
1.078858221541841;0.12248537632682428;1.163935062188424;0.9409857242134918;0.48261638895080683;0.5706262955853358;0.23291857888391646;0.3212816496575904;0.03339837632278919;0.5987890647569032;0.036198633629040376;0.1152238197206076;1.004214198880803;1.008446157233813;0.8080125305538988;0.29685432077667806;0.35773696815243095;60.0
1.0184509602973943;-0.44526196400850737;1.0372423585306847;0.9409897015561399;0.5296745012842906;0.5439446089327128;0.28055507731076196;0.5675524843424752;0.03774057370471329;1.3669884697814791;0.039512593045783556;0.1498929336188436;1.0047478508778556;1.0095182438436694;0.9097032805414682;-0.4375920092478819;0.33307177441864;60.0
1.0144311047255685;-0.4136812253935798;1.0290704662347372;0.9215174981818;0.5878927923930982;-0.38540845089608716;0.3456179353477544;0.7002759001351536;0.027759154038624036;0.2781519954446834;0.04180687264199036;0.0907515040277352;0.9985783548891911;0.9971587308532033;0.8514902433783642;-0.3896354229682168;0.32954286661609794;60.0
1.0154146323052087;-0.5644319887697583;1.031066875499522;1.1165912259638042;0.6424833089834118;-1.2840808151598397;0.41278480232227416;1.0414243458733934;0.026452633353459473;0.6485762398024317;0.03237483430202918;0.0907515040277352;1.0068586943861815;1.0137644304610458;1.1506370254877338;-0.6250814088810147;0.3229020099424578;60.0
0.9181811010872011;-0.07986033704984707;0.843056534393705;1.0678193150705622;0.6980953149988856;-1.712048006459826;0.4873370688233933;1.3082521174574988;0.02925362787126558;0.8926101226972479;0.035178953808504054;0.1091057407973895;0.912845030795111;0.8332860502473273;1.1957231609820433;-0.22482672422138864;0.27713101088823705;0.0
0.7535326837876807;-0.3993221528895434;0.5678115055362647;0.8839651972946445;0.7527005742584455;-1.6525912840377097;0.5665581544889936;1.4196096303707875;0.028024195248052438;1.3103414031393665;0.025746915468542873;0.1091057407973895;0.7329042523123793;0.5371486430575678;1.0839718986967304;-0.8522098374744321;0.21253292498773374;0.0
1.182847722042214;4.347053431712254;1.399128733540455;0.897613443450739;0.8304108305487289;-1.3199885660258923;0.6895821474926298;1.2343449890340104;0.035419282468933305;0.257275158707573;0.03288467421229735;0.1223615784643621;0.7678568678783347;0.5896041695479265;1.024344980021851;0.06888926410047702;0.23623186326906315;90.0
1.1979917334238952;3.764546166452093;1.435184193351989;0.9236274944688634;0.8267449693928848;-1.2558008948551926;0.6835072444164421;1.2683233727884953;0.03553041398879541;0.341757138244521;0.03288467421229735;0.1223615784643621;0.7446141059248806;0.5544501667423093;0.912593717736538;0.35868971209643646;0.2268505496915968;90.0
1.240789502939696;3.2496489909644475;1.5395585906053382;1.0938333660886865;0.8013005969136002;-0.9724063898719792;0.6420826466140921;1.2401573149945255;0.04496236900666289;-0.2722012065217939;0.051493830937085726;0.1478535739777708;0.8308113405894734;0.6902474836520779;1.0839718986967304;-0.7015037597075914;0.24484591231498487;90.0
1.1771598608619709;3.9217847593877018;1.3857053380245745;1.0938333660886865;0.7084651938180903;-1.0537563160020265;0.5019229308517041;1.1155701167683176;0.04490802786627897;-0.237140766571783;0.0499643112062812;0.1478535739777708;0.816586392271391;0.6668133360428059;1.0839718986967304;-0.7840949688456665;0.2412179082335141;90.0
1.176476242206177;3.868051608033002;1.3840963484755673;1.0938333660886865;0.6403774965557405;-0.23429091714253078;0.4100833380949975;0.8937523294613023;0.050689907671351314;-1.1645338844015738;0.08080962577750588;0.1478535739777708;0.8121545773225617;0.6595950574659888;1.0839718986967304;-0.754532571117326;0.2371410021931798;90.0
1.1786152881938488;4.071188426878373;1.389133997564269;1.0938333660886865;0.5041236964375416;-0.8708317933787024;0.2541407013098506;0.7957090765497263;0.050093476321463;-1.12314898145893;0.07889772611400024;0.1478535739777708;0.7953642790932591;0.6326043364575399;0.9971387398362839;-0.47111659923247656;0.22708812459254807;90.0
1.1882563759766889;4.572459427636887;1.4119532150492544;0.9155505981758791;0.4064612568862633;-1.1346525474495044;0.16521075334956092;0.6659278258019563;0.048771057704198574;-1.2333745615185114;0.07163250739267875;0.1478535739777708;0.7691421054019157;0.5915795783020916;0.8276691043588311;0.23744255143542684;0.2123868477078977;90.0
1.2729909561400754;3.5487921738597166;1.6205059744144235;0.9166904375524703;0.33602708541355814;-0.4836840844324974;0.11291420213153071;0.39808321027104765;0.04846484806770226;-0.9849856259420455;0.07163250739267875;0.1478535739777708;0.886138639146654;0.7852416877886839;0.9259788170310657;-0.007841352470901737;0.23898266219192973;90.0
1.3494266958159142;1.8656985272189244;1.8209524073806558;0.9769578440424498;0.2947726352052524;-0.4587945496887503;0.0868909064658488;0.3789403243424345;0.048351759512040994;-1.0022034668011215;0.07163250739267875;0.1478535739777708;0.9674927729348028;0.9360422656810741;0.9259788170310657;-0.19436742694627154;0.2646885489418465;90.0
1.5867707595798404;1.0296601226932631;2.5178414434575833;1.3271653602314695;0.26163489196688383;-1.0535843155123266;0.06845281669452298;0.3789403243424345;0.048266973204776985;-1.1764355016816914;0.0734169470786174;0.1478535739777708;1.1990084998726418;1.437621382766843;1.2935912245692451;-0.08173029418410226;0.31089324711707494;90.0
1.6379685066528078;0.6928466745325339;2.682940828786429;1.561232369785552;0.25113741658362965;-1.1919512257389397;0.06307000200829954;0.3789403243424345;0.04215985407285361;-1.5983919623958784;0.06984806770674017;0.11777301927194861;1.234398399857076;1.5237394095697099;1.438289294076827;-0.4632278761478429;0.3126915842003783;90.0
1.7238038907416202;0.4525872219353371;2.971499853735948;1.9440360502319862;0.33035530311188044;-0.13380908240248332;0.10913462629414239;0.5529692293956645;0.04505064283715141;-1.5581590740133993;0.0734169470786174;0.1254206179259711;1.2871143963536915;1.6566634693009277;1.5565391171991;-0.6687213047062812;0.3130669480338897;90.0
1.3188169019475262;-0.3660245629304673;1.7392780208624712;1.7571091646797132;0.4839103798231114;1.7099596349199677;0.23416925570054795;0.5333456003963541;0.05075844803938903;-1.2186023823445558;0.0766034465177935;0.1539716529009889;1.1285108954965357;1.273536841254393;1.3442815206745893;0.22465043954824118;0.2588923395852083;90.0
1.3133614059185101;-0.3478142893705675;1.7249181825562458;1.7571091646797132;0.5874817359958503;-0.07591280280210905;0.3451347901286979;0.617436688129041;0.055303139828057804;-1.3999321205850626;0.08807484449882742;0.1539716529009889;1.2198232441372994;1.4879687469376457;1.3442815206745893;-0.046183344916053984;0.2835589075398014;90.0
1.408571043120892;-1.114933918540535;1.984072383518678;2.1254768909599013;0.6341117286536401;-1.160262465843127;0.40209768441610766;0.9976080497158415;0.05007680574252052;-1.0890234856694716;0.08272152544101155;0.1529519730804526;1.3534386885570306;1.8317962836829749;1.8258600307965795;-1.0736359694858613;0.32954229313660965;90.0
2.01978949145493;1.1186567565206227;4.079549589791765;2.688905646241838;0.7339220907008318;-1.002874111850061;0.5386416352186799;1.3704061643890968;0.05145387185468389;-1.2215875554206261;0.08871214438666253;0.1529519730804526;1.5619119990858659;2.4395690928884055;2.8038981142730566;-1.2769306281839037;0.4086349309346205;90.0
2.1174126704435303;0.07044933824663531;4.483436416954802;2.9050173928204455;0.7971621530587163;-1.346282413227614;0.6354674982692082;1.132988668506919;0.04355990470481142;-1.0264088389443815;0.058631589680840146;0.1223615784643621;1.7396999271593032;3.0265558365580847;2.877967625355141;-1.6327736826422394;0.480076963483927;90.0
2.1846837646967328;-0.5698394820427318;4.772843151729489;3.482620330346741;0.841567666574293;-1.447735981442149;0.7082361374233005;1.1965739098856432;0.04308867100809316;-1.0037655159783816;0.058631589680840146;0.1223615784643621;1.849448099715453;3.4204582735411004;3.1629269552471095;-1.9115658726393376;0.539386227808344;90.0
2.2200055418633524;-0.6708469917621408;4.928424605903997;3.482620330346741;0.8190023299756283;-1.603930874777812;0.6707648165055079;1.636796893886217;0.03957889634502777;-0.2515555661846179;0.043081472417660804;0.1223615784643621;1.8665579768262868;3.484038680853841;3.1629269552471095;-1.978931469418563;0.539125344323732;90.0
2.2025132274081543;-0.869919765870008;4.8510645169078845;3.4267838640187955;0.8055482868233153;-1.5305139513268269;0.6489080424039783;1.445455895501337;0.0396698421046611;-0.26381825783992796;0.043081472417660804;0.1223615784643621;1.8605541642391465;3.461661798067629;3.455237987204632;-1.762872429526119;0.590564080379051;90.0
2.1847425563672322;-0.7687027203857825;4.773100037602029;3.4267838640187955;0.7666514574508148;-1.1120619602962014;0.5877544572114585;1.0043432081529322;0.040576824150706715;-0.1287082749886603;0.03849291322524718;0.1223615784643621;1.8700789450621442;3.4971952607647423;3.455237987204632;-1.7771714309306106;0.5962169775402478;90.0
1.9897297851303475;-0.44897581707553197;3.959024617834859;3.226449323380308;0.7053543738843264;-0.337397083495499;0.4975247927577501;0.9187244534971297;0.035010507109931706;0.5561889422454284;0.03849291322524718;0.1223615784643621;1.6464785068640795;2.710891473565369;3.1500595022070703;-1.8159894495691185;0.5576932299176678;90.0
1.912549588842612;-0.21634804654068046;3.6578459297820443;2.6815207729266595;0.6077800150037879;-0.32068930363579085;0.3693965466380046;0.9520474738055575;0.02588326890791736;-1.0938529921343907;0.034924033853369923;0.07647598654022619;1.5606215923964488;2.4355397546540276;2.5912489558140797;-1.096601078396432;0.5804972632957841;90.0
1.895738111988465;-0.2171786306360717;3.5938229892455906;2.6815207729266595;0.5291751233167163;-0.9167226462385353;0.280026311137262;0.6647842085312066;0.02912571836329699;-1.4503541036985885;0.047160191699806106;0.0825940654634444;1.5428604833223445;2.3804184709976584;2.5912489558140797;-1.1653752682735223;0.5759387786271306;90.0
1.7631564502428114;0.26613978099972163;3.108720668032831;2.374847895920035;0.477465930017753;-0.13956705408636608;0.22797371432771782;0.5038775142054002;0.027731473872616944;-0.7304793437810796;0.03849291322524715;0.0825940654634444;1.4052597658008354;1.9747550093786188;2.3166959237907925;-0.6930807501202941;0.5462543815755497;90.0
2.9054052698724395;3.1942197019110505;8.441379782202544;2.6815207729266595;0.4001197405947328;1.5976217370593853;0.16009580681359628;0.4263760809253725;0.028076426325525563;0.5063676504533722;0.0280411950647496;0.10298766187417151;2.626120770467053;6.896510301078468;2.5912489558140797;4.432900603728365;0.8102221973775294;90.0
2.8970130753265644;3.158418314033607;8.392684758613079;2.6815207729266595;0.28144997343368355;-0.6100909612044688;0.07921408754582117;0.3792572432104432;0.03904753658730038;0.8854897169615653;0.04461099214846528;0.1396961354134801;2.612368929147538;6.8244714219754545;2.5912489558140797;4.424993053906498;0.795622117167749;90.0
2.573076716777542;4.651118178134388;6.620723790422696;2.60071770884919;0.2718585239767803;-0.6319648877616323;0.07390705705883362;0.3792572432104432;0.04300905395949303;-0.45126140511617086;0.05863158968084008;0.1396961354134801;2.5405378716565328;6.454332677321105;2.396793020902047;4.732994196884941;0.7435452201829117;90.0
2.5499108924831084;3.397792508629713;6.502045559604002;2.9437302538079964;0.28743888741524704;-0.5686996801521004;0.08262111399851507;0.3792572432104432;0.04532883620182553;-0.6453297528461829;0.06041602936677875;0.1396961354134801;2.506531116709677;6.28269823903386;2.8612026280286944;3.5584407705751966;0.662180379467472;90.0
2.636694031440866;1.3137240054090853;6.952155415435885;2.778264916356173;0.3232631360802839;-0.8743477387872177;0.10449905514846015;0.428369959548377;0.04544320749060919;-0.6571135130322268;0.06194554909758328;0.1396961354134801;2.5871761023100492;6.693480184364219;2.829570243672179;1.4228498990327882;0.6041572404282551;90.0
2.674747663614926;0.794662370422166;7.154275064013505;3.1552034097056985;0.4559330079995063;1.2636928743115232;0.2078749077834779;0.5194681372242721;0.045566281582033304;-0.6662827457357543;0.06194554909758328;0.1396961354134801;2.624004149882584;6.885397778601023;3.1270929311620748;0.8817971120214748;0.5978467310277518;90.0
2.7648052508038963;-0.40019232488599527;7.644148074872795;3.351624589483204;0.6797579984898101;2.0316933996231126;0.4620709365108727;0.5994404502802496;0.04612672459494703;-1.0012773788768818;0.06194554909758328;0.1396961354134801;2.7331809217795295;7.470277951179599;3.356873121119701;-0.3990768813339931;0.5466532237513779;90.0
2.7757065588426424;-0.4101512682378711;7.704546900802063;3.351624589483204;0.947667841313224;1.033116439993078;0.898074337459266;0.8146583061693708;0.0481336228567796;-0.7515856070000925;0.06882838788620366;0.1396961354134801;2.6621701101514605;7.08714969538384;3.356873121119701;-0.3035872649251271;0.5257653334106889;90.0
2.7902638874757644;-0.4385314940808219;7.785572561751365;3.351624589483204;1.2197980439043885;0.14396303024812987;1.4879072679129726;1.3747360386650307;0.04969596008702141;-1.4358146775082952;0.0833588253288467;0.1396961354134801;2.6457659007471155;7.000077201556196;3.356873121119701;-0.28493611371244154;0.5181523321591276;90.0
2.691940246458202;-0.3485707286579927;7.246542290501446;3.351624589483204;1.4698529115413395;-0.44168433464877305;2.160467581566553;1.9214892540530681;0.05059508736124604;-1.4922859696594029;0.08488834505965123;0.1396961354134801;2.447203962812805;5.988807235606697;2.676875218139984;0.010638753745206486;0.46080342660435425;90.0
3.2137078052356927;-0.17211421746987854;10.327917857432812;3.547893162132174;1.6552462412889544;-1.0238916853444349;2.7398401193012116;2.4811104251410137;0.054457471756913366;-0.7515371922089804;0.08233914550831033;0.1764046089527887;2.473374648236909;6.117582150541051;2.676875218139984;0.06566090980053332;0.4746567413734826;90.0
3.236633341484821;-0.23977765045437108;10.4757953872112;3.547893162132174;1.7989311017165237;-1.486535570195624;3.236153108723026;3.056339305144947;0.0725776923366669;0.5452974537199591;0.08616294483532168;0.2620577138778422;2.42988349125997;5.90433378109774;2.426261225692976;0.06674982527297225;0.4558094319968825;90.0
2.715190526756516;0.07390890214334275;7.372259596588328;3.3726063549854697;1.8898595189015728;-1.7393350360715536;3.571569001182884;3.622816213942117;0.0779363938107416;-0.33937063649842497;0.09534006322014882;0.2620577138778422;1.860900921021518;3.4629522378587336;1.8763469035022937;0.42715964424192776;0.38138567420109704;90.0
2.704765624553342;0.05581103650716083;7.315757083765431;3.3726063549854697;1.9187643329218649;-1.7467203312710524;3.6816565652930895;3.5874338833012565;0.07021371665591085;-0.16527668171894258;0.07571122667482412;0.2391149179157743;1.7805254200223826;3.170270771345882;1.8242404127764615;0.18390413035274567;0.3429753201868531;90.0
2.7368615078345133;-0.08945810856706468;7.490410913066205;3.575044729904262;1.93813392070387;-1.4197039095272415;3.7563630945829547;3.1859226583518296;0.061906419766323446;0.470521097933774;0.058631589680840215;0.2284082798001426;1.6281741598994781;2.6509510949643715;1.6215099588726503;0.7062543210520005;0.2997115677335313;90.0
2.6768868838436153;0.33561866964979825;7.16572338889398;2.732982772861815;1.8333441032086955;-0.9983634355168546;3.3611506007700958;2.7023071185344825;0.06256127154545729;0.2524111990004801;0.06054348934434582;0.2284082798001426;1.6542205795605616;2.73644572584168;2.106172764811479;0.3332884990804233;0.30059638492969665;90.0
2.8689279136399928;0.2501190426000076;8.230747373662721;2.732982772861815;1.5876479679933413;-0.6369647662225216;2.5206260702733854;2.2198105742291925;0.0698012377429043;-0.3571379375571117;0.0708677475272764;0.2284082798001426;2.0582256412004196;4.236292790094879;2.106172764811479;0.7584826517359419;0.35955899912072653;90.0
2.8064667495293505;0.9658750235101782;7.876255616213839;1.9121016846150103;1.3257668872820927;-0.2628552233078248;1.757657839413649;1.7708076114243072;0.07613578720351759;-0.49909536349599964;0.08794738452126027;0.2426837972876516;2.05823941885215;4.236349505316835;2.106172764811479;0.757527469488841;0.35954037650618653;90.0
2.3057294384864044;3.916982824283232;5.316388243502829;1.7224650637100876;1.0663101530640613;0.2936245670982474;1.1370173425275019;1.3001107749341356;0.0681084289624617;0.601632057377749;0.07290710716834911;0.2426837972876516;1.8166125859599325;3.3000812874680334;1.616576788568434;3.5118262926470303;0.3339761825540016;90.0
2.2752495171201743;3.998250907099825;5.176760365155587;1.49515458146591;0.830542963503981;0.6741519637325534;0.6898016142259752;0.9559805237931656;0.06765413659131188;0.7475682940487439;0.07035790761700825;0.2426837972876516;1.5956313463287515;2.546039393386904;1.4635591136539263;4.853369678061304;0.278444539040682;90.0
2.2815607065040284;4.206727982313884;5.205519257463161;1.2391429088589403;0.6105605159615678;0.5369649032863416;0.3727841436512559;0.7109304186572576;0.05101478455532614;-0.7025187770625804;0.066789028245131;0.1600897318242072;1.541987763749516;2.3777262635532335;1.1192451075303067;5.315331021171409;0.26450273264114404;90.0
2.417503413847752;2.1567115448501633;5.844322755965535;1.9121016846150103;0.44889775291352413;0.4931029140456398;0.20150919257081135;0.5139028502888499;0.04908980013891412;-0.7738679250620085;0.066789028245131;0.1437748546956256;1.5359831590871713;2.3592442649994068;1.129217176510842;3.466516587713588;0.25071995534491165;90.0
2.490190040892121;0.37360949429996076;6.201046439758303;2.60426514757049;0.3503933916433685;-0.6410119121321846;0.12277552890734306;0.5026977822316008;0.06148072759033062;0.01004957778157897;0.07035790761700825;0.21413276231263378;1.730039999553034;2.993038400053462;1.2484268188621144;0.7485803738696991;0.26175518065273523;90.0
2.5270106128352423;-0.4552780943953691;6.385782637381947;3.6586133581596263;0.37048504197275844;-0.03105824687258847;0.13725916632555657;0.5026977822316008;0.05610701645111808;1.0813224922159559;0.029953094728255303;0.21413276231263378;1.678967508060015;2.818931893121257;1.7042661365475453;0.43459166571565344;0.24730493169897239;90.0
2.863156100155318;-0.22018808815320262;8.197662853856608;3.6586133581596263;0.4670191314547631;0.56123711419637;0.21810686914476127;0.5026977822316008;0.05494261174294735;1.5692447607447895;0.02307025593963491;0.21413276231263378;1.7891710436069785;3.201133023281685;1.7042661365475453;0.37712494900353843;0.26648931809040444;90.0
2.998851566997276;-0.4771121825055843;8.993110720882017;3.8199042121826707;0.5416598178043877;-0.7630459902916117;0.29339535822388246;0.7048444738936936;0.05549546088992368;1.4629638647448158;0.02651167533394516;0.21413276231263378;1.9515160352524006;3.808414835847249;1.8897088699442186;-0.019504656537979927;0.29980381574988085;90.0
2.970472102433005;-0.5401856913117784;8.823704511332759;3.751775285407538;0.5931187274334787;-1.532108539601958;0.3517898248323092;1.0216837581859242;0.05759714188806602;0.6241583327699655;0.044993372081166536;0.21413276231263378;1.9402188872422437;3.7644493304115305;1.8897088699442186;-0.009570184756994296;0.29633355969198044;90.0
3.0107347701646625;-0.7624438499195668;9.064523856278464;3.751775285407538;0.6938041200113595;-1.2657134333616735;0.481364156944737;1.200581670538015;0.06209798290757406;-0.07691036157634572;0.05315081064545732;0.21413276231263378;1.9399891495367347;3.7635579003202637;1.8897088699442186;-0.03231184974031231;0.29573923552960185;90.0
2.6451378462340607;-0.07484788269326385;6.996754225579765;3.6425961907129034;0.7791705569589467;-1.5175659106253054;0.6071067568317152;1.269062517488965;0.05591759119721105;0.9928731318776411;0.04448353217089834;0.21413276231263378;1.6537204602127373;2.7347913605262275;1.5539129642986946;1.2416008591652945;0.27018729254560364;90.0
2.6305256150790557;-0.0030839659625137806;6.9196650115870435;3.6425961907129034;0.8441015882904005;-1.4625044839752472;0.7125074913543767;1.4718735009137687;0.04405026391357597;0.7103928627097666;0.04448353217089834;0.1621290914652798;1.7241602172506139;2.9727284547496837;2.0890073250795895;0.8841145374973262;0.28708742166441403;90.0
2.5604834615335905;0.3757867233072274;6.556075556787037;2.8426804203879588;0.8755448604211151;-1.3009979398098197;0.76657880260983;1.4558856928803787;0.044110840722104645;0.7005669117757344;0.04448353217089834;0.1621290914652798;1.7858950545104353;3.1894211457248303;2.3834844299727846;0.6007121224003299;0.3018260591060681;90.0
2.893453858707076;-0.4311464058185013;8.37207523246687;3.856411186475186;0.8387270815808684;-0.9871060193946417;0.7034631173771607;1.1638666087678433;0.04609734350618089;0.45328532735914373;0.050091771183848305;0.1621290914652798;1.9866305355641494;3.946700884835899;2.5413470396058697;0.275558440562304;0.3519790602656242;90.0
3.0968627917083427;-0.7131788129769518;9.59055915066759;3.195732893083917;0.7754024348697427;-0.46590665910127693;0.6012489360019256;1.0914586296682742;0.049608390254920476;-0.6841745885860248;0.06678902824513103;0.1621290914652798;2.124426101645721;4.513186261353634;3.1939102923862785;-0.7647786584283154;0.36218047306200957;90.0
3.1263372400866087;-0.8954497567534746;9.773984538752355;4.4794936027425525;0.6572806310052884;-1.155721394510029;0.43201782789471016;1.0745747515572677;0.05113070651919232;-1.0761469594355864;0.08629040481288877;0.1621290914652798;2.1897086194224067;4.794823837972782;2.7690857891949774;-0.28368701410625036;0.4004643345944316;90.0
2.7283529224810663;-0.819449830971578;7.443909669610974;3.839802042311804;0.595414182087719;-1.3619973583762772;0.3545180482311874;1.0250038505695827;0.045085969491997516;-1.4081273185625167;0.08068216579993881;0.13153869684918928;1.8081854042289807;3.269534456066722;2.6027655366138367;-0.7298743013489716;0.3700273471311909;90.0
2.6211813684463534;-0.47622660247590903;6.870591766290298;3.4310590361255993;0.5743485129841072;-0.9603807549041815;0.32987621436705505;0.7269680905360416;0.04599481144149637;-1.5959350102073975;0.08068216579993881;0.13153869684918928;1.6425050621355866;2.697822879141027;1.722500860632307;0.48992640119636804;0.3489550531874669;90.0
2.4262245444559807;-0.24403314495206574;5.886565540120632;3.4199277164894446;0.5871695390331482;-0.19223280470131007;0.3447680675683997;0.6535911219415529;0.0473100869320486;-1.525741251591466;0.08527072499235243;0.13153869684918928;1.794604099596046;3.220603874286935;2.499668067705383;0.05493661830240626;0.39401539559882764;90.0
2.3637447982702797;-0.002655383933771797;5.587289471349805;3.187850382863708;0.5918109989568132;0.11495873357530463;0.3502402584862611;0.6158847276469461;0.0484581839819196;-1.5690582501547874;0.08527072499235243;0.13153869684918928;1.8960665284032467;3.5950682801311404;2.5526248219127106;-0.26464779808575956;0.4289930442977682;90.0
2.5376688439554194;0.007416411472344938;6.439763161582035;2.5246690827319047;0.6353813850371286;0.042684656118634874;0.40370950445169984;0.7229170536585015;0.04326851960844394;-1.3643543180973117;0.0764759865402264;0.113184460079535;1.9937682652475048;3.9751118955080447;2.1234982933227995;0.40035470769222264;0.49681044977077266;90.0
3.2497370889970476;1.647698348502256;10.560791147603004;2.8615765324401763;0.768567918076718;0.10170658228608367;0.5906966446967807;0.9446564681105398;0.04209759256225803;-1.3253938584634615;0.0697206077291731;0.113184460079535;1.875123349689033;3.5160875765490194;2.1234982933227995;1.391019648408377;0.4797946144604803;90.0
3.538060069479421;0.41651741464916653;12.517869055244727;3.983841326140732;0.9405483906634743;0.03593339559363926;0.8846312751796513;1.2275792039259255;0.03902460883420977;-0.7576478505669917;0.05544509024166412;0.113184460079535;1.8564682649840274;3.446474418892805;1.8578021718441349;1.9489781566422026;0.48759235448407523;90.0
3.598825727107381;0.22820217509618285;12.95154661408997;3.302241828139172;1.1657657195025264;-0.11752090725866411;1.3590097127672431;1.565724263108817;0.04404632979651722;1.1935873376122932;0.03390435403283365;0.1733455694911796;1.8910944647526182;3.576238274617992;2.139042887366432;2.2403071456872845;0.5205136633052264;90.0
3.5358567716183424;0.5480609073250554;12.502283109399288;2.9770609847426437;1.427999484233275;-0.2635692692158708;2.0391825269704995;1.9590916456591976;0.044026117200571944;1.5113266067073798;0.021158356276129275;0.1733455694911796;1.9045240259663883;3.62721176548322;1.584237442153634;2.7673706888772043;0.546959348717977;90.0
3.5514078433792995;0.4909784477388061;12.612497670016007;3.263839393428672;1.7254433945583463;-0.3897682718688398;2.977154907825029;2.4076813515770645;0.032868202389596965;1.4016211303597281;0.023962475782604305;0.12949933720811652;1.907050800582398;3.6368427560019656;1.584237442153634;2.7662185755987188;0.5487585393716865;90.0
3.5514078433792995;0.4909784477388061;12.612497670016007;3.263839393428672;1.7254433945583463;-0.3897682718688398;2.977154907825029;2.4076813515770645;0.032868202389596965;1.4016211303597281;0.023962475782604305;0.12949933720811652;1.907050800582398;3.6368427560019656;1.584237442153634;2.7662185755987188;0.5487585393716865;90.0
3.5514078433792995;0.4909784477388061;12.612497670016007;3.263839393428672;1.7254433945583463;-0.3897682718688398;2.977154907825029;2.4076813515770645;0.032868202389596965;1.4016211303597281;0.023962475782604305;0.12949933720811652;1.907050800582398;3.6368427560019656;1.584237442153634;2.7662185755987188;0.5487585393716865;90.0
3.5514078433792995;0.4909784477388061;12.612497670016007;3.263839393428672;1.7254433945583463;-0.3897682718688398;2.977154907825029;2.4076813515770645;0.032868202389596965;1.4016211303597281;0.023962475782604305;0.12949933720811652;1.907050800582398;3.6368427560019656;1.584237442153634;2.7662185755987188;0.5487585393716865;90.0
3.5514078433792995;0.4909784477388061;12.612497670016007;3.263839393428672;1.7254433945583463;-0.3897682718688398;2.977154907825029;2.4076813515770645;0.032868202389596965;1.4016211303597281;0.023962475782604305;0.12949933720811652;1.907050800582398;3.6368427560019656;1.584237442153634;2.7662185755987188;0.5487585393716865;90.0
3.5514078433792995;0.4909784477388061;12.612497670016007;3.263839393428672;1.7254433945583463;-0.3897682718688398;2.977154907825029;2.4076813515770645;0.032868202389596965;1.4016211303597281;0.023962475782604305;0.12949933720811652;1.907050800582398;3.6368427560019656;1.584237442153634;2.7662185755987188;0.5487585393716865;0.0
1.5243206305020107;0.5976736196086753;2.3235533845740477;1.1629971261956724;0.834826591850286;1.7828034609190644;0.696935438460364;0.8866357545447108;0.04161500689390176;0.46682278832301194;0.060670949321912936;0.1549913327215254;1.2007718751892134;1.4418530962454197;0.8370319935448576;0.2550762669986695;0.25883589576600047;30.0
1.5243206305020107;0.5976736196086753;2.3235533845740477;1.1629971261956724;0.834826591850286;1.7828034609190644;0.696935438460364;0.8866357545447108;0.04161500689390176;0.46682278832301194;0.060670949321912936;0.1549913327215254;1.2007718751892134;1.4418530962454197;0.8370319935448576;0.2550762669986695;0.25883589576600047;30.0
1.5243206305020107;0.5976736196086753;2.3235533845740477;1.1629971261956724;0.834826591850286;1.7828034609190644;0.696935438460364;0.8866357545447108;0.04161500689390176;0.46682278832301194;0.060670949321912936;0.1549913327215254;1.2007718751892134;1.4418530962454197;0.8370319935448576;0.2550762669986695;0.25883589576600047;30.0
1.5243206305020107;0.5976736196086753;2.3235533845740477;1.1629971261956724;0.834826591850286;1.7828034609190644;0.696935438460364;0.8866357545447108;0.04161500689390176;0.46682278832301194;0.060670949321912936;0.1549913327215254;1.2007718751892134;1.4418530962454197;0.8370319935448576;0.2550762669986695;0.25883589576600047;30.0
1.5243206305020107;0.5976736196086753;2.3235533845740477;1.1629971261956724;0.834826591850286;1.7828034609190644;0.696935438460364;0.8866357545447108;0.04161500689390176;0.46682278832301194;0.060670949321912936;0.1549913327215254;1.2007718751892134;1.4418530962454197;0.8370319935448576;0.2550762669986695;0.25883589576600047;30.0
1.5243206305020107;0.5976736196086753;2.3235533845740477;1.1629971261956724;0.834826591850286;1.7828034609190644;0.696935438460364;0.8866357545447108;0.04161500689390176;0.46682278832301194;0.060670949321912936;0.1549913327215254;1.2007718751892134;1.4418530962454197;0.8370319935448576;0.2550762669986695;0.25883589576600047;30.0
1.5243206305020107;0.5976736196086753;2.3235533845740477;1.1629971261956724;0.834826591850286;1.7828034609190644;0.696935438460364;0.8866357545447108;0.04161500689390176;0.46682278832301194;0.060670949321912936;0.1549913327215254;1.2007718751892134;1.4418530962454197;0.8370319935448576;0.2550762669986695;0.25883589576600047;30.0
1.6936146479975085;-0.9423313572846369;2.8683305759117244;2.3996140033541207;0.5985919566913201;-0.12632304159429472;0.3583123306155433;0.8866357545447108;0.04277097106571714;-0.08473049563936191;0.06525950851432649;0.1549913327215254;1.090473577689373;1.1891326236386612;0.9288503891732205;-0.06065341978179441;0.22189999698958554;30.0
1.7370574114579553;-1.5379217067797943;3.0173684507010123;2.975672677870635;0.5779936026470031;-0.5274685166732903;0.33407660470086165;0.8866357545447108;0.044783320671890385;-0.5403144611282995;0.06857346793106966;0.1549913327215254;0.918043878854637;0.8428045635024675;1.2026146685977048;-0.46331947469737744;0.1793744580552429;30.0
1.743632817864815;-1.5897885983813032;3.0402554035351956;2.975672677870635;0.6792059462262344;-0.4994600668587155;0.4613207173890745;0.9223152519979809;0.04513712985205567;-0.6454618274473148;0.06857346793106966;0.1549913327215254;0.9319624726195415;0.8685540503711295;1.2026146685977048;-0.5252695290404619;0.18301559074206508;30.0
1.6348497239823259;-1.4088659795852325;2.672733620005087;2.7712690397165547;0.8096662793870041;-1.1650079838073655;0.6555594839763942;1.3172757021201664;0.04569281682829232;-0.8091839463320828;0.06857346793106966;0.1549913327215254;0.9068720658486971;0.8224169438166835;1.2026146685977048;-0.49140877989576665;0.1773796544908772;0.0
1.430292582524007;-1.55746958507287;2.045736871623193;2.586816605462746;0.934670961385011;-1.4276223310898024;0.8736098060563807;1.6821748015569762;0.03939405063216264;-1.0719323118772808;0.06678902824513101;0.12440093810543501;0.9885363645089957;0.9772041439566621;1.2026146685977048;-0.4116040576272995;0.195564794349817;0.0
1.3166880469279425;-0.8652642381963063;1.7336674129229197;1.7272015612531657;1.0912041002145074;-0.9858648888716591;1.1907263883249528;1.7320942696615251;0.03990994477298789;-0.8120860539293321;0.06780870806566738;0.12440093810543501;0.9437691203895421;0.89070015260085;0.7968270535170383;0.01238285726483481;0.19815845967300166;0.0
1.3189368955389786;-0.8736034812803111;1.7395945344139987;1.7527526819555752;1.284504558085141;-0.4508332864262703;1.6499519597415035;1.753965128091763;0.04320933686541883;-0.8287581042374692;0.06933822779647189;0.13408789640053032;1.1749312008284243;1.3804633266801232;1.0669857608951805;0.17261873758103546;0.2590675413402113;0.0
1.3598801471265112;-0.9259591158896348;1.8492740145488218;1.7527526819555752;1.4116459614683172;-0.7778160282446689;1.9927443205298099;1.8687311805463613;0.04187323481615101;0.3655404761373916;0.028041195064749704;0.13408789640053032;1.4446827894034422;2.0871083619985105;1.6279740810033312;-0.1227547107380638;0.339162871776596;0.0
1.3409703237600767;-0.9464645476097044;1.7982014092052052;1.7527526819555752;1.4824139714505205;-1.1592765426447076;2.1975511827517042;2.2304467334943126;0.045025480013964544;1.8755261933938085;0.02001121647802588;0.1753849291322524;1.4355359035579;2.0607633304037964;1.2789571336811365;-0.11652848680418451;0.345643978559076;0.0
1.241729228431492;-0.7571487165931033;1.5418914767410685;1.5121567578757644;1.504798244686509;-1.4719205683185737;2.2644177572115987;2.5214222542540834;0.03429689106578869;2.4570541934635077;0.024982155603140647;0.1417354950545527;1.5031855001679895;2.2595666479152885;1.624325189012091;-0.5857474220297869;0.3757375883707111;0.0
1.1720031833975473;-0.4118497447922222;1.373591461893985;1.1356282151830137;1.4979765634847584;-1.66438489458673;2.2439337847496064;2.5730943933984407;0.025261486753621023;-0.08337594566201321;0.03556133374120525;0.0774956663607626;1.4999772815131265;2.2499318450555092;1.624325189012091;-0.505024123762141;0.38030219248579405;0.0
0.9873297824921063;0.21379038660852023;0.97482009939591;0.8479179443076474;1.4468525193329262;-1.7678999651066758;2.0933822127000354;2.5868080294730906;0.025724955300145524;-0.8561538550071437;0.04588559192413578;0.0774956663607626;1.2543662124653283;1.5734345949746134;1.1520258320925345;0.08331806927333471;0.3396669345746008;0.0
1.0529335292488526;0.39056635626944414;1.1086690170164444;1.1900808025195242;1.3451093825611815;-1.6589028721508823;1.809319251054123;2.46846351770216;0.02527333288624354;-1.0649072984744616;0.04512083205873355;0.0774956663607626;1.2368089549928847;1.5296963911505912;1.3327396733812087;-0.036779271598934175;0.37694556476012403;0.0
0.9678187350740824;0.39109640933277395;0.936673103960397;1.1900808025195242;1.223375716045978;-1.0821814920168846;1.4966481426110092;1.929838795076793;0.029288173896481026;-1.0743057823915927;0.0467778117671051;0.0968695829509533;1.0712018439273467;1.1474733904333478;1.3148508159894323;-0.20459250259856515;0.33802958063079164;0.0
1.0573305637836323;0.14034043219176687;1.117947921111014;1.1900808025195242;1.0623100199039577;-0.024652732840327946;1.128502578388347;1.191445583536212;0.031839584963561776;-1.0194969473342503;0.04767003161007445;0.0999286224125624;1.0862600067860968;1.1799608023429309;1.3148508159894323;-0.21104521471991688;0.34162057465732487;0.0
1.0653782486170489;-0.268600157471775;1.1350308126263302;1.3882981521982778;0.8544801225700736;1.7284658254924263;0.7301362798673678;0.8033325676265515;0.03200198590323296;-0.6828625941293871;0.04065973284388702;0.0999286224125624;1.059710878164554;1.1229871453002902;1.3394998342003608;-0.49860196578183097;0.3499423895440224;0.0
1.1332875188543292;-0.9651247982489982;1.2843406003910016;1.5658501295868934;0.589097406934022;3.211646860782395;0.3470357548563887;0.5267586688419648;0.03464524953922948;0.24622359150081935;0.0411695727541551;0.1264402977465075;1.1121752379709715;1.2369337599557872;1.540825075898761;-1.0927459239439283;0.3864907353408287;0.0
1.2809552050858217;-1.254912785563176;1.6408462374364594;2.083178026156969;0.3559301590117911;1.649862249263354;0.1266862780941589;0.31653472259371773;0.035042552935719964;0.8922024667281007;0.03250229427959607;0.1264402977465075;1.2292654056971712;1.511093437643831;2.020451658286948;-1.3465060511808606;0.4579672162009208;0.0
