acc_X_std;acc_X_kurt;acc_X_var;acc_X_iqr;acc_Y_std;acc_Y_kurt;acc_Y_var;acc_Y_iqr;acc_Z_std;acc_Z_kurt;acc_Z_iqr;acc_Z_range;acc_std;acc_var;acc_iqr;acc_kurt;acc_cv;class
2.4612891529781376;-1.0840394265572293;6.057944294567838;3.8495265771277216;1.3720093768123036;-0.751981088051397;1.8824097300608855;2.015940722905612;0.06359709099323106;2.910411200913767;0.056337310084633406;0.2416641174671152;2.0629901245563973;4.255928254017219;3.482350798565327;-1.5319748446627601;0.4993538378132872;90.0
2.4612891529781376;-1.0840394265572293;6.057944294567838;3.8495265771277216;1.3720093768123036;-0.751981088051397;1.8824097300608855;2.015940722905612;0.06359709099323106;2.910411200913767;0.056337310084633406;0.2416641174671152;2.0629901245563973;4.255928254017219;3.482350798565327;-1.5319748446627601;0.4993538378132872;90.0
2.4612891529781376;-1.0840394265572293;6.057944294567838;3.8495265771277216;1.3720093768123036;-0.751981088051397;1.8824097300608855;2.015940722905612;0.06359709099323106;2.910411200913767;0.056337310084633406;0.2416641174671152;2.0629901245563973;4.255928254017219;3.482350798565327;-1.5319748446627601;0.4993538378132872;90.0
2.4612891529781376;-1.0840394265572293;6.057944294567838;3.8495265771277216;1.3720093768123036;-0.751981088051397;1.8824097300608855;2.015940722905612;0.06359709099323106;2.910411200913767;0.056337310084633406;0.2416641174671152;2.0629901245563973;4.255928254017219;3.482350798565327;-1.5319748446627601;0.4993538378132872;90.0
2.4612891529781376;-1.0840394265572293;6.057944294567838;3.8495265771277216;1.3720093768123036;-0.751981088051397;1.8824097300608855;2.015940722905612;0.06359709099323106;2.910411200913767;0.056337310084633406;0.2416641174671152;2.0629901245563973;4.255928254017219;3.482350798565327;-1.5319748446627601;0.4993538378132872;90.0
2.4612891529781376;-1.0840394265572293;6.057944294567838;3.8495265771277216;1.3720093768123036;-0.751981088051397;1.8824097300608855;2.015940722905612;0.06359709099323106;2.910411200913767;0.056337310084633406;0.2416641174671152;2.0629901245563973;4.255928254017219;3.482350798565327;-1.5319748446627601;0.4993538378132872;90.0
2.4612891529781376;-1.0840394265572293;6.057944294567838;3.8495265771277216;1.3720093768123036;-0.751981088051397;1.8824097300608855;2.015940722905612;0.06359709099323106;2.910411200913767;0.056337310084633406;0.2416641174671152;2.0629901245563973;4.255928254017219;3.482350798565327;-1.5319748446627601;0.4993538378132872;90.0
2.5155376381225665;-1.1713613808321637;6.327929608811261;3.8495265771277216;1.1814895185988938;-0.6509073917847186;1.3959174825590457;1.7215192356924907;0.06252060626793625;3.075650153708768;0.0398949729784847;0.2416641174671152;2.1087007386185346;4.446618805050353;3.482350798565327;-1.6451170200763638;0.5011141117873662;90.0
2.26405589105654;-0.23075662404534367;5.125949077827824;3.018271270842614;0.9995693163384091;-0.5088456677364687;0.9991388181652344;1.4389988040994013;0.06184518783738656;2.42934078371587;0.06487712858162528;0.2416641174671152;2.039304049175834;4.158761004984952;2.867035610788302;-1.0850979924251956;0.44642189008151784;90.0
2.2338681355543484;0.31336429990464076;4.990166847045061;2.8415697098054045;0.8342427565226284;-0.33134549212605674;0.6959609768104734;1.168379428126343;0.06301304539222226;2.2331105569414818;0.06921076781890478;0.2416641174671152;2.0060460840771186;4.024220891441143;2.841916050169653;-0.5847327189234426;0.4262087198581277;90.0
1.6350839991967385;-0.10091848997043813;2.6734996844292;1.4767466905645845;0.6693357627943688;-0.020428349277406395;0.4480103633555196;0.8787312608263662;0.06420119283975464;2.0943933749905037;0.08131946568777393;0.2416641174671152;1.5899072997957393;2.5278052219437788;1.3965200740104704;-0.03571337479786886;0.31422372025520523;90.0
1.3656796111171792;1.4216863489458547;1.8650808002211698;1.2292943795465394;0.5187966148977095;0.4340947413849499;0.2691499276293222;0.6071055959423339;0.06303110585451711;2.311586129368119;0.07724074640562856;0.2416641174671152;1.2676733985125703;1.6069958452964102;1.0879908637358486;0.9612937343825915;0.23992705007653217;90.0
1.564836858423538;0.7796403243284759;2.4487143934808477;1.4237931082091109;0.38294242694983965;1.0524772742103905;0.14664490235823327;0.38522441103613203;0.06933175225459226;0.22239887978083553;0.08284898541857848;0.2416641174671152;1.4758323004978877;2.1780809791928877;1.309690897913434;0.5088608114689787;0.27032358721187894;90.0
1.4610990043208723;2.1682623721527747;2.1348103004274446;1.3191064151051854;0.27784890452423056;0.6247165637277318;0.07720001374531497;0.3482144827153857;0.06261527786162724;0.6046708036047076;0.07354440705618429;0.1957785255429794;1.3431561501195894;1.8040684436040773;1.2465904768228455;1.986073199618473;0.24056331109059417;90.0
1.4128340378128172;2.2215238754935376;1.9961000184024689;1.2046710941499663;0.2228157918270358;-1.0790231621286674;0.049646877087508944;0.3482144827153857;0.06163039700417695;0.3224136023015755;0.07354440705618429;0.1957785255429794;1.3145798125812802;1.7281200836462338;1.1954981267125824;1.913600431914305;0.24442345236508567;90.0
2.0412031249454974;2.3109826295349762;4.166510197287264;1.3637791303665177;0.29411462672218236;2.163908764796121;0.08650341365192867;0.3482144827153857;0.06122575384995604;-0.1564697332832294;0.07966248597940236;0.1957785255429794;1.8229159032924018;3.3230223904763534;1.2685263041054018;1.8609191110301544;0.37127047414519065;90.0
2.7032644914406756;0.8163937844877303;7.307638910684014;1.906795761142734;0.41806088817606557;1.4142345984823446;0.17477490622256078;0.41369912251187047;0.06098691024134878;0.06352306379000273;0.07660344651779331;0.1957785255429794;2.0021103023111966;4.008445662620631;1.875633484639843;0.12349679020117794;0.43754318459689157;90.0
2.817790504948343;-0.3974756541199977;7.93994332977704;3.413863656668408;0.581675119644175;0.7819432406973862;0.33834594481306524;0.5816973356585406;0.05768241576377948;-0.21637674395327874;0.07953502600183529;0.2059753237483429;2.2694853598659885;5.150563798646055;2.91045307083233;-0.6088880175537352;0.5512261678028566;90.0
3.128909238797278;-1.074836591125692;9.790073024630962;4.693364585483852;0.6944464267518706;-0.6479757902887792;0.4822558396284412;0.9891155726448455;0.05649088115759276;0.03425899617606976;0.07647598654022628;0.2059753237483429;2.366035147342169;5.598122318458479;3.550062981765571;-0.9542478941699408;0.5883647984320813;90.0
3.318392627890456;-1.5656558594410925;11.011729632837726;5.236968618879889;0.7052177093666835;-1.3888621022915313;0.49733201760439205;1.2167047217608147;0.05846286126673026;-0.3475722037343795;0.08055470582237165;0.2059753237483429;2.397799658454467;5.749443202084358;3.5490678830155087;-1.1030880215558403;0.6537269444834486;90.0
3.4213037511514397;-1.564629082941013;11.705319357642914;6.084044186019092;0.6746161350071415;-1.415864083013084;0.4551069296119737;1.1208940012802389;0.05719309197443256;0.08393497180234198;0.06487712858162525;0.2059753237483429;2.287544921573902;5.232861768218549;3.4328309992191075;-0.523161261759977;0.6841924249252463;90.0
3.5497355580802883;-1.332782535138269;12.600622532299575;5.992219042502173;0.6155543523277636;-1.212233792605138;0.3789071606696525;0.9143227156318019;0.05700078117008246;-0.02444764690290021;0.06908330784133775;0.2059753237483429;2.2290196106026507;4.9685284244511925;3.2076939816217633;0.11478260261255854;0.7066630460028308;90.0
3.5974493142355617;-0.6925443185446688;12.941641568493912;6.14000720404907;0.5656144689935102;-0.928681198615872;0.31991972753481057;0.7971831821372788;0.05700078117008246;-0.024447646902899578;0.06908330784133775;0.2059753237483429;2.148912193033948;4.617823613369973;2.988245615623966;1.0278822835926014;0.714226891929073;90.0
3.608825250211213;0.34795844927157177;13.023619686562023;3.7086794481592604;0.5117072778800595;-0.7651566895051606;0.26184433823542047;0.6902239830031061;0.05597419056463109;0.24333219365694844;0.05837666972570607;0.2059753237483429;2.105544574649362;4.433317955835363;2.4819872029820473;1.6131467287446413;0.7159542616176635;0.0
2.788284927793522;0.7051937968850073;7.774532838560527;2.715789888364872;0.4565125857240022;-0.6220902697700934;0.20840374092441447;0.6521902638279153;0.04641476114782523;0.7694359406945996;0.04703273172223918;0.1753849291322524;1.4395487284658781;2.0723005416277265;2.1270296741686803;-1.1717624110372369;0.5587073620431159;0.0
2.220912530995173;3.6684767099981626;4.932452470331384;2.073213611644144;0.41939456034633243;-0.4788507773913453;0.17589179724809348;0.5285526122903933;0.04700005724854873;0.6625767240462418;0.04703273172223918;0.1753849291322524;1.2653756204775821;1.601175460899026;1.886156078788226;-1.1547589758625147;0.5196448628044162;0.0
1.276860109822588;-0.125094861316461;1.6303717400561517;1.680518359893021;0.3813484155342954;-0.1551381172589174;0.14542661403051763;0.39230948825902234;0.0448579231981536;1.1903818220604427;0.044356072193331174;0.1753849291322524;1.1052616076748083;1.221603221399902;1.7314352957592865;-1.1373826147183181;0.4836737735985403;0.0
1.1367856699612768;1.9592577460466474;1.292281659429309;1.4544089921024843;0.37869776333210403;-0.2519577190338541;0.14341199595273826;0.39230948825902234;0.03751889778970017;1.9991952817642427;0.037090853472009674;0.133578056490262;0.9994883449759328;0.9989769517427292;1.4850541549465925;-0.2743734753152757;0.4094575599732158;0.0
1.1238289279409293;2.540729535523354;1.2629914592768583;1.114403899649802;0.3768688975741814;-0.11609123788529006;0.14203016595877885;0.35886002055659605;0.03679492757225985;2.2088781262925257;0.03390435403283362;0.133578056490262;0.9797703463292191;0.9599499315460779;1.1170260180832332;0.18237111951817725;0.3940237277168642;0.0
0.7572499766739152;-1.0042030580760606;0.5734275271726452;1.0804389611262164;0.32748782194919623;1.6538924713714374;0.10724827352502846;0.28290194916873;0.024159838213759614;0.28656997524762967;0.023707555827470098;0.0836137452839808;0.7885975892974328;0.6218861578457225;1.0633519374700118;-0.9277197762685098;0.3040095485173978;0.0
0.6740575035861192;-0.6003612015244395;0.454353518140751;0.8731136251574378;0.23175280209318525;-0.41566449760475926;0.05370936127804309;0.27774744473399127;0.02921304222984936;0.37655986770993066;0.024344855715305373;0.1070663811563169;0.693609234329012;0.48109376994647823;0.8846591541765134;-0.5462434594769705;0.25329296114667194;0.0
0.5672062212538463;0.05539974847888579;0.3217228974290673;0.6615385871159125;0.32623015774128117;2.976516761554459;0.10642611581990118;0.27774744473399127;0.02502936656371786;0.44669169623195887;0.025364535535841674;0.09381054348934431;0.5805219936538264;0.3370057851158132;0.6635867482982274;-0.11956020370446052;0.20455435851428017;0.0
0.6834579940953676;0.6790258767342304;0.4671148296928635;0.6284362787883286;0.5074776132591513;2.5119519580944156;0.25753352795920476;0.30398066090969167;0.023727565535377283;1.2455476360824471;0.02383501580503715;0.09381054348934431;0.6908632675448239;0.47729205444271083;0.7321299541679815;0.3004362717883314;0.22974903007035435;0.0
0.9918522108321752;1.7932568019349118;0.9837708081326738;0.903027717135422;0.7475233952319881;1.8056094001689695;0.558791226419159;0.4002232261040603;0.027515435936460098;0.5294399299388564;0.016952177016416846;0.09890894259202611;1.0197716912077517;1.0399343021887182;0.9730035495484359;1.8675678950324002;0.31399542782003237;0.0
1.1943078998202439;-0.0623868831790004;1.4263713595730418;1.2265062340888306;0.9696482672379583;0.655143621764815;0.940217762157575;0.9425965203044637;0.03222858342593981;1.234615057329769;0.016952177016416846;0.1213418986438258;1.263211047847682;1.5957021514044383;1.3022465051078078;0.06745817938844235;0.3653921282610317;0.0
1.2175231700775908;-0.4679827487623596;1.4823626696757861;1.6368810518778805;1.1101712305732396;-0.7107867781012664;1.2324801611925011;1.4614009128324341;0.03896400867755859;-0.19324484018726606;0.030717854593657574;0.12847965738758033;1.314340043681853;1.7274897504256155;1.7852674975404281;-0.6569073943375302;0.3718741767620298;0.0
1.2824350006743337;-1.1801991773798401;1.6446395309545785;1.803949937268066;1.2739474902373364;-1.1941587537239617;1.6229422078820084;2.1037412687987747;0.04735558050103312;-0.7494147018130743;0.06385744876108895;0.1519322932599163;1.43520045986974;2.0598003600103136;2.3006545307193895;-1.4709029192504584;0.3878930494917205;0.0
1.291522330685154;-1.3442606705006217;1.6680299306584123;1.803949937268066;1.4267440165388254;-1.551432294023032;2.0355984887293403;2.554885625440753;0.0502829305543121;-1.374482544041934;0.07953502600183532;0.1519322932599163;1.4888069227850573;2.2165460533327117;2.6671549432675214;-1.825129125875692;0.3846481113844917;0.0
1.2510275617766065;-1.0701751033042985;1.5650699603247207;1.702328959666048;1.529593204110146;-1.677839929969727;2.339655370059943;2.7990792688501864;0.050387445214139084;-1.4262970687331467;0.0787702661364331;0.1519322932599163;1.483694097694455;2.201348175533363;2.6387941985098053;-1.7022692859501218;0.3625759849749816;30.0
1.2301299725416153;-0.6521653645375712;1.5132197493452353;1.808812968090988;1.599461150585083;-1.6027653253814953;2.558275972230958;2.8284318442966887;0.05138081707582256;-1.3659797646346425;0.08374120526154782;0.1519322932599163;1.5042669699152098;2.262819116777887;2.5637770119164;-1.1862939645246242;0.3439392729248111;30.0
1.338322410737561;0.3750617775522282;1.7911068750823973;1.1785266860819927;1.5935608979879208;-1.312406500743437;2.5394363355960685;2.58640817005822;0.051779774168543166;-0.8440255781645956;0.07800550627103084;0.1519322932599163;1.6227736326055984;2.6333942626799693;1.6792825233579576;0.11631419992270998;0.337175168174137;30.0
1.1816688366210464;-0.40636159291633855;1.3963412394413373;1.2951213859937143;1.488471445009161;-0.8669397999579341;2.2155472426076597;2.2278529671492113;0.05435469660420866;0.11472793359653918;0.050474151116549335;0.1804833282349342;1.474027904151558;2.172758262217435;1.2393037237944835;-0.008252258723470303;0.2786001305883563;30.0
1.2314848356008674;-0.37335655074228763;1.5165549003148955;1.2951213859937143;1.3080760520785664;-0.7382519038368962;1.7110629580214485;1.843560543528679;0.04515518800229405;1.2702307195043607;0.034286733965534756;0.16110941164474352;1.3106468016733295;1.717795038736528;1.0005497219291026;1.1053513761945237;0.24076996228161923;30.0
1.273442422499018;-0.26258403485630877;1.6216556034201672;1.2951213859937143;1.153434312187104;-0.5350027594136678;1.3304107125305376;1.6960192292299574;0.0327748759282619;1.585268395526436;0.032757214234730256;0.1244009381054348;1.0106064788416482;1.0213254550767148;0.8805851343229367;0.6567923020164781;0.1793471106935798;30.0
1.2878111752426928;-0.43126793142955333;1.6584576230799657;1.4741114365336543;0.9723907271044308;-0.7289842658811557;0.9455437261586834;1.3410524449561847;0.02306486712270063;-0.1694960543624423;0.030080554705822382;0.0815743856429081;0.92157076649982;0.8492926776670657;0.697296896260994;0.9106234370804891;0.16003379726157918;30.0
1.2720493724954358;-0.2398509131815495;1.6181096060660318;1.0999718107598655;0.7906454187320252;-0.4728949941575018;0.6251201781619394;0.9445196383659873;0.024723054320519848;0.2824069077437369;0.030080554705822382;0.09177118384827171;0.9275086542016576;0.86027230361897;0.697296896260994;0.9621794381262115;0.16166878124556783;30.0
1.2407617088519602;0.14476515030691342;1.5394896181532365;0.9596534499106681;0.655075685170638;0.28741545257937245;0.42912415330178083;0.7503619888476503;0.030519888506982305;0.09483676212301412;0.03199245436932803;0.1070663811563169;0.9281028134912163;0.8613748324103113;0.7376027864198846;0.9126513911723502;0.16164616314891458;30.0
1.239719235115365;0.12589990617718172;1.5369037819150257;0.9596534499106681;0.5718168104818491;-0.9392421518144349;0.3269744647496349;0.7503619888476503;0.035083102294215684;-0.8083079729453415;0.04473845212603238;0.1080860609768533;0.8907247718791661;0.7933906192391924;0.6873727417806146;1.1668271455681085;0.15406531447327584;30.0
1.2802856835982512;-0.04864107778961966;1.6391314316266417;1.13213964506639;0.6701918856017322;0.18606634434519706;0.4491571635264053;0.7503619888476503;0.03478943544143515;-0.7474451482942496;0.040914652799021095;0.1080860609768533;1.0499616718762224;1.102419512409112;0.7449606636594002;0.7836789515990896;0.18609085267077047;30.0
1.4122834063486767;-0.44875844635585305;1.9945444198478215;1.7327782208770723;0.8597702525071304;0.16745663095979038;0.7392048870961747;0.8590025631977003;0.037196058177714125;-1.2964040693030705;0.06207300907515045;0.1080860609768533;1.3378047781711904;1.7897216244976677;0.9208910244818274;0.7252652376285981;0.24603577202735322;30.0
1.6347346925781256;-0.6003656716829697;2.6723575151184993;2.1856386810678847;1.0941717880952195;-0.3872800707051959;1.1972119018634901;1.4211900584224249;0.03741893621269037;-1.3580671783266378;0.06207300907515045;0.1080860609768533;1.7257355026235746;2.978163025015441;1.2613627856198715;0.3548429811320438;0.3359546245402724;30.0
1.7996678563719746;-0.6549707233402576;3.2388043932584982;2.2142085499921333;1.3060682207518624;-1.0396741812117694;1.7058141972579357;1.9223832821437097;0.03744910519586983;-1.3517550159928033;0.06207300907515045;0.1080860609768533;2.029724490729757;4.119781508268171;2.233147494907894;-0.4752661605872744;0.428433461900694;30.0
1.7122302955422655;-0.3632016761066072;2.9317325849727536;2.04323509847604;1.4715103057262076;-1.4872625112482887;2.1653425798584367;2.4394683567396362;0.03808563901143727;-1.2452969934336138;0.0651320485367595;0.1080860609768533;2.1125350058405803;4.462804150901861;2.991482577672091;-0.9086110269683741;0.5072772436349763;30.0
1.5258931373424962;-1.279927242327978;2.328349866588926;2.627265593159014;1.5819000134941146;-1.6610077259579574;2.50240765269268;2.890339724228446;0.03214978825579426;-0.9976675552700038;0.0452482920363006;0.0938105434893444;2.0873862919161907;4.357181531679625;3.699907822924483;-1.6657770982067706;0.5835633400289456;30.0
1.6329769642961172;-1.5691376177321188;2.6666137659217624;2.910117264142853;1.5963570805918028;-1.5397058117973434;2.5483559287555835;2.7731586188921122;0.02748450128155289;-1.0165186852468726;0.039894972978484745;0.0805547058223718;2.2053241021131287;4.863454395361077;4.1534411354122796;-1.9616067749862216;0.6856993781452336;30.0
1.7659606999629989;-1.691159278776228;3.1186171938138045;3.2314905297589904;1.493662267074142;-1.1687703670107181;2.2310269680810655;2.4512240710242805;0.028431151612338494;-0.4031709670591176;0.03938513306821657;0.1009483022330987;2.2799603416866283;5.1982191596638065;4.5605312866826795;-1.859012955791278;0.8090014125763654;30.0
1.97948373285044;-0.836870831187284;3.918355848619512;2.8475534303214727;1.2910504975771315;-0.8346751816701025;1.666811387294159;1.9652023897037014;0.043998130692537094;2.8698311686066846;0.03976751300091767;0.17079636993983882;2.095939197721794;4.392961120546678;3.498686460878811;-1.2922280697385358;0.8496584689338124;30.0
1.9335019312643513;-0.24926059242422727;3.7384297182029766;2.1639265022924947;1.073034598808163;-0.3223272014657728;1.1514032502393956;1.4725172430706162;0.05821417116939779;0.7567337024790769;0.047160191699806224;0.1937391659019067;1.955002814324011;3.822036004014804;2.49588832638021;-0.15032189146991692;0.9534038052154064;30.0
1.6348729727048021;0.8503394295793568;2.6728096368806367;1.4965181899325564;0.8726717854070727;0.2703143272306344;0.7615560450455678;1.0041424882530618;0.05859987564421677;0.43844593459755415;0.0632201488732537;0.1937391659019067;1.5997942496103976;2.559341641086495;1.5282355886207954;1.1994055640731283;1.014859218253327;30.0
1.2210756692132017;1.180471555956133;1.491025789944468;1.0768941559443639;0.6806286290667156;1.3460758920755818;0.4632553307052368;0.5802307050768585;0.05892219697923718;0.17839695234975528;0.0632201488732537;0.1937391659019067;1.1645558097912052;1.3561902341184497;1.2525555596084312;1.507839584217782;1.0145594004629415;30.0
0.9719236471535676;0.8533038028136022;0.9446355758962927;0.8890939027212764;0.49975727846989637;2.621387871644907;0.24975733738363753;0.3146679989104547;0.05407836375739596;0.5458334556317166;0.05786682981543785;0.1723258896706433;0.7930064402847198;0.6288592143330428;0.9659597955414465;1.6132326541759123;0.8917386436434511;0.0
0.8195945824740714;-0.19893948324133376;0.6717352796208473;0.8971902245887103;0.3512466708169226;1.7458097110542894;0.12337422375997159;0.3345797005748052;0.05402398830051978;0.5389460518939586;0.05786682981543785;0.1723258896706433;0.531255759889341;0.2822326824156012;0.6804327195915054;-0.6795803959518543;0.7189968801736727;0.0
0.732926246693772;-0.17463620203037195;0.53718088309262;1.0068434252207084;0.25060782464917175;0.09294759639888703;0.06280428177539;0.34451423514906443;0.05288521908705754;0.6673058385397723;0.0418068726419903;0.1723258896706433;0.4440551733829048;0.19718499700812162;0.4559889862022819;0.37855875976301834;0.6894435417335125;0.0
0.6733111598722323;-0.6948404131720926;0.45334791800849084;0.9484769379410858;0.2206542876077084;-1.2597019162980325;0.048688314639665296;0.32644698717905507;0.05771598166476229;0.4135369484713237;0.04257163250739257;0.2018966044661975;0.4202613652893735;0.17661961515488825;0.4559889862022819;1.1809753397558558;0.6730775227984869;0.0
0.8182045555474018;0.32459698162225675;0.6694586947185214;1.0133733539888468;0.2064126821683797;-1.3232492161949119;0.042606195359944546;0.29123977266628587;0.060106142962923687;0.10341591682015279;0.0680636280208014;0.2018966044661975;0.6325967603271944;0.40017866117646184;0.6213630551240268;1.8995003450050478;0.8424172165954728;0.0
0.776267773717197;0.35160356051397407;0.6025916565118534;0.8711826127928282;0.2023964167044964;-1.0483058058585306;0.04096430949482015;0.29123977266628587;0.05844008697106879;0.2876472480266159;0.04512083205873345;0.2018966044661975;0.6278022476276592;0.39413566212634077;0.6445152673718862;1.4801972570611794;0.7855593032042756;0.0
0.6806320023047233;0.8337038704604406;0.4632599225613369;0.7925041343852758;0.19751161780720278;-0.47741487839621755;0.03901083916881854;0.1657023617288379;0.05543373710568931;0.7381599068330047;0.0333945141225654;0.2018966044661975;0.624293673037265;0.38974259019435953;0.6445152673718862;1.4004235794465898;0.7633546737228841;30.0
0.7180437772390383;-0.2749780857848672;0.5155868660317058;0.6974484403397484;0.18499810712901382;0.7091415451440083;0.034224299641318075;0.11268420985654157;0.05784889313937995;-0.003352123724707528;0.0441011522381971;0.2018966044661975;0.6833469006008391;0.4669629865607732;0.6535766405331882;-0.21493125704922894;0.7076356659321658;30.0
0.8541257086873233;-0.3978553805696581;0.7295307262406223;0.8159733077927863;0.1698834491773982;0.7497969839127974;0.028860386304409638;0.11268420985654157;0.052473727725273235;1.1057092669592463;0.03581625369633925;0.2018966044661975;0.8200487952046955;0.6724800265166727;0.7621120355970261;-0.2929785811715154;0.7795956903874843;30.0
0.8185827151210775;-0.18894233781648748;0.6700776614949951;0.6062115347688282;0.1305132743897024;1.5277146090051732;0.01703371479192175;0.11268420985654157;0.04354959626252564;0.37882627049313367;0.03581625369633925;0.1519322932599163;0.8020761584322316;0.6433261639254062;0.6032876690069822;-0.18661054817728642;0.7443614534528585;30.0
0.7714204104937191;0.048182369976478234;0.5950894497262982;0.6116100564382794;0.15901947103066835;0.9032420974393928;0.025287192166873574;0.1708512863610395;0.04366393767141985;0.35283543031269965;0.038110533292546;0.1519322932599163;0.751711453857426;0.5650701098604451;0.6521527832706535;-0.024907101711919368;0.6476855930885115;0.0
0.7019476461080277;0.07460769758205035;0.49273049787660095;0.6116100564382794;0.3180768383606399;5.72451432375477;0.10117287510150062;0.2256469730292202;0.049009344549858086;-0.6426404120867851;0.050091771183848124;0.1519322932599163;0.6703843007011012;0.4494151106265045;0.5954428361336642;0.12250314095815737;0.535527811208103;0.0
0.9564632247736063;1.4543018737632798;0.9148219003443263;0.6957421435545433;0.45876680061026986;1.973751080503285;0.21046697734218311;0.26379901232863356;0.05065732288303846;-0.8041479738540039;0.06054348934434578;0.1519322932599163;0.6623353676512338;0.438688139241695;0.8511165911825973;-0.42349801661349473;0.49779959835470755;0.0
0.9664804505053088;1.1784946338577849;0.9340844612089448;0.8037515089021465;0.6149967283912758;0.45083551841776737;0.37822097593197274;0.5259282777486544;0.051915195311583846;-0.8310019247036273;0.0647496686040582;0.1519322932599163;0.6631330016591755;0.4397453778895082;0.8863186276948795;-0.8455563833511456;0.47443158099395966;0.0
0.9616232999154418;1.2950570442340872;0.9247193709402638;0.7231773188277715;0.7327833329528723;-0.8440628329304407;0.5369714130535201;1.1020271171139553;0.05199706265385285;-0.5654970326495938;0.05557255021923105;0.1519322932599163;0.6199826804049181;0.38437852400206685;0.9625875429945807;-1.1058109285448672;0.40903683023960746;0.0
0.9932990348077296;0.6518171349538818;0.9866429725499674;0.8037515089021465;0.8449826728890778;-1.5060914974764084;0.7139957174827702;1.4027761974642887;0.04469465104862318;0.9220328070315525;0.0382379932701132;0.1447945345161618;0.6146993866441007;0.3778553359406336;0.8970915205393593;-1.1767691651362802;0.383160545864008;0.0
0.9361870278193443;1.3006313220669825;0.8764461510572176;0.5983811905046743;0.9348442435106373;-1.7874684739646158;0.8739337596249758;1.716513870237176;0.03840015445437768;4.024569573662048;0.03568879371877235;0.1447945345161618;0.6143405436557557;0.3774143035792495;0.8970915205393593;-1.174738695652406;0.3830110400052498;30.0
1.2521702069367278;0.8950358241613553;1.5679302271399678;0.9115301703442666;0.9564109642896926;-1.8773169539558046;0.9147219326135396;1.8391380303451408;0.04029609841529029;4.4529250840352965;0.03619863362904052;0.15397165290098902;0.9355117842919333;0.8751822985490766;0.9240806146930005;2.7181679461474824;0.5005398865514245;30.0
1.2618536970246295;0.5604703259318108;1.5922747526947254;1.2334422370923204;0.9354219612868149;-1.539823668133887;0.8750142456576714;1.6753989578930728;0.04077702855297453;5.3467017919947475;0.0364535535841746;0.15397165290098902;0.8860464106887076;0.7850782418943418;0.7331051035724099;2.7925229175450847;0.44158938590192587;30.0
1.2305665708678155;1.4386153563722637;1.5142940853373743;0.8323556360424913;0.8659230004740733;-0.5861601193681041;0.749822642750022;1.0713034262904264;0.039550700528006744;5.77974980340852;0.02957071479555425;0.15397165290098902;0.8870261489917276;0.7868153889950945;0.7331051035724099;2.862426665489582;0.4449929355046988;0.0
1.1166321386335047;4.384629456897173;1.2468673330292344;0.5550009904261168;0.7091150500248794;0.8079969946735888;0.5028441541717872;0.693775076354521;0.04008700880053075;5.804082339469583;0.031100234526358777;0.15397165290098902;0.8670760375342316;0.7518208548660641;0.5343359048696055;4.168588162797993;0.45189601531804224;0.0
1.1199520077147616;4.466369226188658;1.2542924995843252;0.5234628535702845;0.522270349967941;2.5458476526879847;0.27276631845563554;0.34801404574593686;0.04106741464739792;5.322155622599239;0.03186499439176102;0.15397165290098902;0.7790778128705108;0.6069622385070987;0.3886494295445355;5.958227797641886;0.38685882888623097;0.0
1.1122045025460618;4.9365189771118;1.236998855483733;0.43962972736137074;0.32902431658857395;1.3567569304448075;0.10825700090657814;0.24605950264823018;0.04199176591702527;4.160803002980861;0.03543387376363825;0.15397165290098902;0.734969526898928;0.5401802054700341;0.34464286570819125;7.043830954538507;0.35351274884369355;0.0
1.1134197764882696;4.96110779479113;1.2397035986751883;0.43962972736137074;0.23471523744806705;1.705758233213372;0.0550912426903025;0.17538683809400513;0.02347261120917951;-0.6314061773501869;0.02778627510961562;0.0734169470786173;0.6808390396831284;0.4635417979566446;0.28371807965864715;8.908536936580193;0.31796131297950353;0.0
0.9712959715796781;7.3374563147886;0.9434158644069107;0.3723787306135997;0.1676697788712899;0.4610217627173022;0.02811315474674725;0.16937074709983513;0.028192335202629305;-0.8305805765621048;0.03543387376363825;0.0876924645661262;0.6673223055249496;0.4453190594511342;0.26176225834945166;9.156880230962267;0.3072187406287327;0.0
0.9887314873345572;5.485625855345563;0.9775899540468057;0.5944476789250335;0.18441358635386115;0.5039749512676597;0.034008370831893;0.16937074709983513;0.02822081936809077;-0.8751302680279568;0.03543387376363825;0.0876924645661262;0.6555054559313878;0.42968740275581657;0.29903055954258906;9.201601060684926;0.29708117259648253;0.0
0.9877928597592892;5.470572724195368;0.9757347337914347;0.5944476789250335;0.2827302535302175;2.452580897439134;0.07993639626126109;0.19608288464555756;0.029551529641201887;-1.2866215480358476;0.04970939125114715;0.0876924645661262;0.6993441377054272;0.4890822229429476;0.3482504451094832;7.5274406229089585;0.324413137803114;0.0
0.9811577910779863;5.593569739099058;0.9626706109930333;0.5944476789250335;0.47475782279847734;3.8071979940178884;0.22539499030835042;0.24752027008754296;0.02910989310015826;-1.1596802113873625;0.04970939125114715;0.0876924645661262;0.8434621653222325;0.7114284243300691;0.39333451440860623;4.398120757979721;0.41586304360228754;0.0
0.9462383039131355;6.258437777472154;0.8953669277924073;0.5380085860608694;0.7026737465317159;2.751205864434338;0.49375039406491816;0.4180369777326296;0.02845098844918929;-0.9811275079317398;0.04282655246252675;0.0876924645661262;0.9346021867383183;0.8734812474560464;0.47262409146028483;3.0630132551435127;0.4945496080479675;0.0
0.5333217941130551;0.9578541087698422;0.28443213607596796;0.3723787306135997;0.936046778360182;0.9298695092866422;0.8761835712784758;0.8455090908514801;0.027264412109852896;-1.024040256391149;0.039002753135515475;0.0856531049250535;0.632392755136541;0.3999205967491852;0.7621689314954667;-0.6273486191850515;0.3912434580722071;0.0
0.8014032167592443;4.62951489251358;0.6422471158320644;0.43678944358926197;1.1826534680389404;-0.14143694760109043;1.3986692254645332;1.5155348332594136;0.02582218008218288;-0.49938311949009506;0.0369633934944427;0.0856531049250535;0.6128718143590753;0.37561186083578485;0.7621689314954667;-0.6455448061919015;0.382609639831985;30.0
0.9239111399303734;1.0534158910314735;0.8536117944874421;0.6172470883196154;1.343546607243499;-1.2331967917853317;1.8051174858355168;2.18763138980694;0.026053132337160098;-0.10535116603502262;0.0326297542571632;0.0856531049250535;0.6180615309308353;0.3820000560165679;0.7663315605118333;-0.6643452951538967;0.3835915274999082;30.0
0.974463742624616;-0.21293965296282774;0.9495795856899739;1.2317019429680256;1.458815226011768;-1.778776515196867;2.1281418636437657;2.761272899150271;0.024217842961600344;1.764290246411162;0.030335474660956374;0.0856531049250535;0.6226324080968652;0.3876711156125012;0.7663315605118333;-0.6381069811931764;0.3831440261168735;30.0
0.9784479730689779;-0.5172259925305007;0.9573604360027914;1.2459855565089764;1.517937936615984;-1.9294077061715396;2.304135579417991;3.0682107689136657;0.017499177881086972;-0.7185599511305137;0.020393596410726973;0.0540430304884265;0.6232476841882589;0.3884376758460277;0.7663315605118333;-0.636541148134188;0.38315024454880936;30.0
1.066687876448029;-0.6779173243369819;1.1378230257612054;1.2459855565089764;1.514241776055826;-1.7550445165478028;2.292928156352702;2.7885665568852147;0.020125324667088086;-0.7227316623300776;0.024982155603140523;0.0652595085143264;0.6649174758647529;0.4421152497103542;0.8685382917913056;-0.7361630853558798;0.398313057868963;0.0
1.217451572677526;-0.8993143615621263;1.4821883318149813;1.4739189324037194;1.4255096766031397;-1.2130682890657094;2.0320778380891875;2.3199914402832316;0.023557651794918866;0.37002702875040666;0.020903436320995124;0.0851432650147852;0.7356725967836362;0.5412141696583785;0.9802688153100847;-0.8146143742452561;0.4227247471983334;0.0
1.4095138424934153;-1.0028260531955924;1.986729272180552;2.0930239762843295;1.2447567012396248;-0.46169131068124075;1.5494192452809523;1.7078607020110455;0.02758976599308576;-0.30583225867749964;0.02600183542367685;0.0897318242071988;0.8569559391761796;0.734373481689328;1.1041576953483199;-0.693574696399798;0.46558475151327605;0.0
2.1728495700200354;2.499270638564143;4.721275253936252;2.3005614661405307;1.022099658332777;0.7690789662413818;1.0446877115639794;1.1435457446666462;0.040454512548798366;2.8208530205298366;0.03428673396553475;0.1560110125420617;1.580463695971506;2.4978654942839125;1.3211965718569407;4.542014237683456;0.720432574184132;0.0
2.3529109051707886;0.456354959765099;5.53618972767162;2.8068839051198857;0.7584886386931677;2.0079453980302473;0.5753050150266148;0.571317607756497;0.05455344795430106;1.0227945087345303;0.048052411542775474;0.18609156724788412;1.6691686110932542;2.7861238522589833;1.2768122482742594;1.9713940277574364;0.6827737323643824;0.0
2.3874870431455077;-0.1590616033183791;5.700094381187679;3.255937149740493;0.5043784178468408;3.364225610857135;0.25439758838968235;0.3632575579266031;0.050581404735942796;0.8984392487343863;0.05251351075762203;0.1636586111960844;1.5677666504957013;2.4578922704065103;1.3944171238717162;2.1162486656519754;0.5863220256538773;30.0
2.3803537375363635;-0.1549231917010881;5.666083915803336;3.255937149740493;0.3041226997612341;4.871166557145908;0.09249061651006175;0.32509183380791584;0.05141300077884871;0.8165339036859753;0.05251351075762203;0.1718160497603752;1.4596625902569014;2.1306148773954865;1.3944171238717162;2.894493148266795;0.5268203870601336;30.0
2.3257488483258806;-0.07995754470450026;5.409107705489159;3.255937149740493;0.2451791956105413;2.0826495638620512;0.06011283796023208;0.32509183380791584;0.05603665443075533;0.422326997009447;0.0530233506678902;0.1932293259916386;1.352419854683423;1.8290394633419311;1.3232448572320288;3.8456460609589067;0.46955504251264263;30.0
2.0976238185839597;0.39158793688833954;4.400025684290752;2.177801652045423;0.3849069952724986;3.115860927656509;0.1481533950097033;0.32509183380791584;0.06100531230101599;0.025169125587032996;0.058631589680840125;0.20342612419700212;1.3426391805352678;1.8026799691084152;1.3232448572320288;3.8471025082495998;0.46177881659397507;30.0
1.9392035290541647;0.8176287544578908;3.760510327096126;2.0384057502027577;0.519256451601222;0.8301670227068365;0.2696272625294922;0.43390023983298653;0.06521761191000917;-0.3504907543480259;0.08233914550831029;0.20342612419700212;1.5053943226622015;2.2662120667035883;1.3944171238717162;2.6050531784424633;0.5418312941194268;30.0
1.8781341327865682;0.9410254904323716;3.527387820737954;2.0384057502027577;0.649178477772414;-0.4974943007697006;0.42143269600290856;0.8898884445110922;0.06481052639761904;-0.36389544735124496;0.08233914550831029;0.20342612419700212;1.6362712724326822;2.6773836769884687;1.444057872580916;1.691059495305179;0.6157899832139593;30.0
1.829533896746579;1.1225759720404243;3.3471942793447225;2.0384057502027577;0.7476472401925806;-1.3318054533025172;0.5589763957675822;1.2772308828844003;0.06541388321657667;-0.4177292999267372;0.08233914550831029;0.20342612419700212;1.7927305151321211;3.2138826998858807;1.851775024000988;0.8820539023459604;0.7152951202517797;0.0
2.072820856274281;0.40948354437831286;4.296586302205643;2.6036169842345185;0.7933718780846801;-1.8724206833831674;0.6294389369356125;1.4631143574806873;0.06579479358016209;-0.3871173104175038;0.08233914550831029;0.20342612419700212;1.8246309749236582;3.3292781946508594;2.1682742609806858;0.779992021539427;0.7569378226019262;0.0
2.1362592809359366;0.27614188870554507;4.563603715384925;2.711675789686321;0.81866518118461;-2.0045608655686062;0.6702126788840302;1.6787124333930394;0.06564801928938736;-0.0946527389394046;0.08233914550831029;0.20342612419700212;1.938353937759404;3.7572159880273874;2.8434208777895456;0.5203069638258746;0.886651648541975;0.0
2.1877024443962463;0.5714616998380658;4.78604198521731;2.7525674914487377;0.8082987360426844;-1.767618039385077;0.6533468466882012;1.5791717106994134;0.06518201789732118;0.44959091021613123;0.0655144284694605;0.20342612419700212;1.9601139872994247;3.8420468432068486;2.3489184421375637;1.0420690758983426;1.001439089212053;30.0
1.5861708634623646;-0.5043415503932503;2.5159380080969433;2.2527081552696386;0.7603335528777779;-1.1002277725865692;0.5781071116317448;1.210836383477102;0.05628013118099545;3.579605077596769;0.036198633629040404;0.20342612419700212;1.4119516066973004;1.9936073396550882;1.9272847192957592;-0.20308422872379436;0.9759792928059882;0.0
1.2714222574658498;-0.3873112742753866;1.6165145567795578;1.290488685764707;0.6630678844090643;-0.002529553205703097;0.4396590193347123;0.7714392926746768;0.03352090934668926;0.4123528209490827;0.03645355358417447;0.1131844600795349;1.1191631698996867;1.2525262008599152;1.619104285186332;-0.613673579174075;1.023568106169241;0.0
1.0631121279127729;1.0990612477734703;1.1302073965152242;0.6300302307468176;0.5187440833607705;1.793293000129409;0.269095424021806;0.48802049177250306;0.02512834233209131;-0.24718157804326527;0.03364943407769955;0.0846334251045171;0.9063108076430387;0.8213992800505772;1.2723025139237998;-0.3402211541045934;1.084865981730744;0.0
1.0566600764221554;1.833558922444148;1.1165305171044755;0.4918783440678999;0.3600130526983237;1.3860972922342405;0.129609398113166;0.4615692127461929;0.025251077836047194;-0.30033220435769675;0.03364943407769955;0.0846334251045171;0.8602309610025153;0.739997306267311;0.6103154352213543;1.172920860883024;1.1649708012019728;0.0
0.9124172903565936;5.405665301765728;0.8325053117416684;0.4918783440678999;0.30334620272072443;-0.6742677271476124;0.09201891870508284;0.4615692127461929;0.02595483799744401;-0.46165201256048677;0.0288059549301518;0.0846334251045171;0.7302051402805152;0.5331995468920869;0.5192320917255832;4.8437572879716;1.1517749105683732;0.0
0.5306034401372447;1.8421799530210794;0.2815400106854786;0.4918783440678999;0.33626587230656535;-0.40098752155442663;0.11307473687809531;0.4615692127461929;0.029674418826485773;0.5831478235081187;0.028296115019883626;0.1101254206179258;0.4191904511430477;0.17572063432951185;0.5192320917255832;-0.30989989101853377;0.8293524985234171;0.0
0.874897829467123;3.716897402557701;0.765446212006283;0.6747902766017374;0.3652515867292309;-1.2321444122082081;0.1334087216082209;0.6080174122930326;0.03433338872978941;0.6169752514767759;0.03288467421229727;0.1152238197206076;0.6924760611600786;0.47952309527977693;0.8289518264978489;2.8915204162173582;1.0301693156878033;0.0
0.9089661093122979;3.085031070524288;0.8262193878783364;0.7025923960174476;0.3765347236818482;-1.8244211254825826;0.14177839813816578;0.6606261048409513;0.03545218081233189;0.03667643062490811;0.0364535535841745;0.1152238197206076;0.6965612478425529;0.48519757199597446;0.8992518369705264;2.102726482715703;0.9616651274806057;0.0
0.909676151187202;3.133560517990126;0.8275107000387613;0.7025923960174476;0.36751744581159435;-1.9227372615526166;0.1350690729758782;0.6606261048409513;0.03773191120643471;-1.0422429005478655;0.0591414295911083;0.1152238197206076;0.6681943896026011;0.44648374229639265;0.7951201124008396;2.5473485049197104;0.876774254876747;0.0
0.8097755974048687;3.8849879497089925;0.655736518152412;0.7411543485740444;0.35822049013627705;-1.800199268575657;0.12832191955347458;0.6606261048409513;0.03786320087381073;-1.237188239020914;0.0591414295911083;0.1152238197206076;0.6440893298566771;0.41485106483522344;0.7217710065353548;4.161287463562776;0.8983688863814963;30.0
0.8739033457102662;1.312408063272623;0.763707057643597;0.7682884822831956;0.33616832886484;-1.3001364387774828;0.1130091453317792;0.5368525714329064;0.042361548755003205;-1.2985841740780857;0.0706128275721422;0.1315386968491892;0.644284576329676;0.41510261529631004;0.6144370217586059;2.4968118017065155;0.7731494841344355;30.0
0.89002894595651;1.1610179361610675;0.7921515246404564;0.7682884822831956;0.305173094494718;-0.6581964881705744;0.09313061760348208;0.3662140480187352;0.043618476352839414;-1.4652256863879036;0.07545630671968988;0.1315386968491892;0.6378165354429096;0.40680993288439643;0.6144370217586059;2.5165055290691978;0.7483382199137406;30.0
1.0421277524314612;0.5941949885406169;1.086030252387849;0.9885469613881672;0.27996523850310345;-0.4153151366930571;0.0783805347700996;0.3607312062713049;0.045586610436096936;-1.642807042153586;0.0777505863158967;0.1315386968491892;0.6433610345333353;0.41391342075580345;0.6062275957143279;1.2760141296798413;0.6710649006074333;30.0
1.1343264300724898;-0.0209588763936962;1.286696449960999;1.3485523117016465;0.26943645061959587;-0.7452373622405181;0.07259600092248591;0.3607312062713049;0.04622619519652663;-1.6621282764830467;0.07851534618129895;0.1315386968491892;0.5946069028472543;0.35355736891360406;0.7007913603301053;1.3762250014419946;0.5579224365871633;0.0
1.2399841113567993;-0.4727903045712916;1.5375605964173114;1.6170825711811103;0.3111001298998509;-0.328156264012367;0.09678329082370411;0.3607312062713049;0.04634260115171062;-1.6737536056421827;0.07851534618129895;0.1315386968491892;0.5486704433763457;0.30103925543479576;0.7179707706832248;0.8821576974445204;0.4604624495290844;0.0
1.296655726348107;-0.7212508809229589;1.681316072671337;2.0041415906409865;0.4176839912346836;0.26822102045369056;0.17445991653373524;0.51257820011699;0.045801743639248826;-1.6197535194374444;0.07851534618129895;0.1315386968491892;0.5200735869559502;0.27047653584922826;0.5960581472896688;0.9552398167846806;0.4103264819681438;0.0
1.3701445452496583;-0.4880126959397425;1.8772960748773928;2.0483181980674;0.5175080119586447;0.11467467008998951;0.26781454244138875;0.5933809771711677;0.045679045300933016;-1.549287505405228;0.07851534618129895;0.1315386968491892;0.5697038867304831;0.32456251855581914;0.6108230588751673;-0.29672112665166867;0.41668447471914244;0.0
1.5154582191043793;0.0806752813468702;2.296613613851017;1.6883022378827621;0.629677704717481;0.06240634861585351;0.3964940118182751;0.7525200878362852;0.042773549283229455;-0.8333598238565906;0.0657693484245946;0.1315386968491892;0.779827334474101;0.6081306715929814;0.8171221179003751;0.8274712082387282;0.5031154252000025;0.0
1.2070725623216478;0.4313295364051928;1.4570241707097482;1.1776283392747582;0.7505248961551527;-0.37358274189604246;0.5632876197487028;1.082225056192968;0.03494970812324726;-0.6223230407827985;0.04104211277658805;0.10706638115631681;0.781496527393027;0.6107368223273602;0.8171221179003751;0.7963337954785964;0.5037520862679198;0.0
1.232657138399488;0.40629206725089945;1.5194436208472146;1.3048520406816424;0.8486804012779631;-1.0403636551193824;0.7202584235133244;1.294654987939885;0.031132889686679394;0.6109662097963646;0.033904354032833574;0.10706638115631681;0.8263520180685163;0.6828576577659095;0.9890434184435275;-0.3387528701604241;0.4903107669768809;0.0
1.257335032617213;1.163861124290258;1.580891384246528;0.7329108106459787;0.9013062986178799;-1.5661897411796726;0.8123530439282629;1.5545214314763287;0.022879880940900058;0.5000888736681803;0.029315794840420073;0.0825940654634444;0.8479292072918111;0.7189839405785191;1.042971231138511;-0.8551036514502186;0.4430100973829449;0.0
1.1786951691517373;3.7262179284775647;1.3893223017816425;0.7610154687834656;0.9130537653680085;-1.7864961585952386;0.8336671784526984;1.7094127002557977;0.02064904088585572;-0.5985577425270745;0.0249821556031406;0.06525950851432641;0.891845607457846;0.7953885875418544;1.3189768269370017;-1.0892967038531638;0.4156058056102777;0.0
0.7437399265400814;-0.8444818283395837;0.5531490783298456;1.2077631682256287;0.8779580370114656;-1.8042792668042968;0.7708103147530259;1.7148307688225355;0.019381843101267445;-0.03422807108060258;0.023197715917201996;0.06525950851432641;0.9418864255042112;0.8871500385490999;1.6936073548115838;-1.3374010604725959;0.40711034556851744;0.0
0.8693265887526276;0.5797603431907999;0.7557287179122801;1.2947624070488555;0.8098126149534112;-1.515535536654757;0.6557964713376818;1.38987080407035;0.020395141321634908;-0.6639637078761805;0.0249821556031406;0.06525950851432641;1.0161284858087147;1.0325170996719115;1.6586356655785035;-0.6575433454719397;0.3857087319963511;30.0
1.0658186131921286;-0.11315941670168728;1.135969316226792;1.2192073732569526;0.7299563007333116;-0.9007818726128417;0.532836200980261;1.083529893041295;0.020011499392401575;-0.35796414477518335;0.024217395737738373;0.06525950851432641;1.1703495791265877;1.3697181373617808;1.4617247975164158;-0.5865998594529913;0.40023588806617133;0.0
1.133303334660418;-1.0362270430470277;1.2843764483524232;1.4094270431276872;0.6369136706692713;0.17893247474175003;0.405659023885405;0.7320326214355513;0.019593842895111423;-0.07143631024156258;0.0221780360966657;0.06525950851432641;1.2015567529026276;1.4437386304459061;1.459304554043333;-0.9815183313862361;0.37284635035108565;0.0
1.0805484049948335;-0.9771977846833864;1.1675848555368789;1.5462236399452;0.5109871223075885;0.9288262324911052;0.2611078391641904;0.4063654581974121;0.020361706482834523;-0.6378836590667315;0.02447231569287245;0.06525950851432641;1.114210877420071;1.2414658793612043;1.5112218200338914;-0.727349592908895;0.3265748984226493;0.0
1.01261719634735;-1.0045717446323743;1.0253935863383679;1.5168467289357346;0.4153447660793252;1.7822095719675037;0.17251127470948935;0.25035637385059006;0.02351552584749644;-0.909838211206991;0.0298256347506883;0.0703579076170082;0.9465793177613646;0.8960124048135705;1.1044409601459435;-0.818283678168241;0.2667882480407312;0.0
0.9789716327260489;-0.8656228073170831;0.958385457682306;1.184417963748965;0.3478408578190955;0.743101944151194;0.12099326236832422;0.31462930414222856;0.02121352167125621;-0.36860989416002843;0.023197715917202027;0.0703579076170082;0.8408883809495208;0.7070932692159064;0.9063454909174187;-0.6214637974191634;0.22943869612855644;0.0
1.035302357694929;-1.0098621502935923;1.0718509718486786;1.5291520121277034;0.33151066409473107;-0.5528771834376193;0.10989932040852962;0.41730391909952713;0.02120182206417277;-0.18238473124532928;0.025491995513408847;0.0703579076170082;0.8407280064598306;0.7068235808459209;0.9063454909174187;-0.6202030066345274;0.22937544816753816;0.0
1.1798544877066575;-0.4464101681315229;1.3920566121615392;1.5291520121277034;0.33429574713175747;-1.4493259269224352;0.11175364655037995;0.5767509512602902;0.021332011132668527;0.0894932250045157;0.026766595289079168;0.0703579076170082;0.8070010002669542;0.6512506144318646;0.9063454909174187;-0.6685396185724711;0.21878771735267827;0.0
1.1691183747423297;-0.3503516822847353;1.3668377741601463;1.4415514215000824;0.3345075945331053;-1.8155406158371241;0.11189533080032436;0.6271923817046048;0.016369824136112144;-1.0023928905806478;0.02421739573773827;0.04996431120628131;0.7531932827629579;0.5673001211992411;0.8596362840833773;-0.4954660389458449;0.20131982111043167;0.0
1.2548199147987145;-0.8714504409071316;1.574573018575453;1.5448866545114626;0.32447406240906884;-1.7637259903945748;0.10528341717624429;0.5946749944866763;0.01428517028291;-1.256889178151795;0.02345263587233605;0.041806872641990504;0.7851879509723846;0.6165201183522119;0.8868167291782454;-0.6363300827524433;0.21174991411909563;0.0
1.34305488051536;-1.134927233418425;1.8037964120761278;1.7916323289064857;0.30842796774727;-1.2424120063446538;0.09512781128871102;0.48179121669809444;0.013345558215542367;-0.39461431985963535;0.012745997756704402;0.041806872641990504;0.8471086636665395;0.7175930880589103;1.0602653680515655;-0.7968648064624618;0.23350227501108184;0.0
1.42229351954531;-1.1953156200963684;2.022918855740585;2.287891332724773;0.2888310897483354;-0.9511518812545035;0.08342339840521096;0.45598443436767955;0.014082190792196844;-0.5945875791335179;0.013510757622106621;0.041806872641990504;0.9352805770351065;0.8747497577791218;1.3090368456972077;-0.8997493763499019;0.2652892926642253;0.0
1.3422331268689451;-0.1597771822324742;1.8015897668643859;1.5434852204156209;0.27172315246562717;-1.4482547997714823;0.07383347158585846;0.45598443436767955;0.014254534624485778;-0.4899513125886023;0.013510757622106621;0.041806872641990504;0.9389634504650476;0.881652361309228;0.9744106154445573;-0.028365026334878647;0.2823075423672644;0.0
1.1205440902379766;1.6273365053646325;1.2556190581672548;1.1360398190398184;0.3126196524400091;-0.515270816693921;0.0977310470917121;0.45598443436767955;0.013145747105190354;-0.4114589819593271;0.013510757622106621;0.039767513000917805;0.8372176755395377;0.7009334362358267;0.8469914751261909;1.1878276835641715;0.27256842369919926;0.0
0.8091944107097447;-0.6773632459384493;0.654795594323891;1.1360398190398184;0.3695663875591015;-0.8435355199763048;0.136579314813484;0.5282699303927187;0.013085991352521852;-0.3913639034190213;0.012745997756704402;0.039767513000917805;0.5870558647501234;0.34463458833751515;0.756517455188968;-0.6219688500998346;0.20125783992280244;0.0
0.7125105869339934;-1.6508426979169115;0.5076713364930238;1.1360398190398184;0.43554964913569294;-1.3329471284325751;0.1897034968622252;0.7059401159006748;0.014218848091053157;-0.5437028810946742;0.013510757622106621;0.041806872641990504;0.4899905966690631;0.24009078482410445;0.6473938807840249;-0.8899327767266698;0.17255320397960314;0.0
0.7205365073462432;-1.7482318614521581;0.5191728584187228;1.1793307779335502;0.5059855153143434;-1.5167371971708936;0.2560213417079216;0.8785245185367345;0.012151859758171776;0.6322724345139901;0.010451718160497572;0.041806872641990504;0.4888644249572497;0.23898842598878242;0.7109481585178941;-1.0149314295509833;0.17536728644208857;0.0
0.6811295827991231;-1.3514563895245324;0.46393750856410737;1.0647589860873565;0.5318807842370773;-1.7298811239146596;0.2828971686406484;0.9570057976446544;0.012630217180693444;0.35091321207515813;0.012236157846436196;0.041806872641990504;0.4441675339390256;0.19728479820547545;0.8013711667468781;-1.3661616418059415;0.16589650106824666;0.0
0.6775823505456354;-1.2629307939218812;0.45911784177094844;1.0647589860873565;0.505229158099739;-1.638167159424366;0.2552565021941711;0.9287907458120883;0.014427822524259417;2.409266064542832;0.016824717038849805;0.0581217497705719;0.4139446084308546;0.17135013884897357;0.6378593277793985;-1.0684232381836858;0.159438937092095;0.0
0.6518539425952663;-1.597488864346874;0.42491356247699275;1.109734196438585;0.46355217603715365;-1.1579502256164453;0.21488061990878027;0.6559032536799965;0.013281661040949265;1.4663297026377582;0.01172631793616807;0.0458855919241357;0.41857143362382;0.17520204504589995;0.6378593277793985;-1.222150477688484;0.16060628892470602;0.0
0.6593245018358077;-1.6835034510395956;0.434708798721036;1.163853326157442;0.40776382329973754;-0.07472351490897672;0.1662713355920196;0.4500191706029044;0.013345558215542347;0.9231903650341571;0.01351075762210667;0.0458855919241357;0.3599828313467526;0.1295876388644245;0.5851969436116486;-1.2005042530753314;0.14077386315520632;0.0
0.650184877629098;-1.5395010967469998;0.42274037509756524;1.163853326157442;0.3207724210910615;1.0917019844871143;0.1028949461326213;0.2564702675589454;0.013660561645599756;0.12540100965586715;0.01580503721831342;0.0458855919241357;0.3531032714185076;0.12468192028645224;0.503199014800122;-1.0150511735216368;0.13859932337531;0.0
0.6051025656259502;-1.0044902700948766;0.3661491149271074;0.707372759496159;0.23357873588312827;-0.06873399627587876;0.0545590258567602;0.2302571636997106;0.015120910246757414;-0.3097360840599303;0.018099316814520254;0.0479249515652084;0.35296779288180036;0.12458626281184952;0.503199014800122;-0.9722679388488713;0.1391155053730829;0.0
0.5205882103426037;-0.35708585666446185;0.271012084747715;0.5436828553862205;0.20859856270772748;-0.7895500135572503;0.043513360363729714;0.2302571636997106;0.01745749138418243;-0.9985733440876976;0.023452635872336078;0.0520036708473538;0.3433954589933724;0.11792044125726893;0.47481711491689715;-0.7871252560709125;0.13352481231012475;0.0
0.5031480352100829;-0.35153607289403355;0.2531579453357668;0.5436828553862205;0.22851936965878145;-0.33983081424161;0.05222110230924681;0.2302571636997106;0.019255650054465768;-1.0574249910227436;0.026256755378810996;0.0581217497705719;0.32999494547533037;0.10889666403926625;0.3897682221841019;-0.4445004455204633;0.12757213874736578;0.0
0.7159918241882739;3.7950185399557226;0.5126442923044521;0.5436828553862205;0.24775180017724008;-1.0020210355469878;0.061380954491063094;0.3317719915309423;0.021474802691784183;-0.8114647181792034;0.026766595289079174;0.06729886815539911;0.3378156499071856;0.11411941332221419;0.3897682221841019;-0.2524104760595277;0.13079375224323334;0.0
0.7979324747021336;0.8355288828335057;0.6366962341842711;0.57942902418358;0.2564672552256238;-1.3479996728806216;0.06577545300296526;0.3840118426306225;0.023945705352262953;-1.1984579048788087;0.03594371367390632;0.06831854797593541;0.345127118118197;0.1191127276605719;0.43487703598421357;-0.4944334545078271;0.13912747860905048;0.0
0.7736878349428827;0.9987809891522886;0.5985928659386054;0.57942902418358;0.2538116489135117;-1.2590441662875649;0.06442035312419574;0.3707631293460423;0.024425277667169697;-1.423672052507618;0.03594371367390632;0.06831854797593541;0.3209103440848049;0.10298344894062789;0.43487703598421357;-0.6367308573099997;0.13019636914049185;0.0
0.7637358401101698;0.557831275663514;0.5832924334687869;0.8608620938300648;0.2484263621151902;-1.3363821013498516;0.061715657393787614;0.3707631293460423;0.024241249701653304;-1.3662345663937028;0.0344141939431018;0.06831854797593541;0.3639429289325008;0.13245445551996735;0.5476233126446663;-1.3560218186590784;0.15096094997484968;30.0
0.7864026850077852;-0.3820366648976258;0.6184291829874539;0.9974138657164233;0.2945060623336915;0.17848437968073022;0.08673382075129617;0.3707631293460423;0.028261958931961248;-1.3092081280603742;0.0428265524625267;0.0846334251045171;0.4742078523283295;0.22487308720984675;0.7813133743551626;-0.23634169255846396;0.2029183853703293;0.0
0.8804023845187116;-1.3049382554080846;0.7751083586662332;1.4119622253832156;0.3845343247122374;0.2197694927815203;0.14786664688189644;0.4165559513462722;0.02666277062042674;-0.9985774459001732;0.03747323340471088;0.0846334251045171;0.6519038132399989;0.4249785817168514;0.8301708274955522;0.4542772136402612;0.29479004125847563;0.0
0.9780317310730483;-1.1918901104038733;0.9565460669857434;1.656711336229177;0.49123620691709846;-0.25802360273137376;0.2413130109862984;0.6354207530229083;0.029539899240918308;-1.1480204335878423;0.04180687264199035;0.0912613439380034;0.7413985366486769;0.5496717901447996;0.9463708279206275;-0.6725933826316818;0.36385608170555883;0.0
0.9906014620811148;-1.425360387208943;0.9812912566772423;1.6583888087767065;0.6086140272229764;-0.7587063938400326;0.37041103413256987;0.9174526966099259;0.030473106143886083;-1.4103831714480402;0.0509839910268175;0.0912613439380034;0.8502384083281344;0.7229053509963593;1.3158203147409293;-1.0419896132052164;0.46179578348890615;0.0
1.107445315947723;-0.7338667408549201;1.2264351278145522;1.4620058619251537;0.7185578863571638;-1.1710404441903564;0.5163254360460746;1.1607709128021946;0.03019865052171276;-1.3121935120951478;0.0509839910268175;0.0912613439380034;0.8122905759947738;0.6598159798499215;1.2215985513061334;-1.095627168530256;0.4711073843746507;0.0
1.2887957402659798;-0.3693172603471453;1.6609944601277349;1.6019715367548786;0.8124855008505137;-1.3763965537801472;0.6601326890923102;1.423331169406321;0.031477070533065206;-1.3249817192979305;0.05200367084735385;0.0917711838482716;0.7834913927617697;0.6138587625317777;0.9219127360041104;-0.8656071534802398;0.46475091263545265;0.0
1.3294325469083508;-0.525609153015868;1.7673908967792245;1.722012667952384;0.9007975356207115;-1.236662183924243;0.811436200180347;1.4247624024106527;0.03423111446481283;-1.1286674166462174;0.05366065055572543;0.10604670133578051;0.725085345483745;0.5257487582352819;0.7750227493142954;-0.4591285891612396;0.44680385993423366;0.0
1.2774995978989938;0.030779997406186668;1.632005222632091;1.211047267415891;0.9374078973815978;-1.2378349848703218;0.8787335660733882;1.4328808870309913;0.04066931512619985;-0.8583024824571945;0.06105332925461395;0.1320485367594575;0.7062476905723843;0.49878580043882637;1.0266331884402824;-0.33887938079814844;0.4703985898195168;0.0
1.2836814374774692;0.044861473648368;1.6478380329242215;1.2439174820218057;0.9788815858352999;-1.0522510171670199;0.9582091590874317;1.4353496980896643;0.04658832181731685;-0.6872844730571425;0.0599061894565106;0.15295197308045272;0.6924759235062024;0.47952290463576774;1.0026208779377508;0.02468747680481316;0.47670973715185183;0.0
1.2751920589665846;0.2990731888731438;1.6261147872514372;1.0826509657854144;0.9551878108874482;-1.285797596129568;0.9123837540679556;1.5105565575586173;0.046121024931551964;-0.8280252712649107;0.0675537881105332;0.15295197308045272;0.6790954839852198;0.4611706763691199;0.978125684183321;0.525404343479123;0.4842500608150647;0.0
0.9748510463510175;-0.015182680562737182;0.9503345625716736;0.6732044699570944;0.9235350929125177;-1.3836042721724406;0.8529170678409327;1.4962128162231516;0.04717703720913731;-0.696989556090828;0.0748190068318547;0.15295197308045272;0.5051739340915582;0.25520070368554204;0.5910305040230983;-0.5013934931466268;0.39582716850143124;0.0
0.8048727719334116;0.3820679948190553;0.6478201789997736;0.5355749341139375;0.8652702845941473;-1.4555956183928247;0.7486926654016368;1.548041203349264;0.04559058441285945;-0.3701105805272208;0.07303456714591608;0.15295197308045272;0.47409864645319694;0.22476952656875343;0.484168498809592;0.03602238301867386;0.38214405153829345;0.0
0.8110056621160858;-0.6867211346246285;0.6577301839843508;1.0959656977066823;0.7921894331377992;-1.3415953340481488;0.6275640979751876;1.3134596854932012;0.03577705132257863;-1.2371857403050288;0.06003364943407762;0.10604670133578051;0.6406812640038891;0.41047248204562103;0.6575396685428014;0.750248370625845;0.47287223742167533;30.0
0.9901396926868858;-0.252870477326092;0.9803766110340807;1.460322822572821;0.6993226911867354;-1.0760618599587513;0.48905222640865803;1.1421647454058228;0.03394249216570068;-0.9480789311108885;0.05060161109411643;0.10604670133578051;0.852790614443391;0.7272518320827364;0.7399940653760118;1.0358157313979366;0.5409128790407433;30.0
1.2684974788135817;-0.21657486041939428;1.6090858537564132;1.694769549059699;0.5812263480130174;-0.5419583243623335;0.3378240676245492;0.7970873189139788;0.03501691862123521;-1.2003030677683237;0.05697460997246857;0.10604670133578051;1.0857385710396856;1.1788282446432985;0.8800860901124885;0.5637277334960092;0.5839194195501644;30.0
1.2390070700832776;-0.5979387485184962;1.5351385197163478;1.8955936029258276;0.46301854294179706;0.27914549918507164;0.21438617110794478;0.5711578014376423;0.03522247711014914;-1.237111887486509;0.05926888956867533;0.10604670133578051;0.9899925847794141;0.9800853179182255;1.2616032097205219;0.3183289672738662;0.4848363526342425;30.0
1.7921056422931554;1.1481809531904212;3.211642633138963;2.0996045983759553;0.35090327431934776;1.0261338111694203;0.12313310792803943;0.4237613946031532;0.0314983651414706;-1.0584341652790399;0.051366370959518674;0.09890894259202601;1.5201223574321814;2.3107719815651726;1.552011156989887;2.2933001937243804;0.621460950869763;0.0
1.806358094310973;0.7794025564632642;3.2629295648827696;2.408744923057931;0.2656924725443673;-1.2350649499097601;0.07059248996673938;0.4237613946031532;0.0314983651414706;-1.0584341652790386;0.051366370959518674;0.09890894259202601;1.5183838221602597;2.3054894313979992;1.6588066899190428;1.9329564625887177;0.603337056412863;0.0
1.8061201840328667;0.6564345851149015;3.2620701191709163;2.408744923057931;0.30915873142353234;0.5053039394065517;0.09557912121540779;0.4237613946031532;0.03174211780276715;-1.0454483985966185;0.051366370959518674;0.09890894259202601;1.508054700764156;2.2742289804968685;1.6588066899190428;1.9098933072039068;0.5909177538668604;30.0
1.808027592736155;-0.024987306307077184;3.268963776095296;2.8387648524719697;0.41478282440383396;0.9250145684217361;0.17204479142042176;0.4349518113441382;0.03418552261841104;-0.4077590481441329;0.035051493830936975;0.1121647802589986;1.4698457591066252;2.1604465555637313;2.1746409213062803;1.1088330603582;0.5232350385427088;30.0
1.7179484323151166;0.3642390353068871;2.951346816093967;1.5449545996973308;0.502937439664809;-0.48834979219789904;0.2529460682165933;0.6646109138088121;0.03046845304097759;-0.489031246853874;0.03428673396553472;0.10196798205363511;1.3985963552402665;1.9560717648913575;1.4774690135625863;1.4915588908174509;0.4779139995054283;30.0
1.6977984816546194;0.4308765846966234;2.8825196843087313;1.5051663879651702;0.561808665606375;-1.3735702077152716;0.3156289767504157;1.0152716484190336;0.029221399732186775;0.23557531988014627;0.02765881513204845;0.10196798205363511;1.4882763030236825;2.2149663541418403;1.4774690135625863;1.1876959806326322;0.519272608082786;30.0
1.5887630972942297;0.8376522542538845;2.524168179323954;1.3515196949097743;0.578140169155174;-1.7747771765188765;0.3342460551907731;1.0925050532657492;0.0272894993355557;-0.28477223828863507;0.02765881513204845;0.0907515040277352;1.5029098332900768;2.2587379670000063;1.4774690135625863;1.0967308207491606;0.5266771540567482;30.0
1.6084749058131511;0.8047034613641624;2.5871915226306252;1.3515196949097743;0.5529647159294301;-1.741624878111891;0.30576997706291525;0.9259976113778812;0.025718218112504344;0.19698338607963325;0.023835015805037097;0.0907515040277352;1.6304842442927663;2.6584788708869533;1.541279954558442;0.6225192383340129;0.5909686854662511;30.0
1.7966545153284894;0.08100739904827871;3.227967447450249;2.3529462076962715;0.49473469497105466;-1.3813524117299576;0.2447624184081025;0.8728085684963698;0.025727596102523488;0.34876939855071404;0.021923116141531473;0.0907515040277352;1.7587450318979;3.0931840872255454;2.5652344426024056;0.017237653065056847;0.6839507718369743;30.0
1.9265231035658161;-0.14732527106844487;3.711491268572864;2.590799345955384;0.41709277056104105;-1.3950159664083468;0.1739663792542852;0.7292028694146873;0.025714733987992767;0.3076628497073437;0.021923116141531473;0.0907515040277352;1.8333034182233425;3.3610014232693923;2.6120491614712975;0.04042943147294598;0.7895133180013681;30.0
1.9601717621150712;0.49664549635194183;3.842273336993303;2.604562875930406;0.3609515923452783;-1.001787543971973;0.13028605201659196;0.4650005452638358;0.025612219630975805;0.35380834765955205;0.02090343632099515;0.0907515040277352;1.8012337641043104;3.244443072949382;2.2618242162966586;1.1314411704056946;0.8904815087613176;0.0
2.085412616475986;0.42187758113002916;4.348945780957218;2.889893802261218;0.311491444654284;-0.31560494046842047;0.09702692009281288;0.3694476292018373;0.02528209700870282;0.5074003447912484;0.019883756500458774;0.0907515040277352;1.821324950005913;3.317224573514041;2.2618242162966586;1.4674280423529467;0.9668090196371613;0.0
1.5913227884395602;-0.8574132988269569;2.532308217007057;2.624157113044709;0.2475861633784922;-0.5881244026387417;0.06129890829648144;0.36051041827934743;0.025385479081418912;0.5913426967295639;0.017334556949117876;0.0907515040277352;1.2427172468456178;1.544346155607552;1.9142534484910838;-0.1671105213457837;0.8719039195472341;30.0
1.6199263594821833;0.1267950808680382;2.6241614101451995;1.8635891245891187;0.20264566355549715;-1.6419455354877184;0.04106526495784775;0.3470511015839494;0.026266166006119973;0.49071166817381723;0.0191189966350565;0.0907515040277352;1.1569755363407639;1.3385923916909983;1.1181407831357875;1.5053362061932085;0.8867262424961155;0.0
1.5901379441366377;1.515372574033426;2.5285386813830923;1.3394060658615792;0.21203274948527745;-1.6593940075130755;0.04495788685428643;0.36051041827934743;0.026206270342031393;0.6367586859382925;0.0191189966350565;0.0907515040277352;1.1104533506557053;1.233106643982483;0.7061607769791161;3.3266025608497367;0.9252033761967293;0.0
1.1415307085873672;2.485772728479584;1.3030923586479768;1.1569485413661518;0.2391022088183853;-0.7509032291451881;0.05716986626183072;0.3212619300866507;0.02356371139389168;0.2812307605967103;0.01962883654532465;0.07443662689915359;0.6715543894047851;0.45098529792883363;0.6563997738517535;4.541644475624872;0.6942485303501125;0.0
0.8121139558855328;-0.1878966843641131;0.6595290773440492;0.9558017836514063;0.26374045899900594;0.3019691500771627;0.06955902971300633;0.16242208046662227;0.023103425464049636;0.30795681722383705;0.01962883654532465;0.07443662689915359;0.46461378263298214;0.21586596701252797;0.6563997738517535;-0.30108682385323454;0.5226709958702271;0.0
0.7698411247961975;0.9840144659551577;0.5926553574274744;0.8763803628976616;0.2487193156196489;0.10556153532276968;0.06186129796230653;0.1735440584409914;0.02135120356139796;0.5778855800979544;0.018609156724788325;0.07341694707861719;0.46997338502358055;0.2208749826305227;0.7194785199776841;-0.7989865291441485;0.49285108357115914;0.0
0.58426758616633;-0.9590071276476282;0.34136861224462983;0.8446283031680326;0.2727180003459223;0.3719253075146317;0.07437510771267848;0.32749083240129717;0.017130694554825316;0.825409425429385;0.018609156724788325;0.06423982869379;0.5299218869194972;0.2808172062363203;0.8289210765680324;-1.212909186929364;0.5264772060703014;0.0
0.4929914611036901;-0.9933983618247099;0.24304058072115114;0.6390607902375506;0.2845776670797772;-0.8262772775227537;0.08098444860056853;0.40788825841400056;0.01857160571062121;-0.36734245715742175;0.028041195064749575;0.06423982869379;0.5008417618427481;0.25084247040574803;0.811170638828782;-1.4125181961390363;0.45089532404809224;0.0
0.49049627030961596;-0.6109869093882089;0.24058659118764386;0.659391186570541;0.3429733223043076;-1.001712058444119;0.11763069981245447;0.5112657160545307;0.017985534473130567;-0.1251265789896378;0.023197715917201926;0.06423982869379;0.5489542919776469;0.30135081468067954;0.7897331405719329;-0.867286450896992;0.4373912590383025;0.0
0.4983962430373261;-0.3617087883132083;0.2483988150737214;0.5489444582607709;0.3991285737369394;-1.1102138711759342;0.15930361837328344;0.6899460694854009;0.019199936202534316;-0.5701647863246718;0.028296115019883675;0.06423982869379;0.604260230199709;0.36513042580100524;0.7848722514122808;-0.4057709807722505;0.42247848665228405;0.0
0.4379377213219407;-0.5729841488297313;0.1917894477566538;0.6093252666696406;0.4435649346448497;-1.2875845735012206;0.1967498512464898;0.7049224631681272;0.018612278147798294;-0.3133025310489264;0.023197715917201926;0.06423982869379;0.5810582071911231;0.3376286401441621;0.7357224748024223;-0.8311501599535442;0.36930419592941505;0.0
0.5923528109016739;1.4745197007043025;0.3508818525831142;0.5943387206052126;0.43884176683487425;-1.3869875234611844;0.19258209631875411;0.707007436766983;0.020589446467495578;-0.8910578981636813;0.026001835423676924;0.06423982869379;0.6920309799459685;0.47890687720497754;0.9100689870641534;0.004193833572746068;0.39276460084985887;0.0
0.5600991137498622;0.5237506326350039;0.3137110172233811;0.7574641860076519;0.39871832791087186;-1.0312236988862469;0.15897630501204155;0.5700280356481883;0.02157580087260327;-0.8957892504297225;0.0293157948404201;0.06423982869379;0.6326685858102613;0.400269539471156;0.9349288581645108;-0.6055200751354789;0.32996599688253603;0.0
0.5763587058337358;-0.3238125855936902;0.3321893577903388;1.007255049929979;0.33951856050946666;-0.6593335039275631;0.11527285293042039;0.4965370878140378;0.020469737138080583;-0.9735272944281399;0.03313959416743143;0.06627918833486279;0.6295959456015469;0.3963910547179059;0.9758582590397851;-0.8111020371526321;0.314288120515644;0.0
0.7494732290909297;0.8732110189986144;0.5617101211239852;0.8042896104605519;0.2764895229208656;-0.6274552702404006;0.07644645628500785;0.3060135158623549;0.01953244054964835;-0.3251719554159984;0.03211991434689508;0.06627918833486279;0.727866318805256;0.5297893780511146;0.7949547505253383;0.08501767474088145;0.3277486035169792;0.0
0.7498556742279439;-0.1272202259520523;0.5622835321718443;0.796053283825978;0.25138840124285516;-0.8407458792103095;0.06319612827943875;0.3029525079329918;0.019570512573603874;-0.21615942403244995;0.03211991434689508;0.06627918833486279;0.6862890034493478;0.47099259625549905;0.8419565232269746;-0.22174274138030797;0.2897372119136681;0.0
0.7698878502262572;-0.29878603712970553;0.5927273019260079;0.961242556155641;0.268345093818922;-0.7356574124198978;0.07200908937668606;0.3029525079329918;0.019690238317550565;-0.7219986410036767;0.028041195064749676;0.06627918833486279;0.7159619808899745;0.5126015580798963;0.9199897978435148;-0.4661057667755598;0.3058410116504223;0.0
0.7171851654140533;0.05221353460250953;0.514354561489983;0.796053283825978;0.2560837898126975;-0.5536828345476358;0.06557890740483384;0.2928840500762204;0.020132906439372034;-0.9438760798114205;0.03148261445905985;0.06627918833486279;0.6532317335066362;0.426711697660085;0.6836387914841493;-0.06429225326156585;0.2722704960898971;120.0
0.7008197726503771;0.2237932917448322;0.4911483537377263;0.6984560047889892;0.27382642029280396;-1.0808651321744032;0.07498090845037134;0.43913658240503295;0.02017004033548963;-0.9906697986539736;0.03148261445905985;0.06627918833486279;0.6484718596686888;0.4205157527821676;0.6682734536932986;-0.0064475630461250455;0.26971078054175474;120.0
0.7226441439549633;0.2467555618370145;0.5222145587924018;0.6984560047889892;0.3060665851231903;-1.3732520071130097;0.09367675452897109;0.4777397757573345;0.02379783938565226;-0.9003480373573154;0.03275721423473028;0.0764759865402263;0.7036033636176067;0.49505769329401;0.6682734536932986;0.1105082209723043;0.2967191913610515;120.0
0.8105971240453138;-0.23585663728535577;0.6570676975105338;0.8265169935949963;0.3659676559878606;-0.6791637754341701;0.13393232522924906;0.4746414647673749;0.024146141003764752;-1.0744777148000701;0.0336494340776996;0.0764759865402263;0.828461231217726;0.6863480116307904;0.8869202707807027;-0.3941937988634057;0.3667535655561953;120.0
1.156230951065021;1.4251933956359841;1.3368700122007229;1.1475748137420814;0.4137819274370789;-0.3000233492517585;0.17121548347354407;0.5070414551016702;0.02322732308548827;-0.9248238052711062;0.0336494340776996;0.0764759865402263;0.9061497328784955;0.8211073383957689;1.241143036319369;-0.8651667266816427;0.42702728517192445;120.0
1.1804576740116803;0.838921382740082;1.3934803201330666;1.4372064567713725;0.43250970962463847;-0.6051959686714073;0.1870646489195891;0.542958403540904;0.027014481802923974;-1.014903008533979;0.036708473539308624;0.08361374528398069;0.9697607894632126;0.9404359887803134;1.5589313527403068;-1.1547265176059125;0.4830288585818402;120.0
1.251663180139323;-0.0038589685084572363;1.5666607165164834;1.2731316837985234;0.46913672034564546;-0.8638440854490859;0.22008926237666834;0.6440346830630209;0.031820530048372674;-0.47165883962309496;0.04155195268685622;0.1060467013357805;1.0039603449642063;1.007936374260648;1.5626874367114687;-0.575976887839541;0.5649870552840254;120.0
1.5594081077541977;0.10500278894810815;2.4317536465295273;1.4036658029397993;0.5383791717932349;-0.67125004680186;0.2898521326207696;0.7472407486516048;0.032508920311285903;-0.5158968535463954;0.04155195268685622;0.1060467013357805;0.9801554733844869;0.9607047520055677;1.2478483270506562;-0.15403977863404128;0.5642061814532044;120.0
1.7310064036105552;-0.6124141020095369;2.9963831693407488;2.187237809466974;0.6080546020050853;-0.7286058240660218;0.36973039901956267;0.8694878997633485;0.03005851772642132;-0.2577902815694428;0.03823799327011305;0.1029876618741714;0.9597114103987496;0.9210459912495572;1.1350648367146232;0.2832091890033982;0.563598284255796;120.0
1.6264533670249792;-1.2025641152160909;2.6453505551068917;2.513677287851759;0.6316941223642253;-1.3566565277991234;0.39903746422950886;1.0050604025297238;0.028605161057474276;0.04063975248250813;0.031355154481492675;0.1029876618741714;0.735151721027707;0.5404480529299995;1.1288989854909857;-0.1947374844837605;0.4724644112910241;120.0
1.8629615978297602;-0.1879448829923471;3.4706259149884136;2.83687383757292;0.6460362902407228;-1.6480298789113905;0.41736288830799545;1.2469200167090884;0.027031096728467603;0.6873142575000902;0.018481696747221277;0.1029876618741714;0.9992233416073095;0.998447286412878;1.1288989854909857;3.6870103946266264;0.6019027527158202;120.0
1.84724409611957;-0.5916793720002147;3.4123107506486074;2.8276374089888465;0.6362675355831989;-1.5153608731168318;0.4048363768371173;1.0799901393574638;0.027642141167589757;0.35446223254719295;0.0290608748852859;0.1029876618741714;1.005075943516052;1.010177652234682;1.1350648367146232;3.113922282875031;0.5880609776077841;120.0
1.6847509124001274;-0.141125929618927;2.8383856368330616;2.72348640102126;0.5701825852935803;-1.0525619559551564;0.325108180572071;0.8535011886347235;0.027627176781246963;0.3470350714726395;0.0290608748852859;0.1029876618741714;1.0271420597630634;1.0550208109343087;1.1568791171743176;3.3436596802632037;0.6377957288809043;120.0
1.695062623088631;-0.6343696205058349;2.8732372961921104;1.9419962463576994;0.4765212372379288;-0.49428347929940564;0.2270724895387664;0.6935040453971677;0.04101098567252259;2.258205442519828;0.0316100744366268;0.1590700520036707;1.2084526975746308;1.4603579222754022;1.1792472177047995;0.5059651723198948;0.6821551587496767;120.0
1.5511204753330143;-0.12300694005124531;2.4059747289973163;1.3787063876238594;0.37719372867316736;-0.5198445493784182;0.142275108950367;0.5151930235561939;0.04110451185446636;2.163597305719516;0.03390435403283355;0.1590700520036707;1.1991918657554668;1.4380611308940776;1.1792472177047995;0.5289858174833089;0.6692737002985135;120.0
1.4210318605714298;0.1724273432627557;2.0193315487590997;1.3325083545242788;0.3008829616995294;-0.0637869762310427;0.09053055664108046;0.34430092083096087;0.0416116707077022;1.4500830350954819;0.03530641378607105;0.1590700520036707;1.1905364376186134;1.4173770092976186;1.3432369288990458;-0.08224047517657722;0.6104693229513335;120.0
1.4420083682650542;0.06071887723515172;2.0793881341464444;1.6394817201678855;0.2400763349586655;0.6222501496194714;0.057636646607185364;0.22629777293388065;0.04314783670428081;1.06675779000305;0.053660650555725345;0.1590700520036707;1.1865760129147052;1.4079626344245584;1.5767651627592478;-0.5467853831557067;0.5561328326362438;120.0
1.1685782878104458;-0.6205195801223182;1.3655752147419933;1.3845797492385947;0.1828150390192706;0.34109236892038297;0.03342133849161743;0.23007379569017006;0.04326651705360886;1.4697978687862245;0.0506016110941163;0.1590700520036707;1.1520472855399613;1.327212948119993;1.327837013453648;-0.5106782505588039;0.49611651160636294;120.0
1.038084377810749;-0.587399360991814;1.0776191754547297;1.3399031137728274;0.15253767123940806;-0.8495113947889807;0.023267741147141738;0.23568767450797717;0.041238029015896;2.8838738209050865;0.043591312327928955;0.1590700520036707;1.0020261635396301;1.0040564324179495;1.2525358701947449;-0.48813559321703537;0.41191061320637745;120.0
1.0343731523765776;-0.6221454418813386;1.0699278183574585;1.3399031137728274;0.18097163774052977;-0.19546627747959822;0.032750733666489534;0.2503962889882725;0.03851935279376086;2.456974975700281;0.043718772305495895;0.13765677577240729;0.998508729002823;0.9970196818948328;1.2525358701947449;-0.5415269777354978;0.40110261758048726;120.0
1.0260731484706027;-0.569409858286594;1.0528261060123756;1.3399031137728274;0.2816132609582995;2.6798088619868747;0.0793060287475673;0.26451996368388986;0.036887719078872436;2.9975935433942307;0.03887529315794822;0.1345977363107983;0.999791035999203;0.9995821156643597;1.2525358701947449;-0.5915181601263423;0.3885250549746953;120.0
1.0852801265704999;-0.7565705684445903;1.17783295312888;1.3862210501259993;0.36262894326789413;0.49309607691615914;0.1314997504955896;0.3746563552219223;0.040815837118007355;1.9969758534080522;0.043718772305495895;0.153971652900989;1.07925864592561;1.1647992248051813;1.3333305463992295;-0.7263187035645369;0.390746497991037;120.0
0.9771150170139088;-0.4448906193635404;0.9547537564740913;1.1848419629370883;0.4074299032913886;-0.979377591147046;0.16599912609603026;0.5890694439238457;0.04129166790608427;1.3569714330957336;0.0506016110941163;0.153971652900989;0.9891931438533258;0.9785030758464266;1.1945850694261977;-0.424875643522683;0.36920061196377324;120.0
0.963843984842643;-0.14554039249185596;0.9289952271173451;0.8563795374108545;0.4493677268509108;-1.6309116730633626;0.2019313539351548;0.9069339330350201;0.040098575736581085;1.6837144887365272;0.04575813194656862;0.153971652900989;0.9724540215960803;0.9456668241183898;0.7022507859657825;0.025943594595019527;0.3542395342080586;120.0
0.790096122443308;-0.12118907222448835;0.6242518826999507;0.7017559863662135;0.47896450628486914;-1.7453126048685956;0.22940699828070843;0.8214590631454747;0.04085634400372191;0.9547259321537095;0.04983685122871397;0.153971652900989;0.7730914190863368;0.5976703422649261;0.45727272104321814;0.6912212405569569;0.26686922877245106;120.0
0.7575414655504884;-0.17805345637677494;0.5738690720283818;0.975416394601692;0.45903305627184204;-1.8694781725653538;0.2107113467502681;0.8098730122245968;0.03153482334849829;-0.8299074893962042;0.04983685122871397;0.0938105434893443;0.7329443044853547;0.5372073534775205;0.5460027878080909;0.9881454462139578;0.2645408263891545;120.0
1.062731192428263;2.94316419535639;1.1293975873599975;0.7017559863662135;0.449062020361078;-1.545483996187943;0.20165669813077322;0.7589624562825514;0.040926268502035616;0.2745656741719377;0.0548077903538288;0.1498929336188436;1.018043440013326;1.0364124457541666;0.45727272104321814;3.8795371508490955;0.3247957580282978;120.0
1.1612783904491166;0.6576508668846802;1.3485675001240909;0.9377584149590845;0.4385834528181802;-1.0481403998159686;0.19235544508591687;0.6883937759467768;0.0406303666092313;0.5327274399452948;0.0548077903538288;0.1498929336188436;1.1292439469611708;1.2751918917484437;0.7635703641133373;0.9417188144804142;0.34081403142105354;120.0
1.2493581234493347;-0.5680541297804256;1.5608957206288432;1.713453303391839;0.4568636962206423;-0.20934445310280758;0.20872443692438736;0.39326508707697294;0.03899060859289875;0.6910477265981336;0.04716019169980623;0.1498929336188436;1.2395673807609715;1.5365272914466155;1.6496571915865403;-0.582447698735128;0.35623030438533987;120.0
1.4905126834799465;-1.0315235911122052;2.221628059614591;2.1561982973657248;0.4833028022858666;0.17849678197259397;0.23358159869737147;0.3939014210901459;0.037289567802580116;1.3662600458118876;0.039512593045783626;0.1498929336188436;1.5006150161934464;2.2518454268252572;2.2318986351063193;-0.905624181971733;0.39970022231645347;120.0
1.384461774888719;-0.8663461716766803;1.9167344061280218;1.9775899829060148;0.5685999369814312;0.8105903292942792;0.32330588833528756;0.5965414788341328;0.03771802618752916;1.2115436772486343;0.0407871928214541;0.1498929336188436;1.355130169330294;1.836377775829151;2.1148451095135434;-0.895411224852687;0.34245065619007126;120.0
1.5407565995791355;-0.8845195849778956;2.3739308991466603;2.1561982973657248;0.6961684114395656;0.6618051956383795;0.4846504570862884;0.8084003971419891;0.037750277516050396;1.198225092971896;0.0407871928214541;0.1498929336188436;1.3053586378599844;1.703961173435674;1.9542019837451194;-0.7188795442344227;0.32358629430894126;120.0
1.5290955853133508;-0.8595628442558191;2.338133309024779;2.1561982973657248;0.8115604362885521;-0.6275971850033146;0.6586303417488651;1.064819208423236;0.037896887557254406;1.6915807402619483;0.021923116141531578;0.1498929336188436;1.3010579627000287;1.6927518223051492;1.957749002736016;-0.9521215134659871;0.3092004234719783;120.0
1.7592510371205121;-1.1561932653264426;3.0949642116095974;2.4585559953628398;0.9064940120235625;-1.3381871176079658;0.8217313938345747;1.5130709758423964;0.027488405836335474;1.110564841319303;0.017334556949118;0.1009483022330988;1.6126776295369987;2.6007291368090732;2.129861770594116;-0.6564636714597618;0.3596936038603161;120.0
1.7821440749064223;-1.2443983124776758;3.1760375037240682;2.4585559953628398;0.9131227065723413;-1.821093899829498;0.833793077257998;1.8510692441715786;0.027922120048833075;0.9361926941701673;0.023197715917202048;0.1009483022330988;1.5668126231586834;2.4549017960893944;1.8211410433413424;-0.4331402560355103;0.34227277598425926;120.0
1.7955592708399557;-1.2863719920767822;3.2240330950993137;2.6179570382861095;0.8642269157635118;-1.7984188684491282;0.7468881619301122;1.6372742311447261;0.026934214623717718;0.09622025000845219;0.02243295605179972;0.0948302233098807;1.491742548242644;2.225295830237457;1.4429698917208182;-0.028895426392368032;0.3198776481898092;120.0
1.80282366558636;-1.3038119433833288;3.2501731691982396;2.641859929060391;0.8009114578912889;-1.4147001951065485;0.64145916338155;1.3683152857324021;0.02700081055171379;-0.062451799517627804;0.028551034975017826;0.0948302233098807;1.3931214123433873;1.9407872695296342;1.4304452654108823;0.44497941335466307;0.2932917204844775;120.0
1.7347131790571653;-1.1516304077299417;3.009229813594617;2.421620299043306;0.6987267692951342;-0.8662214916842704;0.48821909812961567;1.1013044943336632;0.02697162205547646;-0.07868176784668826;0.028551034975017826;0.0948302233098807;1.1991473476078296;1.437954361274893;1.3828583422173977;0.5746965953088471;0.24551026394507922;120.0
1.6954923306157705;-0.5450033632296317;2.8746942431768976;2.339502231063276;0.5830321565508412;-0.5627204828748081;0.3399264955723246;0.7868683158218426;0.023879825303490986;-0.6481108856716244;0.028551034975017826;0.07545630671969;1.2340428146359077;1.5228616683545135;1.2591267196343154;1.3145404369147458;0.26322075229728226;120.0
1.7319232844206784;-0.8218351417199983;2.9995582631185105;2.5134994874581786;0.49134381079373957;-0.7523262217534371;0.24141874040531414;0.7360399324148954;0.020026451260959775;-0.7928362282780641;0.021158356276129275;0.0591414295911084;1.266339658949787;1.603616131829063;1.4106074596783693;0.49821847503334565;0.2664512131718696;120.0
1.914590920173326;-0.3300346583095303;3.6656583916101435;1.9686110403339399;0.442470580683878;-1.1893655880259963;0.1957802147707282;0.7360399324148954;0.032731346823932646;2.8737387479857475;0.037983073314979104;0.1193025390027532;1.3994217895097365;1.9583813449546332;1.5658928555687592;0.4564571863004542;0.3079276808989471;120.0
1.7829863929782164;0.9039892852245424;3.1790404775454704;1.3508619838033282;0.4407699627632257;-1.2016964888892034;0.1942781600742954;0.7360399324148954;0.032337191804646184;2.2784016958707776;0.03415927398796782;0.1193025390027532;1.3617571163873898;1.8543824440316994;0.9697030080537687;2.191001476832878;0.32241328474076225;120.0
2.042863347785919;-0.5756702943660735;4.173290657727092;2.287529308120781;0.4798811994311916;-1.417123338296664;0.2302859655675191;0.8587546593200761;0.03607733526033479;0.1672411845396583;0.0336494340776996;0.1193025390027532;1.5104794879483876;2.2815482835128233;1.6674819054334926;0.06903246814621992;0.3416855479526762;120.0
1.9780961044451977;-0.4024727164105419;3.9128641984212664;1.9686110403339399;0.48993606750256674;-1.0523941327993447;0.24003735023987965;0.7242042118985337;0.048391106059798815;1.2705528343546215;0.037983073314979104;0.1855817273376159;1.5332262396470961;2.3507827019423746;1.8968876111149644;-0.022424718294114934;0.3495027030292791;120.0
2.3878676604673883;-0.819530796823649;5.7019119639059985;3.260585128757379;0.46191260192361017;0.08728923710649686;0.21336325181583957;0.6083940868400397;0.06388516199685171;0.675280690143252;0.05684714999490165;0.22636892015907;1.8446826341537088;3.4028540207482663;2.5116876361990546;-0.6698802940993421;0.39904504970559473;120.0
2.4432791521665993;-0.8558611424761138;5.969613015411937;3.260585128757379;0.3574767637969044;0.9787104789649972;0.1277896366547078;0.4832480295684092;0.06407752448711168;0.5929697709838175;0.05914142959110842;0.22636892015907;1.8249673767202987;3.330505926093369;2.5116876361990546;-0.6715520729891807;0.3957862770255484;120.0
2.690283325248744;-1.579580186544538;7.237624370111439;4.239453462665373;0.24962016245313284;-0.7661946825924121;0.06231022550312843;0.34563112107230465;0.0646748098824961;0.369489059093143;0.06398490873865605;0.22636892015907;2.0520848573543087;4.211052261782853;3.3415314405576666;-1.5230171638670666;0.41852949368832737;120.0
2.6588341016750263;-1.5756166274376455;7.069398780230045;4.239453462665373;0.23413338120768704;-1.1456837857102762;0.05481844019574409;0.34563112107230465;0.0649376508602357;0.3340161112255601;0.06525950851432649;0.22636892015907;2.033443506985308;4.134892496100709;3.3415314405576666;-1.592390827391147;0.40377131243942826;120.0
2.6126756626713123;-1.4528578744937188;6.82607411831498;4.166322487158751;0.2964787842323323;1.3446055044740186;0.08789966949988187;0.34563112107230465;0.06709789762178363;0.1324337589267543;0.07469154685428775;0.22636892015907;1.9983726521907412;3.993493257023857;3.3415314405576666;-1.5006676385501667;0.3914425163854064;120.0
3.0175049992579677;-1.2840179508377763;9.105336420546827;4.657093711760417;0.4428997930315942;2.1037649612362594;0.19616022666742897;0.3763915881291804;0.06737624770625092;0.21121388481800585;0.07469154685428775;0.22636892015907;1.9864327075190538;3.945914901501479;3.3415314405576666;-1.4638179601093726;0.38758050036217373;120.0
3.0175049992579677;-1.2840179508377763;9.105336420546827;4.657093711760417;0.4428997930315942;2.1037649612362594;0.19616022666742897;0.3763915881291804;0.06737624770625092;0.21121388481800585;0.07469154685428775;0.22636892015907;1.9864327075190538;3.945914901501479;3.3415314405576666;-1.4638179601093726;0.38758050036217373;120.0
3.0175049992579677;-1.2840179508377763;9.105336420546827;4.657093711760417;0.4428997930315942;2.1037649612362594;0.19616022666742897;0.3763915881291804;0.06737624770625092;0.21121388481800585;0.07469154685428775;0.22636892015907;1.9864327075190538;3.945914901501479;3.3415314405576666;-1.4638179601093726;0.38758050036217373;120.0
3.0175049992579677;-1.2840179508377763;9.105336420546827;4.657093711760417;0.4428997930315942;2.1037649612362594;0.19616022666742897;0.3763915881291804;0.06737624770625092;0.21121388481800585;0.07469154685428775;0.22636892015907;1.9864327075190538;3.945914901501479;3.3415314405576666;-1.4638179601093726;0.38758050036217373;120.0
3.0175049992579677;-1.2840179508377763;9.105336420546827;4.657093711760417;0.4428997930315942;2.1037649612362594;0.19616022666742897;0.3763915881291804;0.06737624770625092;0.21121388481800585;0.07469154685428775;0.22636892015907;1.9864327075190538;3.945914901501479;3.3415314405576666;-1.4638179601093726;0.38758050036217373;120.0
3.0175049992579677;-1.2840179508377763;9.105336420546827;4.657093711760417;0.4428997930315942;2.1037649612362594;0.19616022666742897;0.3763915881291804;0.06737624770625092;0.21121388481800585;0.07469154685428775;0.22636892015907;1.9864327075190538;3.945914901501479;3.3415314405576666;-1.4638179601093726;0.38758050036217373;120.0
