acc_X_std;acc_X_kurt;acc_X_var;acc_X_iqr;acc_Y_std;acc_Y_kurt;acc_Y_var;acc_Y_iqr;acc_Z_std;acc_Z_kurt;acc_Z_iqr;acc_Z_range;acc_std;acc_var;acc_iqr;acc_kurt;acc_cv;class
1.4370137438243205;-1.3244601787769463;2.0650084999399896;2.1331338450396222;1.2204084686818284;-0.7692794820422049;1.4893968304303251;1.7797917450093825;0.05522791636012884;-0.44635681765224655;0.08080962577750578;0.18864076679922498;1.2170709820880417;1.48126177544075;1.7930981510514186;-0.9480467691321893;0.34579007735771544;90.0
1.4370137438243205;-1.3244601787769463;2.0650084999399896;2.1331338450396222;1.2204084686818284;-0.7692794820422049;1.4893968304303251;1.7797917450093825;0.05522791636012884;-0.44635681765224655;0.08080962577750578;0.18864076679922498;1.2170709820880417;1.48126177544075;1.7930981510514186;-0.9480467691321893;0.34579007735771544;90.0
1.4370137438243205;-1.3244601787769463;2.0650084999399896;2.1331338450396222;1.2204084686818284;-0.7692794820422049;1.4893968304303251;1.7797917450093825;0.05522791636012884;-0.44635681765224655;0.08080962577750578;0.18864076679922498;1.2170709820880417;1.48126177544075;1.7930981510514186;-0.9480467691321893;0.34579007735771544;90.0
1.4370137438243205;-1.3244601787769463;2.0650084999399896;2.1331338450396222;1.2204084686818284;-0.7692794820422049;1.4893968304303251;1.7797917450093825;0.05522791636012884;-0.44635681765224655;0.08080962577750578;0.18864076679922498;1.2170709820880417;1.48126177544075;1.7930981510514186;-0.9480467691321893;0.34579007735771544;90.0
1.4370137438243205;-1.3244601787769463;2.0650084999399896;2.1331338450396222;1.2204084686818284;-0.7692794820422049;1.4893968304303251;1.7797917450093825;0.05522791636012884;-0.44635681765224655;0.08080962577750578;0.18864076679922498;1.2170709820880417;1.48126177544075;1.7930981510514186;-0.9480467691321893;0.34579007735771544;90.0
1.4370137438243205;-1.3244601787769463;2.0650084999399896;2.1331338450396222;1.2204084686818284;-0.7692794820422049;1.4893968304303251;1.7797917450093825;0.05522791636012884;-0.44635681765224655;0.08080962577750578;0.18864076679922498;1.2170709820880417;1.48126177544075;1.7930981510514186;-0.9480467691321893;0.34579007735771544;90.0
1.4370137438243205;-1.3244601787769463;2.0650084999399896;2.1331338450396222;1.2204084686818284;-0.7692794820422049;1.4893968304303251;1.7797917450093825;0.05522791636012884;-0.44635681765224655;0.08080962577750578;0.18864076679922498;1.2170709820880417;1.48126177544075;1.7930981510514186;-0.9480467691321893;0.34579007735771544;90.0
1.8536237221908007;0.2864287199006122;3.4359209034684786;2.4503404787681857;1.0647385366492252;-0.7186627843310488;1.1336681514259335;1.543429058004052;0.05544889925958125;-0.5409873978643418;0.08080962577750578;0.18864076679922498;1.6023652032366333;2.5675742445435774;1.9864708653703178;0.3258687792532366;0.42575603689591457;90.0
2.560041890460385;1.0919732266170254;6.553814480911982;2.587221962787276;0.9218976286948554;-0.6610732278935865;0.8498952377931974;1.3268692876366601;0.057597975251184305;-0.5299985532053881;0.06302895890690316;0.18864076679922498;2.2630450183744526;5.121372755189427;1.9864708653703178;1.8903861645811806;0.5525452536684656;90.0
2.7152836143414545;-0.23299196858351617;7.372765106311192;3.758265575470875;0.8076362959718935;-0.6097464698832122;0.6522763865711999;1.130112433907207;0.06077548145195872;-0.8657962963063445;0.08010859590088709;0.18864076679922498;2.4096116185758207;5.806228152375586;3.0817141849522005;0.2536429181202834;0.5569547910512046;90.0
2.5478517430638523;0.08542626423824294;6.491548504633511;2.972292393495105;0.6723691754583335;-0.47664806100595264;0.4520803081065193;0.9391932101919658;0.060828629099722836;-0.8829066218584842;0.08010859590088709;0.18864076679922498;2.376865343227501;5.649488859835987;2.7981380722533618;0.3412025678610462;0.5444065708665778;90.0
2.5959181532892193;-0.0013912066178426762;6.73879105857651;2.972292393495105;0.5793374347661552;-0.43303907457617596;0.33563186332142914;0.7351448860286716;0.06111220484206064;-0.6062262565412595;0.08482461507086768;0.2039359641072703;2.483976672156422;6.170140107817293;2.9299256080409846;0.13098104309302952;0.5818631229675003;90.0
2.390168858898233;0.10241989383161468;5.712907174046882;2.5527626245722956;0.5404948341375656;-0.27288560081740154;0.29213466572939456;0.6225830688442422;0.05279424386100474;-0.3242304855236714;0.06984806770674006;0.18609156724788412;2.3580804060375136;5.560543201338044;2.5852055668038765;0.12277737638532105;0.5131067141276144;90.0
2.3880022974878337;0.10680220817446424;5.702554972807173;2.5527626245722956;0.49770566718746906;-0.5542458974980649;0.24771093115052373;0.62853584008328;0.05018474670109679;0.24293199117886893;0.05990618945651057;0.18609156724788412;2.3579451173342187;5.5599051763602825;2.5852055668038765;0.12298026140944229;0.5130279364335536;90.0
2.2371371562816624;0.3080070383553795;5.004782656016004;2.5868400805213;0.44155068527203983;-0.8962236271404372;0.19496700766420796;0.5821767250715995;0.05102604995537633;0.059639747027339735;0.06984806770673994;0.18609156724788412;2.222086482854662;4.937668337285403;2.606704486218316;0.28405072298907613;0.4509026083406298;90.0
2.224314353895112;0.3030312546789364;4.94757434494383;2.5868400805213;0.4172854556150493;-1.2631573029081804;0.17412715146785931;0.6460242524809755;0.05232783774430238;-0.0045175227819855635;0.07392678698888534;0.18609156724788412;2.210204403132798;4.885003503627607;2.606704486218316;0.26713488557513565;0.4391495332338955;90.0
2.8353798365301617;0.4501928296604534;8.039378817401806;3.2096695757038325;0.39073017860279974;-1.5918197439711956;0.15267007247097578;0.7003644930373614;0.052375909761938684;0.007541828703901703;0.07392678698888534;0.18609156724788412;2.8240375097806796;7.975187856648263;3.1568834424686907;0.46906743988886823;0.4954353412105735;90.0
2.794553973833457;0.3718155514257477;7.809531912668367;2.5088175470472276;0.3678979660155876;-1.7007394073261628;0.13534891339840646;0.687798228950248;0.04603676599317063;0.05599524207549267;0.06984806770673994;0.1491281737534414;2.7821864542664025;7.740561466303458;2.5036839698903943;0.38334305769150645;0.4616608183945292;90.0
2.81141807025959;0.21211328770111587;7.904071565782155;2.5325320652793435;0.34278132230482283;-1.4985923991500505;0.11749903492104284;0.5675770907707276;0.04566108651001519;0.08815893425622158;0.06984806770673994;0.14530437442643002;2.7986583375219682;7.832488490181228;2.515557825423998;0.22071885835163066;0.44787130849328005;90.0
2.840695850196351;0.1255193570101451;8.069552913322768;3.226299993119353;0.30039203210794596;-0.7475936391891537;0.09023537295394124;0.4616397264550024;0.045490957695180176;-0.17885745136953296;0.06984806770673994;0.14530437442643002;2.829187947187267;8.004304440509701;3.2281124045764997;0.12626706218682102;0.4697803048425915;90.0
2.6242898674599857;1.4503906557302104;6.886897308453149;2.8181005773561507;0.27429308362537075;-0.4152297399059585;0.07523669572471464;0.4616397264550024;0.04352971849536805;0.9561063000589153;0.05761190986030373;0.14530437442643002;2.618042331802657;6.854145651110692;2.783748148066562;1.437506743593038;0.4610522541720835;90.0
2.7510398404834406;1.2772228329441488;7.568220203927155;2.6679083042996266;0.28791169962597085;-0.7488067094623034;0.08289314678151526;0.4628888174379339;0.04445230640993182;0.6265660964520205;0.05761190986030373;0.14530437442643002;2.750204559311784;7.563625118059324;2.6492581115397638;1.2405989630155267;0.5196110412801181;90.0
3.121736470064847;0.7542346543461191;9.74523858853293;2.7810213256450016;0.2577799500231993;-1.415741946654509;0.06645050263396314;0.4628888174379339;0.04318088939196783;0.8320019007846952;0.047160191699806175;0.14530437442643002;3.0152044313248263;9.091457762680868;2.7591108953342425;0.727405627545247;0.5914404710290858;90.0
3.4744326818543705;0.5666459970425055;12.071682460737753;2.7810213256450016;0.25912809496377065;-1.4578817653141591;0.06714736959955293;0.47568767830033826;0.043284354732551794;0.8622027472343399;0.047160191699806175;0.1458142143366981;2.995270030830723;8.97164255759268;2.7591108953342425;0.7700491115942055;0.5858441288473986;90.0
3.9809297587143027;-0.29562182368647616;15.847801743817115;4.59539225551189;0.2724475757832317;-1.8526940335244353;0.07422768155015978;0.5324630335971283;0.0427207338670425;0.7371948303983534;0.042954012440093746;0.1458142143366981;3.11403522891997;9.69721540695465;4.02562231475339;0.47568944247610023;0.6453626364404423;90.0
4.231108203057211;-0.8348310281677653;17.90227662597802;6.687218113622251;0.26884585769696695;-1.767472452314936;0.0722780952008178;0.5324630335971283;0.04311386802813665;1.3101238265351627;0.0479249515652084;0.1458142143366981;3.293795692257127;10.849090062331607;4.3658089615371285;0.054153268204276454;0.7182549336869021;90.0
4.406699511027461;-0.9185016933657569;19.419000580489662;6.7587977910362245;0.2836487564859417;-1.9575980198405798;0.08045661705602104;0.5449555931442058;0.04385402380576018;1.1614484852556575;0.0502192311614152;0.1458142143366981;3.372921280994646;11.376597967786564;4.364252142053305;0.2212576143959849;0.7981789796754413;90.0
4.549985587965126;-0.7657626995831707;20.70236885069035;7.140271083094335;0.33877599663428404;-0.8579235868759244;0.11476917589555241;0.5703545204592304;0.04357129540883855;1.2120856218146558;0.0502192311614152;0.1458142143366981;3.4053435580115003;11.596364748090425;4.319255768888873;0.5513916998781749;0.8621764935344659;0.0
3.7673515724759334;-1.2428221778657085;14.192937870636888;6.0467738060205285;0.4116500984573286;-0.6428267421567063;0.16945580355992831;0.5833135468832618;0.04358749491175989;1.211030722862791;0.0502192311614152;0.1458142143366981;2.447097326626988;5.988285325984952;3.108527293612515;-0.2893765428431676;0.762204606862401;0.0
3.4020440008063204;-0.1479760533669978;11.573903383422275;4.544680043659671;0.4319585083437254;-1.1588564894705107;0.1865881529305363;0.6567838685239666;0.0434251825956223;1.4371134261395089;0.0502192311614152;0.1458142143366981;2.042409625467112;4.171437078200709;1.5964298046833307;1.8268580195910102;0.7263100702507681;0.0
2.7058995819654994;0.401141152022016;7.321892547681063;2.4319366999285883;0.4312565610252802;-1.1331758060970123;0.1859822214273512;0.6440916802388381;0.04120528169631955;1.5024870698212536;0.036708473539308624;0.1427551748750891;1.3611286054380332;1.8526710805416848;1.1812596218949545;0.9590657159925835;0.5661182459434799;0.0
2.362218183434756;3.7080742842666115;5.580074746149799;1.544214753091932;0.43128431627129044;-1.1330083375683184;0.18600616146159446;0.6440916802388381;0.04098447180958016;1.7322245423529643;0.03415927398796775;0.1427551748750891;1.2133129630119837;1.4721283462129193;1.1812596218949545;3.3193131179017312;0.5352401202671444;0.0
1.4043352690600375;4.487115981321174;1.9721575479259277;1.276353711520376;0.4561314922263037;-1.1698973948913975;0.2080559382005946;0.6923207452787152;0.04083226171650982;1.5803330300380025;0.03415927398796775;0.1427551748750891;0.7529678570672461;0.5669605937764408;1.1012457068671804;0.15276019318937414;0.37110265025491634;0.0
0.7525656359964583;-0.2824029358386219;0.5663550364827539;1.078873807424485;0.4750157480270007;-1.1749518711238605;0.225639960873651;0.6923207452787152;0.03892631331965708;2.7212505552220527;0.03415927398796775;0.1427551748750891;0.7470307338567124;0.5580549173264983;1.1012457068671804;0.0898408196860209;0.3730811432117895;0.0
0.6161706341709878;-0.5730571155728322;0.37966625041467733;0.9546608803163612;0.5072478323492582;-1.235891777371008;0.25730036342302115;0.7369252449500607;0.038617001402052584;2.7010905230091744;0.03415927398796775;0.1427551748750891;0.5766386665507831;0.3325121517614652;0.7468868015341505;-0.5996372845565537;0.2638814449250821;0.0
0.6676592110349481;0.2580618194737471;0.44576882207980933;0.7080093018945726;0.5518009178012556;-1.4356267993086966;0.3044842528863081;0.8909696185115582;0.025085831785907387;-0.8135643921376533;0.03415927398796775;0.07545630671968989;0.5937184594909043;0.3525016091402525;0.6724152203966369;0.5066266947832427;0.2547899974085935;0.0
0.7328823914022005;-0.8291999690325794;0.5371165996274081;1.0949748779376127;0.6366689745622864;-1.2355536938001712;0.4053473831701933;0.9483698264408266;0.02486886371079005;-0.773884834659537;0.032629754257163225;0.07545630671968989;0.6733641516506211;0.4534192807281606;0.824465983382221;-0.6645925943273457;0.2982146990109662;0.0
0.7005810274573431;-0.5648758535730678;0.49081377603318654;0.7401145834717977;0.7161318062888349;-1.4598677260067654;0.5128447639785093;1.0378578151973565;0.023271917066228654;0.5498500660259942;0.01631487712858165;0.07545630671968989;0.6368677211313819;0.4056004942190796;0.7192691031595193;-0.012909426237771034;0.2594330529723702;0.0
0.6294243738444877;0.5285152089528569;0.39617504238952533;0.5819339290292511;0.8665632019027175;-0.6410617187146846;0.7509317828918899;1.1976723787673589;0.01898934609631616;2.856671536763257;0.013765677577240776;0.07545630671968989;0.5901642529155694;0.3482938454193922;0.47449537041044243;1.4895635744963696;0.2291553420495799;0.0
0.8293410886214655;2.3915286572296584;0.6878066412758376;0.4672911856537021;1.0307973653922933;0.08410227250136397;1.0625432084996929;1.2421113826639791;0.025654011445853893;6.18579241391156;0.013765677577240776;0.1029876618741714;0.8924547582400187;0.7964754955052503;0.4798742520716752;3.416662814970155;0.3164316287837506;0.0
0.9721259711140058;0.6220272943252306;0.9450289037143488;0.782991224580504;1.1311284164088866;-0.2671460720686374;1.2794514944076758;1.0332543486415078;0.03894280162737604;2.8644274099334854;0.013765677577240776;0.1325583766697255;1.1151918716553415;1.2436529106061438;0.6641014582052849;0.8488103861074446;0.3677804188517068;0.0
1.1456643017125636;-0.27589299478758245;1.3125466922185358;1.0965570794843176;1.2074747505171668;-0.8985054264627403;1.4579952731364942;1.611675905452325;0.0550126190710596;1.1146450302012587;0.03466911389823595;0.1733455694911796;1.3528078641602195;1.8300891173337346;1.2355744589659645;-0.31279288774306907;0.4118716208054056;0.0
1.1478687752917287;-0.29391692840413963;1.3176027252897333;1.1385576118152025;1.261710869693442;-1.440557241199103;1.5919143187025817;2.166570143493511;0.05481754435097307;0.34651152439493305;0.06806362802080138;0.1733455694911796;1.35342711600947;1.8317649583497113;1.5998779358831339;-0.5307777880192103;0.40044273634077787;0.0
1.29762112254426;-0.94903477959007;1.6838205776730255;2.020900883171662;1.2567338857207204;-1.9141349600619808;1.5793800595187009;2.435103558722811;0.05390205033319164;0.06150943158506582;0.06678902824513097;0.1733455694911796;1.529912349866142;2.3406317982729408;2.460243415961785;-1.0676799494782554;0.41945058300810867;0.0
1.437525396773397;-1.1122577902815396;2.0664792663685123;2.075590750577155;1.2380526222146886;-1.975632306014843;1.5327742953726664;2.331619782594883;0.052691331166288796;0.11327802854080776;0.06678902824513097;0.1733455694911796;1.6580624922253078;2.749171228124399;2.3861789566599647;-1.188190708423887;0.41781073920907696;0.0
1.3789941110365964;-0.6670016957031868;1.901624758273613;2.0516594058824467;1.1765620613297065;-1.695099286963885;1.3842982841604083;2.200334275277231;0.04998251645782581;0.36173481895736975;0.06194554909758325;0.1580503721831344;1.5815439531800508;2.501281275840383;2.3435764324484567;-0.7459026212833578;0.37196144178456614;30.0
1.444448176123286;-0.31479025077780165;2.086430533505887;2.032500411755434;1.0623052339644565;-0.990338303957629;1.1284924101082785;1.6085292758199738;0.052587407300902674;-0.837760544878364;0.08080962577750575;0.1580503721831344;1.6049159853122594;2.5757553199108205;2.433428818856753;-0.13299569650486406;0.35139869336654905;30.0
1.500539301275174;-0.0067340359240094785;2.251618194671387;2.14687619653749;0.8868271079666661;0.13348031673487146;0.7864623194245208;0.8795841758625844;0.057402754241771485;-1.2039083524647218;0.09763434281635547;0.1600897318242071;1.6159844037452635;2.611405593147935;2.281883395085974;0.6729754020103637;0.3346547693701094;0.0
1.2968638753877293;-1.3034042782418156;1.6818559112856797;2.14687619653749;0.707828481618293;2.821296741651924;0.5010211593900582;0.44765775073376224;0.05584649686371699;-1.4348818445641112;0.08922198429693065;0.1590700520036708;1.2622361926517038;1.5932402060398692;2.281883395085974;-1.4289486267051177;0.2521457755632843;0.0
1.6285239881340416;-0.43623314478521835;2.6520903799280044;2.68827547085007;0.441088502650814;3.9239074840958827;0.19455906717073718;0.3323770332651792;0.051050690076958304;-1.2324171899202696;0.07010298766187412;0.1509126134393799;1.3744878713766322;1.8892169085614654;2.3018428353064255;-1.1714907876013145;0.27841802013445294;0.0
1.8148084754479479;-0.8937939545691411;3.293529802557705;2.858092973364892;0.25021464321152503;0.46299594261060784;0.06260736767747077;0.31893834248438724;0.04607266686337403;-0.6561821407636558;0.057611909860303845;0.1509126134393799;1.4120599154657039;1.9939132048650108;2.3018428353064255;-1.1386677751184013;0.28739446165873433;0.0
1.8071342834550213;-0.9366048944019806;3.265734318438493;2.858092973364892;0.26564627444462413;1.2206102315597827;0.07056794312630855;0.31893834248438724;0.07068043642134192;2.0295115166267075;0.07010298766187412;0.2539002753135515;1.4152106790066445;2.0028212659744478;2.3018428353064255;-1.2537499153680673;0.2902198601386074;30.0
1.8609309722830611;-1.0051489630309731;3.463064083602379;3.114264442276103;0.4192381906382355;2.7100641493596487;0.17576066048962147;0.3323770332651792;0.08449072086924131;-0.05101984014522208;0.09075150402773517;0.2539002753135515;1.437441262462653;2.0662373830302254;2.3018428353064255;-1.2823540590670066;0.2917244513125127;30.0
1.8658035052392694;-1.0115829359021435;3.4812227201631445;3.114264442276103;0.5859713436020718;1.2323480586289306;0.34336241552281727;0.46687838146508565;0.08093627981228532;-0.3307408417545452;0.10400734169470773;0.2539002753135515;1.419400724387609;2.0146984163920694;2.3018428353064255;-1.2568293501690029;0.29042337970424253;30.0
1.8404754458374466;-0.8102336389695943;3.387349866730548;2.826147643989678;0.7093983551584765;-0.09271768106378128;0.503246026301552;0.8368638011716336;0.08087202186472436;-0.4242908339478447;0.10400734169470773;0.2539002753135515;1.4940630866404032;2.232224506861449;2.8022586162751257;-1.5941997921704434;0.3103058863162462;30.0
1.870889026280034;-1.4234361250234535;3.5002257486550534;3.290006538427155;0.7890737139156094;-1.1611342026844031;0.622637325992573;1.1939580204510118;0.08156796411098384;-0.6579519504301787;0.10630162129091456;0.2539002753135515;1.5928935008668772;2.537309705103936;2.9466384147279534;-1.885734599286;0.35272754534016604;30.0
1.835000033840053;-1.605637158880627;3.367225124192996;2.9972084341747554;0.8474130945578645;-1.7411456549866933;0.7181089528281361;1.5227544244733142;0.08252518069319864;-0.6730976273266366;0.10630162129091456;0.2539002753135515;1.6090840473396832;2.589151471403056;2.7987250207356977;-1.8377368504722473;0.3853452876454335;30.0
1.881434143698866;-1.660469470473474;3.5397944370758854;3.2401458591906;0.8631256362299078;-2.0152492098364077;0.744985863917283;1.6886509905385834;0.08302761711236696;-0.4079670017439683;0.10630162129091456;0.2539002753135515;1.7030626995435383;2.9004225585765244;2.8391945025600447;-1.5223018344115604;0.4403879414036194;30.0
1.796595892425535;-1.1893445253866268;3.227756800680304;2.865794955355476;0.8743393156470417;-1.9290599682592866;0.7644692388861372;1.7313472423041403;0.08068484748547622;-0.36960077468730596;0.0971245029060874;0.2539002753135515;1.6604501410647308;2.757094670961884;2.3743347519165194;-0.8945967236467456;0.48376113620972777;0.0
1.7083426368900774;-0.40375182969865286;2.9184345650165424;2.095193859232147;0.9078866594218863;-1.395467463994566;0.8242581863562322;1.50541790514933;0.07359713333147376;-0.155928471098104;0.08463342510451707;0.2212705210563883;1.629151200265804;2.65413363332751;1.5475358330537534;-0.2525114731915753;0.5574784882707338;0.0
1.793900875600995;-0.543187878061909;3.218080351482017;2.192961650540849;0.8755924609075518;-0.7955338967707607;0.7666621575981426;1.110625620539257;0.06866488469333672;0.09769548153544115;0.07978994595696941;0.20291628428673392;1.7540475222843706;3.0766827104319394;1.8427685502445537;-0.539519596917483;0.6515199867183182;0.0
1.9518201573409306;-0.602885660767826;3.8096019266023755;2.269506673060083;0.773482977429701;0.5217128349934038;0.5982759163735153;0.8190382516875904;0.06517901182779513;0.33426872546195907;0.078515346181299;0.1927194860813704;1.842782671882826;3.395847975791607;2.34245496101882;-0.7563173208839253;0.7261678762721736;0.0
2.0243565378548953;-0.7903892185136322;4.098019392355858;2.759434309134218;0.5745877056050893;1.1239434834156599;0.33015103143252084;0.5167384216970698;0.06571609128757146;-0.5743752517219473;0.07647598654022628;0.1927194860813704;1.9165686992285877;3.6732355788627604;2.695439436835559;-0.7921777944044083;0.8099611976234317;0.0
2.121129592885961;-0.16686835287929083;4.499190749816562;2.3044136057513933;0.4267341614389501;0.2647310242941507;0.18210204453900392;0.5011710800387289;0.06805238700600183;-0.36457370678966183;0.07647598654022628;0.2069950035688793;1.7960559096335527;3.225816830529608;1.8372630375163794;0.5887107140924159;0.848885198337786;0.0
1.8311246151714962;0.6382082496428028;3.3530173562869603;2.2977983489417264;0.39736011915721314;-0.26742027085406145;0.15789506429663464;0.5011710800387289;0.05865751256748213;1.575066712435018;0.06169062914244915;0.2069950035688793;1.378570046708194;1.9004553736810323;1.550680344572588;3.0399252773185066;0.7815926144644149;0.0
1.466694387181828;-1.2762285589040487;2.1511924253906782;2.4535230162496395;0.39232974554145106;-0.17839007807793777;0.15392262923661976;0.5011710800387289;0.05793435730468085;2.109627556046836;0.046905271744672024;0.2069950035688793;0.8363187761504869;0.6994290953418483;1.1654851462826332;-0.4900110646120753;0.567442474352261;0.0
1.2689935697489727;-1.1131627646967142;1.610344680064241;1.9675803067230255;0.3892291988399768;-0.06969496370754263;0.15149936922961021;0.43706212464570815;0.058294877471132246;2.198764318292698;0.046905271744672024;0.2069950035688793;0.6991332770157739;0.4887873390308148;1.0289017761961599;-1.1274293719730073;0.5466980178742702;0.0
1.1218264428727318;-0.5685458614877026;1.2584945679284865;1.4134470887204293;0.3887700088600576;-0.0402142848456808;0.15114211978904926;0.4279239121757805;0.05805318519139924;2.9724656060159496;0.0356887937187722;0.2069950035688793;0.6159647762891911;0.37941260562899326;0.8982622498751862;-1.0322073048043945;0.5404470907456828;0.0
0.9310882837977726;-0.3315318851747046;0.8669253922254817;1.0516744657809252;0.3928582198469431;-0.14601348843552842;0.15433758090130906;0.4279239121757805;0.05782764783201478;3.021003521234464;0.03543387376363812;0.2069950035688793;0.5134907281283615;0.26367272787379487;0.8580474461063738;-1.275088067832535;0.5014332597272767;0.0
0.7942996315043445;-0.40333618239437785;0.6309119046079374;1.0355936697882189;0.42610199581449293;-0.6326381428971918;0.18156291083709414;0.4907763995597868;0.054442716211868206;3.481789993985051;0.029060874885285873;0.191699806260834;0.47567807310657795;0.2262696292343869;0.6596316097695263;-0.8895774452755215;0.4808549171369446;0.0
0.656486432762466;-1.0127785809427203;0.4309744364011877;1.153975962559847;0.454350457915155;-0.9428069395311411;0.20643433860771102;0.6583951344075462;0.05500193300331366;2.635250971204166;0.04053227286631982;0.191699806260834;0.4772356707178953;0.22775388540555938;0.6596316097695263;-0.9350803183660952;0.48092469446572905;0.0
0.6226974919726117;-0.5493457399588844;0.38775216650898076;1.014712854083847;0.45213557508811575;-0.944863215749332;0.20442657826026114;0.6583951344075462;0.05218064360241296;3.0534724310140153;0.04002243295605165;0.1906801264402977;0.474197509603311;0.2248632781139822;0.6596316097695263;-0.9788457478475897;0.47703925319822443;0.0
0.4956571809118119;-1.0055160038035316;0.24567604098944462;0.7413175749280674;0.5070473990152448;-0.9265267051134793;0.2570970648481248;0.7830689944940261;0.05224279958275463;3.0391225210717607;0.04027735291118575;0.1906801264402977;0.46409720785067055;0.21538621833478852;0.6294244034265181;-0.8325716840476554;0.4609279047044576;0.0
0.7180972266725382;1.2024035733285732;0.5156636269547907;1.014712854083847;0.5539080022401117;-1.3001300362205117;0.30681407494563157;0.8256026313056993;0.05464100324437334;0.9477044219211848;0.0628377689405526;0.1906801264402977;0.4570334009486783;0.20887952958271533;0.6294244034265181;-0.7104945194225675;0.44052940579110855;0.0
0.7072591164988435;2.577335984498111;0.5002154578707247;0.7744897009304725;0.5765933566171733;-1.3154166420930755;0.3324598988950588;0.8953691971480598;0.05217203852159486;2.7317666652403227;0.036581013561741524;0.1906801264402977;0.44667249958639665;0.1995163218867595;0.6180725728595248;-0.39191361212920506;0.4112656697846261;0.0
0.6906723542358554;2.670042661413139;0.47702830090569887;0.7744897009304725;0.5586729756752045;-0.5405372696682251;0.3121154937497876;0.8182565611269922;0.034024081051702626;1.5321250699945337;0.036581013561741524;0.1305190170286529;0.43006461408932956;0.18495557229180395;0.5335184562242724;-0.16306344399832065;0.42229178970219805;0.0
0.7032807979941735;1.6534932551307588;0.49460388082732154;1.033635614699155;0.46265321357249656;-0.33633045457423744;0.2140479960289581;0.7160468799653876;0.03438104696888944;1.099783973712014;0.04499337208116645;0.1305190170286529;0.4298220338377939;0.18474698077245763;0.5115204461314494;0.09738724364852878;0.4665571119474537;30.0
0.6720780238729791;2.1037899904260158;0.4516888701730087;0.9597197435771286;0.46225663705012926;0.5968872679750165;0.21368119849689496;0.4241645451065388;0.03463328276371015;0.8699164270481851;0.04499337208116645;0.1305190170286529;0.3888124405981931;0.15117511396392344;0.5115204461314494;-0.693325739188623;0.4317581119451936;0.0
0.7550449464150264;2.114831438813745;0.5700928711068701;0.7744897009304725;0.4922443256025825;0.5332064771094773;0.24230447608794128;0.32061766451334994;0.033706502735612716;1.1103386354843217;0.030845314571224573;0.1305190170286529;0.5482860826764796;0.30061762845671947;0.5335184562242724;1.3179662803709935;0.5314416232271869;0.0
0.7703704763064092;1.4830366335855678;0.5934706707645638;1.024376551580616;0.5430050106338392;0.02575869574740434;0.2948544415734558;0.457218750628128;0.035305235518067045;0.513209156018275;0.03059039461609055;0.1305190170286529;0.5538511394577539;0.30675108467865236;0.5945975311497687;0.7359610980621255;0.5063331916257708;0.0
0.8037707011148951;1.1004602316069818;0.64604733997073;1.0453264907361692;0.5644745386533442;-1.0692009257406905;0.3186315047879058;0.8585273190051987;0.030284376227533712;-0.133128071216821;0.03364943407769965;0.10706638115631681;0.6216916412945899;0.38650049685556104;0.7495804979600604;-0.3284868554584837;0.5176795231803717;30.0
0.9080703657653246;0.5050449144767728;0.8245917891811705;1.0950625759415324;0.5990237801306403;-1.7439062369001215;0.3588294891620017;0.9924670384467947;0.03183899740123572;-0.6129052113749424;0.0451208320587336;0.10706638115631681;0.7705332408727262;0.5937214752898267;0.9360765554428412;-0.4225286758782867;0.5817708239354162;0.0
0.9461713628454279;0.1052940856626454;0.8952402478687744;1.3656129291159385;0.5952851820193942;-2.0869398794094822;0.3543644479318633;1.1466222503841743;0.03186208971685303;-0.6208032041130404;0.0451208320587336;0.10706638115631681;0.8219055466285454;0.6755287275787681;1.4239273027879673;-1.130553781532556;0.5803811462298611;0.0
0.9611503980583375;0.46490897754797517;0.9238100876877006;1.307350522267967;0.5633768542776019;-2.123104237285916;0.31739347993572625;1.1138080604122562;0.031723097455408016;-0.47284000234901413;0.04027735291118591;0.10706638115631681;0.7686802625103727;0.5908693459730155;1.271484313926605;-1.2988540909201014;0.48298486799731444;0.0
0.9826461733907155;0.7018046836963348;0.965593502079416;1.331877591759043;0.5448216388865028;-1.695765692600953;0.2968306181989748;1.1072758075580518;0.025482839925425813;-1.1041629326408793;0.038492913225247255;0.0825940654634444;0.7457004568823756;0.5560691713945837;1.1047075920620144;-0.9508736222736262;0.43234963421463807;0.0
0.6994216631337021;-0.5727267127099847;0.4891906628607139;0.8684239492535493;0.5036202666896719;-0.6683368693704406;0.25363337302057626;0.5978355733294576;0.0251580648019648;-1.0032440416425945;0.037983073314979125;0.0774956663607627;0.7214027435333875;0.5204219183774985;0.9037238688569262;-0.27963001357282136;0.4021434000064303;30.0
0.7046545177473041;-0.7562135790902536;0.4965379893816857;0.9441876539378309;0.4519506382576687;-0.20961211828496856;0.2042593794215141;0.5197756023608572;0.023058847232561;-0.5778838634173705;0.03619863362904048;0.0774956663607627;0.7236378925342267;0.5236517995113771;0.9118940143503429;-0.3297324861054506;0.404002708372911;0.0
0.7280762174024751;-1.005333866192851;0.5300949783470962;1.005687681318807;0.4455692599068225;-0.2868291779666404;0.19853196537391354;0.5197756023608572;0.023104277797121195;-0.6111156262920784;0.03619863362904048;0.0774956663607627;0.7509063794476027;0.5638603906951071;0.9118940143503429;-0.3590465420215487;0.42305924187236377;0.0
0.6306940310583812;0.051863461927195605;0.39777496081267033;0.7816068208083709;0.5637955182099851;1.8790154254451599;0.3178653863536656;0.5197756023608572;0.026856603953392733;-0.763834510701084;0.037983073314979125;0.0836137452839808;0.6179701365349516;0.38188708964902673;0.8139325476021573;0.4018397059473879;0.32977056725724596;0.0
0.6894080349691196;-0.8999839358247489;0.4752834386799829;1.005687681318807;0.7843582660480769;0.8453942311463613;0.6152178895179458;0.8703259193697042;0.029102180239133416;-0.8562880338826447;0.03721831344957686;0.0876924645661262;0.6731095812617546;0.45307650838637453;0.9118940143503429;-0.5548170342483097;0.3694040291711145;0.0
0.908392983253978;0.3218538722452839;0.8251778120250619;1.3996103787452996;0.984766885367724;-0.3957787443758358;0.9697658185168482;1.2750621786494396;0.03189519967770277;-1.2378879291975302;0.04308147241766086;0.0876924645661262;0.6653587329902574;0.4427022435664006;0.9465465655129179;-0.7064254562863349;0.37974915342836435;0.0
1.0566708633201867;-0.07991091544187535;1.1165533133898284;1.3996103787452996;1.1243970969294175;-1.2642723008714658;1.264268831583302;1.7881488173167357;0.031069034554957718;-1.277398421700506;0.05072907107168345;0.0876924645661262;0.6608760080724712;0.436757098045805;0.9465465655129179;-0.5776015954786001;0.37418941083676005;0.0
1.2202036228844242;-1.1224320881018703;1.4888968813002743;1.720114387754263;1.2296984365350643;-1.6606585315434175;1.5121582448167816;2.2562890615052797;0.032356398906061665;-1.2450219278679107;0.0530233506678902;0.0897318242071989;0.6559129077269122;0.43022174252277295;0.9465465655129179;-0.5153247202670583;0.37340722617208316;0.0
1.4022913878988865;-0.9256343181047839;1.9664211365753856;2.4742019302714287;1.2696059398999067;-1.8478030890538326;1.6118992426291257;2.56534298223123;0.029513488895062737;-0.6203866721769973;0.0412970327317222;0.0897318242071989;0.656082747085983;0.43044457102388994;0.9465465655129179;-0.5143483155214944;0.37348255663343527;0.0
1.3466264832855128;-1.0058413177933505;1.8134028854859077;2.291984918467847;1.2630998896756658;-1.7448615619588663;1.595421331298679;2.276060452455065;0.03247501108881586;-0.6196057495475025;0.045120832058733476;0.1050270215152441;0.6309841844443723;0.39814104101892966;0.711587407069223;-0.17397611534250232;0.3692282204808447;0.0
1.2532038791077553;-0.716586878335375;1.5705199626107254;1.9770054566664823;1.2042093128947216;-1.2711164585047148;1.4501200692623772;2.068828385509003;0.03359097877786522;0.3720237247504921;0.039767513000917624;0.1223615784643621;0.600839247184101;0.36100780095675716;0.5731750901386428;0.38057814720720684;0.3610839018667672;30.0
1.432434097332561;0.08724531581363458;2.051867443200949;1.9770054566664823;1.0807467905933665;-0.4064014940127183;1.1680136253778621;1.5822754963368666;0.035283587431899424;0.6550288607273053;0.03364943407769952;0.1223615784643621;0.7896039343577554;0.6234743731532465;0.5731750901386428;1.4211951107269625;0.4479250167850706;0.0
1.6291625069457167;-0.38173055886473434;2.6541704740376524;2.01571280408999;0.8655183406014834;0.012192334044328845;0.7491219979175454;1.039422616163467;0.04108361883980944;0.18821918455622924;0.04868971143061067;0.1488732537983073;0.9446579015005339;0.8923785508673924;0.8213655547177958;-0.1515788331325843;0.49786054351537146;0.0
2.1335635798280532;0.11541420725428048;4.552093549168697;2.783568282430339;0.6790850273828118;1.624435339081237;0.4611564744155143;0.6227931406131471;0.05178804517103591;0.8936884082153439;0.0476700316100744;0.19934740491485659;1.3571995908429113;1.841990729384166;1.420752607806988;1.4631540591899959;0.6043816733158877;0.0
2.2754812418760255;-0.8955411434868646;5.17781488212966;3.924845821919427;0.4605956600201108;2.5358235800835423;0.21214836202936152;0.4095920931234487;0.049220500028519173;1.573708277567484;0.04716019169980623;0.19934740491485659;1.309285737168923;1.71422914155397;1.8999582767310872;0.5309290538718724;0.5207437636400407;0.0
2.476705749627185;-1.4926255632467875;6.134071370236357;4.07345312901693;0.31016721363889943;0.21672603854007788;0.0962037004165187;0.4095920931234487;0.05127715583983188;0.9549332533714278;0.05531763026409703;0.19934740491485659;1.3919058968267959;1.9374020256212072;1.878699586214715;-0.695236838899349;0.5042367750230853;0.0
2.502061052776084;-1.64248334345361;6.260309511818965;4.07345312901693;0.335457017547642;1.2697011146551227;0.11253141062195898;0.4095920931234487;0.04626358253094995;0.9080021187552404;0.05531763026409703;0.1646782910166206;1.2636787545928365;1.5968839948093025;1.8227063725832109;-0.49373754782343565;0.43176763513321736;0.0
2.3985028217419697;-1.2967172886699478;5.7528157859041915;3.69214044667451;0.3998807192060296;0.10989851766043064;0.15990458959273146;0.4253159045085775;0.05512452803002363;0.4403509108926029;0.060925869277046955;0.206485163658611;1.2173993704219224;1.4820612271036928;1.708522552660771;-0.3610541650974129;0.41011557425665957;60.0
2.256722371129771;-0.6266618099341725;5.092795860357575;2.847483392159925;0.4794434431275506;-0.9729512983414774;0.22986601515800087;0.7007924593200364;0.05725310822018997;0.047793364218039064;0.0762210665850922;0.206485163658611;1.1845919375356961;1.4032580584745744;1.6127329124153897;-0.24103159366272975;0.3948690381771792;60.0
2.0755932598386586;0.18913821475234854;4.30808738028767;2.4408425163176917;0.496049572284647;-1.7255868009445774;0.24606517816378123;0.9575029457710308;0.057240724699651704;0.06756304696191112;0.0762210665850922;0.206485163658611;1.275022306841932;1.6256818829445214;1.708522552660771;-0.4009453104211029;0.43568050226373733;0.0
1.6763948927594627;-0.8561845387865585;2.8102998364700107;2.4408425163176917;0.4907812986637945;-1.933357063008585;0.24086628311812064;0.9525394023510322;0.05747761101647404;0.03762006267249565;0.0762210665850922;0.206485163658611;1.3919664691611842;1.937570651269054;1.8227063725832109;-0.707435442376133;0.5009656552010135;0.0
1.701916797859961;-0.7794481909818216;2.8965207868379035;2.4408425163176917;0.4683114269402894;-1.7574492869540592;0.21931559260285;0.8886293125701109;0.05712915222159449;0.24899693369688722;0.0762210665850922;0.206485163658611;1.4575413788473;2.1244268710520884;1.9781827719194203;-0.871272847092468;0.5366694020059548;0.0
1.751688081788949;-0.8966316068988849;3.068411135881448;2.4547550387904384;0.44071636375644785;-1.1961314446700773;0.19423091328270567;0.657884421002828;0.05572455371719111;0.921312335580633;0.04945447129601295;0.206485163658611;1.5405797326187962;2.3733859125558014;2.5063727629544528;-1.057864609171969;0.5851051626793149;0.0
1.853394039096911;-1.0931994203316788;3.435069464159962;2.781941407856848;0.38285123726744263;-0.13087606626698403;0.14657506987721167;0.42127931461622403;0.05434699739102856;1.887480165672015;0.03619863362904037;0.206485163658611;1.59021106059349;2.5287712172338725;2.6054119655483627;-0.8525379895436408;0.659191834354417;0.0
1.8562503196774989;-0.7984667955360465;3.445665249302817;2.5629503783290333;0.307488237229636;1.228412455666814;0.0945490160345889;0.28405888564724446;0.04907985070991931;5.34132523956977;0.03466911389823585;0.206485163658611;1.5846669802904583;2.5111694384228795;2.11787973494743;-0.19155571778624422;0.7163173226626725;0.0
1.5692858980440347;-0.4687536153276211;2.4626582297998727;2.0870576927447204;0.2276687674617767;0.16599370201604668;0.05183306767756455;0.28095936320835657;0.026124989857323;1.118322005978655;0.033139594167431397;0.0917711838482715;1.2463344385511075;1.5533495327185045;1.243685276183824;0.5526224197372888;0.672691867387113;0.0
1.4366493034343382;1.3368763078350248;2.063961221058369;1.759566057537746;0.22108847258151063;-0.09995315542529523;0.04888011270842538;0.28095936320835657;0.025826602824371974;1.128817778297437;0.033139594167431397;0.0917711838482715;1.0950334490638525;1.199098254568677;0.9549859273331451;3.9733288086192107;0.6649631894725876;0.0
0.9800968205724047;0.3746834112024961;0.9605897776961364;0.989482608140586;0.33850694171978507;2.896339788390167;0.11458694959248197;0.28095936320835657;0.04034220408554164;2.993610103542627;0.04308147241766078;0.1667176506576934;0.6289112548783072;0.3955293665126071;0.893578335132434;1.341474860785023;0.4409487910709065;0.0
0.7458380209791045;0.4513537824170587;0.556274353538027;0.6456994451714458;0.43252112569853596;0.7088301669413675;0.18707452417552875;0.3578893181998145;0.0437131584810846;1.026028809210141;0.031355154481492724;0.1667176506576934;0.4610882235107953;0.21260234986034113;0.8912349666326373;-1.5653374922250671;0.3428733871789498;0.0
0.6562237710946544;1.5061168989446818;0.4306296377496894;0.6456994451714458;0.504547705008188;-0.5838893985100141;0.2545683866290295;0.5886352601996074;0.05160734138923275;1.0619250857435816;0.04027735291118575;0.171306209850107;0.5189756153423135;0.26933568931993296;0.8912349666326373;-0.9760224391956999;0.3765209112046101;0.0
0.5893109873830524;0.23366562016284306;0.3472874398503882;0.6456994451714458;0.5111696638554164;-1.5724350232994908;0.2612944252460594;0.9525360782210444;0.0507523955242547;0.030282340934036256;0.07061282757214224;0.1662078107474253;0.5955701846691042;0.35470384486679085;0.8912349666326373;-0.5496544028672613;0.4187508548350193;0.0
0.5755950258212555;0.7942452867298541;0.33130963375017186;0.5537302358993799;0.4999945660914684;-1.917666249009167;0.2499945661209958;0.9406890800924347;0.05064583451801344;-0.07690827658495007;0.07061282757214224;0.1662078107474253;0.5973002926752629;0.35676763962995467;0.8912349666326373;-1.0022111691866655;0.404222726276929;0.0
0.5972871092320058;0.7413935561494472;0.356751890854726;0.6226986086314472;0.47404381101576654;-1.802045094363712;0.22471753476235176;0.8454190358091547;0.05397601597164981;-0.312229443708572;0.07673090649536032;0.1753849291322524;0.5779376767303396;0.33401195818446255;0.8205907064141178;-0.9226042117332718;0.3798748434943771;0.0
0.5518649824036521;0.3458574599841313;0.3045549588033833;0.6452530652752885;0.4452651628926065;-1.526924291695236;0.19826106528577936;0.7415662378632553;0.05608639286198562;-0.48716842464210874;0.0823391455083103;0.1753849291322524;0.5545610792416649;0.30753799060968007;0.7562178134244255;-0.7176684289758056;0.3538454521614183;0.0
0.6428992784787172;0.13793585695632626;0.41331948226845516;0.7142214380073558;0.41621408070339816;-1.6046850469422165;0.17323416097577485;0.7278533110281622;0.056737701674571095;-0.50568457697939;0.0823391455083103;0.1753849291322524;0.5097485679677778;0.2598436025452002;0.64592163057518;-0.4739621065159762;0.31715917313041614;30.0
0.8989587455764854;1.5918762477105783;0.8081268262484482;0.7356430907037202;0.42543626657134737;-1.4836864618726058;0.18099601691416656;0.7278533110281622;0.056393750096128493;-0.49614396567946784;0.0823391455083103;0.1753849291322524;0.46404586194590214;0.21533856198911527;0.6457662773590653;-0.6688004921340589;0.27291549462773823;30.0
1.0999889873579218;0.06656740617064859;1.2099757723087061;1.0117232769252191;0.49346586853327573;-0.7733570111371768;0.24350856340730018;0.7278533110281622;0.05695102875533893;-0.541588176893241;0.08692770470072388;0.1753849291322524;0.44187997693542036;0.19525791401644765;0.5498868756716657;-0.6894933848798593;0.24842968589692208;0.0
1.2097623859806532;-0.9964829499319257;1.463525030533603;1.659227780796206;0.5920585740685094;-0.7367134642244512;0.3505333551280366;0.8224204007846454;0.056227569794978956;-0.49191944166459506;0.08565310492505343;0.1753849291322524;0.38694817221696026;0.14972888798204634;0.47103113834731225;-0.31497060218532563;0.2110212337779404;0.0
1.2660063149273157;-1.4819054056543293;1.6027719894358419;2.2360291219415522;0.7423398860690484;-0.6863721443094587;0.5510685064490078;1.0874001611699144;0.05610949077241108;-0.4822950821792334;0.08565310492505343;0.1753849291322524;0.36492577400767345;0.13317082053509954;0.47103113834731225;-0.09015993936153248;0.19714008361202578;0.0
1.2761134918789756;-1.459402117192318;1.628465644155552;2.1506372498854436;0.9017027222937816;-0.6405314469932869;0.8130677993920166;1.3354674911835511;0.05182818355280159;1.2078608343039137;0.06105332925461397;0.1753849291322524;0.3694918009262441;0.13652419095171922;0.47103113834731225;-0.11077494257717464;0.20178347403850175;0.0
1.30837568108452;-1.404875068251657;1.7118469228533812;2.23014571269517;1.054191384484232;-0.6721276350944272;1.111319475120782;1.418524025549996;0.05004580887853016;2.9232136585161888;0.0337768940552666;0.1753849291322524;0.3719909240668964;0.1383772475881435;0.47888245627503556;-0.26525289660209017;0.20242698855866134;0.0
1.2905521621928289;-0.5175484532321769;1.6655248833405856;1.7364786044423783;1.1376618127635156;-1.0630582878242454;1.2942744002203685;1.6852865054921624;0.03119705597258007;3.2202459318521126;0.023197715917202003;0.116243499541144;0.4483808711809603;0.20104540564099693;0.47888245627503556;0.5104763992925604;0.23880850602542134;0.0
1.0216776089590427;-0.1472362907657839;1.0438251366482665;1.162796803386065;1.1832536202742567;-1.3902362348240103;1.4000891298921347;1.9429202793699833;0.02204239206719231;1.0562345794577235;0.017844396859386148;0.0841235851942489;0.40315044896983154;0.16253028450457674;0.47888245627503556;2.215789736335921;0.21908994023095676;0.0
0.8896618056306497;2.201488804957262;0.7914981283979879;0.6022731849652312;1.1549727725246808;-1.6696653384516995;1.3339621052733481;2.116717024446177;0.016235504369164214;0.2487114293943389;0.015550117263179349;0.057102069950035604;0.41599301232463676;0.17305018630292537;0.548550897226288;1.1095343282530885;0.2220224486084697;0.0
0.8485014712952931;5.080588772061405;0.719954746790277;0.4362036657181201;1.0819510491126596;-1.6809159139219532;1.170618072675985;1.8979120105114757;0.016496367175620003;0.16687652414924387;0.015550117263179349;0.057102069950035604;0.44075384920751154;0.19426395559123782;0.507503934788534;-0.06934359459569098;0.22507858236513423;0.0
0.5543088728647448;0.7816431058799853;0.3072583265365839;0.5743411983666813;0.9771932240698237;-1.4665499922199299;0.9549065971679765;1.642971682855493;0.019459716348462257;-0.525668605362554;0.019373916590190644;0.06118078923218111;0.5342972749274654;0.2854735779949156;0.5573114611320407;-0.0038321706130110063;0.2557081319613375;0.0
0.6489673403446089;1.389324371660797;0.42115860883395545;0.6697257512642869;0.8639673405237722;-0.9713196494018916;0.7464395654917197;1.3264091119725259;0.01903409228840284;-0.4538182458636363;0.017844396859386123;0.06118078923218111;0.6648003191177144;0.44195946429901495;0.6737730937140598;0.9764899886250494;0.28918922800036684;30.0
0.8821917912898088;0.60021601058125;0.7782623566191217;0.9683165682417649;0.73698809324204;-0.10808890073818891;0.5431514495805378;0.8477519328018603;0.016942053282136032;-0.4533141298990131;0.017589476904252072;0.05608239012949941;0.8876184527824581;0.7878665177199249;0.9529749262032612;0.4617453499101739;0.3552374102621623;0.0
0.9552255418898626;-0.8573051325519139;0.9124558358787817;1.4460451697615464;0.6098753651336367;1.432987485160076;0.37194796099688665;0.3777337734341082;0.016924144006965246;-0.5402534608705157;0.017589476904252072;0.05608239012949941;0.9636382126629299;0.9285986049042062;1.3536647183091326;-0.9075239967864718;0.3636325614275417;0.0
0.9576315168334426;-1.267840963954655;0.9170581220327201;1.597237725060821;0.44945101546463895;2.5645403364633745;0.20200621530219512;0.3233588311226232;0.01698175828086214;-0.5714407951322156;0.017589476904252072;0.05608239012949941;0.950898479176798;0.9042079177007474;1.5245923131349204;-1.2329621782568172;0.33975524829147263;0.0
0.9275683274325586;-1.1443828320308336;0.8603830020560342;1.5140324583573987;0.3103345248016158;1.8177196775511246;0.09630751728384469;0.3876535688695908;0.019931632529381186;-0.4413326631911509;0.024472315692872396;0.0683185479759356;0.8636597278982372;0.7459081255932571;1.4267648337012018;-1.023989722016095;0.298523076200026;0.0
0.8797069516088103;-0.9108290921449598;0.7738843207088657;1.3192561236720222;0.23289672479734205;-1.4781486588023802;0.054240884421328885;0.36480468858469317;0.017609561235682848;-0.3853953097013093;0.024472315692872396;0.0591414295911084;0.7694173767159593;0.5920030995924686;1.1502890848263334;-0.8807262511595556;0.25658127522270285;0.0
0.8571427882878446;-0.7982437779591736;0.7346937595138608;1.2714165290511446;0.22254965700662452;-1.6491248744856029;0.049528349833766215;0.3677990226501955;0.015894987533076714;-0.5182798980126083;0.024472315692872396;0.0469052717446722;0.7153773417718063;0.5117647411204959;1.0011091568131096;-0.6739273719281862;0.23451084363949143;0.0
0.9702027154055518;-0.9528766209982374;0.9412933089803062;1.3516128592391503;0.21666604804281647;-1.2913059653267138;0.04694417637449206;0.36285097320210546;0.0153466098809511;-0.6691142765736705;0.02370755582747018;0.0469052717446722;0.7805846268565967;0.6093123596848522;1.1502890848263334;-0.9125938178654842;0.2620171677058808;0.0
1.0320516491027565;-0.8656148315274095;1.065130606415719;1.3516128592391503;0.21693173975379762;-1.3911876191925132;0.04705937971260938;0.36285097320210546;0.015073170182374834;0.005939661245582784;0.020138676455592926;0.0469052717446722;0.8231679532837893;0.6776054793134229;1.1502890848263334;-0.8659345723087445;0.2791324905195682;0.0
1.0811297626940817;-1.109161316416641;1.1688415637829612;1.4970700194673316;0.21368191039325585;-1.2491403821702711;0.045659958829311426;0.3260295162282745;0.016125240453410062;-0.09320507716780008;0.020138676455592926;0.05608239012949941;0.8592149180120802;0.7382502753345057;1.210717223004051;-0.9833647813855009;0.2943905301082534;30.0
1.0806688346673003;-1.1087654634878643;1.1678451302211807;1.4970700194673316;0.19550800879331853;-0.9754184279160831;0.03822338150232832;0.3136229968091644;0.017020676502193813;-0.752373731275332;0.02472723564800656;0.05608239012949941;0.8509673280045026;0.7241453933311227;1.1456483005823;-0.9026137608316099;0.28858690613134885;0.0
1.0938730273122736;-1.1322644732600824;1.196558199881318;1.7524374925903317;0.17151716145955245;-1.8104213813465218;0.02941813667514219;0.3136229968091644;0.016282013428976838;-0.268904655890168;0.022432956051799756;0.05608239012949941;0.8824811356818062;0.7787729548342504;1.540320649533451;-1.0982946186758422;0.30825606261845895;0.0
1.0738575152484597;-0.5279908273935323;1.153169963055596;1.569828711075564;0.21397536794032546;0.2323108199610917;0.045785458085197656;0.3136229968091644;0.015976052149270996;-0.11391398157335225;0.020903436320995228;0.05608239012949941;0.908814657177041;0.8259440810998225;1.1398495644872675;-0.5644110636682507;0.3399976963166613;0.0
0.8676305090864449;-0.39702165442233067;0.7527827002976035;1.2223792370241107;0.27179408960218915;-0.14675403020054886;0.07387202714268282;0.3236506542962412;0.01596618825665699;-0.15343868477824824;0.020903436320995228;0.05608239012949941;0.7671075054457245;0.5884539249111622;1.0889226537837327;-0.5812818997396044;0.31323852969586935;0.0
0.6935886492770248;-0.40238363653132425;0.48106521440592775;0.9908733395873037;0.34012734308459025;-0.3361640219187128;0.11568660951378257;0.42095183140954195;0.01599600790214191;-0.2682532168258212;0.020903436320995228;0.05608239012949941;0.6155513920996254;0.3789035163157867;0.8932447200622895;-0.3976634139475632;0.26715426856427954;0.0
0.5468946769145586;-1.194929006180987;0.2990937876374794;0.8671674584643991;0.38344110258151765;-1.0227095558890187;0.14702707914892996;0.5999300756918446;0.019697887584900306;0.41963303593435436;0.020903436320995228;0.072397267258081;0.4808699111876484;0.23123587148561686;0.8157159827306906;-1.220630959072797;0.22131147196471881;0.0
0.537799195600179;-0.992759522707453;0.2892279747881995;0.834810722897271;0.4054958333392697;-1.3651777386146775;0.16442687085550878;0.6017943274479017;0.01836710700247457;-0.5617701258485416;0.02549199551340877;0.060161109411644806;0.4670717628310305;0.21815603163408645;0.49467487780704356;-0.45537197423103065;0.22210114423922553;0.0
0.5152571775792305;-0.7485893264024204;0.26548995904691464;0.8296097397586835;0.4062390121602487;-1.532942507279161;0.1650301350009347;0.6751463812850005;0.018474010257806404;-0.6603227430513483;0.0270215152442133;0.060161109411644806;0.3919358756335322;0.15361373060862363;0.32730847097062354;1.1640318872861004;0.19262599801848815;0.0
0.5192351935984542;-0.8332888410982188;0.26960518627122415;0.8775969579672476;0.3662493983332469;-1.742306836036318;0.13413862177946534;0.6552443254024258;0.01914323728787281;-1.2260000607184114;0.03339451412256553;0.060161109411644806;0.3474550933004217;0.12072504186040472;0.31542804385263135;3.996654132789668;0.17435047694463593;0.0
0.5797565023274438;-0.6111694493023966;0.33611760199095136;0.7029775941591274;0.32712050747582644;-1.6647235204035666;0.10700782641124224;0.6277917813506966;0.018343075263394334;-0.9599458426548722;0.028805954930151974;0.060161109411644806;0.4235287118571282;0.17937656976735833;0.34538062539570213;0.6795588650687914;0.20501916578491863;0.0
0.5991721914993507;-0.701319301747226;0.3590073150661347;0.6437722442587941;0.29333981635627177;-1.050712459051674;0.08604824785993125;0.40821822467890523;0.01835488049562621;-0.9704973753691237;0.028805954930151974;0.060161109411644806;0.49049658391485135;0.24058689883213882;0.5077660310288619;-0.600296585604832;0.2258021121142347;0.0
0.550230617518987;-0.21331651315017364;0.3027537324553258;0.5119921958360716;0.2576300552681201;0.3009368567063152;0.06637324537745463;0.24808973101694476;0.017860060388955133;-0.6817003881227828;0.024217395737738397;0.060161109411644806;0.4830576986846522;0.23334474025851223;0.41087006607714693;-0.5304223795649048;0.22111075561887583;0.0
0.6006308179500813;0.10805070323557907;0.3607573794713837;0.5052989694375221;0.20488698862557236;2.6335989471265067;0.04197867810805542;0.14575969867421024;0.01636958354316039;-1.0853541870046735;0.02600183542367702;0.0509839910268176;0.4956129018464909;0.24563214847669945;0.35573350863272557;0.6354201901686464;0.24208919873005527;0.0
0.5967736907712141;0.18173358057183073;0.3561388379966967;0.41827110147157276;0.1314325372718505;0.800874936916247;0.01727451185371637;0.11673876691265406;0.015387360309170518;-1.150962665846375;0.0224329560517998;0.0479249515652085;0.498537134912734;0.2485392748869975;0.35573350863272557;0.6979223040755004;0.2460352694142759;0.0
0.5501623706257464;0.8376807646575433;0.3026786340525411;0.38503146743484873;0.09882087908264081;0.4682823112535472;0.009765566142665917;0.1081827857230071;0.019865128912767753;0.6231775762526802;0.022687876006933845;0.0723972672580808;0.4839032296789195;0.23416233569368916;0.35573350863272557;0.971662715302984;0.23700449316150604;0.0
0.5286325338230826;1.3939912862959893;0.2794523558162126;0.3325131469550857;0.0914885099646883;-0.7501062695849795;0.00837014745555887;0.12919201031007221;0.023958859623859893;1.0878578400077723;0.022687876006933845;0.0938105434893442;0.4721002818138075;0.22287867608867645;0.2980808529277599;1.1748228583657958;0.2281420934281559;0.0
0.5331386490225211;1.3270560348662437;0.28423681908155884;0.3134511159341724;0.15693546031657676;3.3788198327866414;0.024628738704775843;0.17848741963403802;0.024416085015552903;0.8797543647288364;0.022687876006933845;0.0938105434893442;0.48621546587156933;0.2364054792527072;0.32149766513172384;1.07454760072445;0.2400684572228131;0.0
0.9367600316633954;4.1425643071948;0.8775193569220054;0.3785672125362054;0.279218437191756;3.9852624236760295;0.07796293566780658;0.22649036083009022;0.026647256251456756;0.09110514916813739;0.026256755378811104;0.0938105434893442;0.5986570995812146;0.35839032287899236;0.41401680651180905;0.6768206719163421;0.310229867854025;0.0
0.9653906434596813;3.8867622132297543;0.9319790944794974;0.5298233683049933;0.403091574710214;1.569333929928701;0.16248281760236002;0.31332314548378415;0.02630572125097253;0.28721200475453024;0.026256755378811104;0.0938105434893442;0.615504394790659;0.37884566000661535;0.5198481514398012;0.23161076084668303;0.3102466931439273;0.0
0.9725594692975551;3.05824427963838;0.945871921320342;0.6586855172219201;0.5378833169722328;0.28400881895236946;0.28931846267705147;0.6223969422428844;0.02628370351637119;0.3047613555797278;0.026256755378811104;0.0938105434893442;0.6443557938313995;0.41519438904409306;0.6483915127184068;-0.30099589546843314;0.33592898858601117;0.0
1.00513584502945;1.6204686199921368;1.0102980669630666;0.9725113313426557;0.6608439615569547;-0.596609569616739;0.43671474152628986;0.9877789388504975;0.02591854632052122;0.5588884170959969;0.018609156724788477;0.0938105434893442;0.6809365761765832;0.4636746207750877;0.8489979543412971;-0.5972956814069259;0.37143096861339164;0.0
1.135383802719414;0.23003560119932823;1.2890963794775976;1.0188658786718863;0.7716647305536247;-1.1232329241125145;0.5954664563803982;1.2192979536181956;0.03066549095114365;-0.292840047830419;0.029825634750688328;0.0978892627714896;0.6106310357880363;0.3728702618675701;0.7083331561354744;0.6056889912487394;0.3560399443421538;0.0
1.1952687140316685;-0.775548316617739;1.4286672987429185;1.3975721862157617;0.8692346476817533;-1.3858355081692753;0.7555688727304218;1.4874284343919806;0.034502401651763125;-0.9311029531797305;0.036708473539308624;0.101967982053635;0.4565521860258678;0.2084398985649986;0.5923404910141079;-0.2229093326941293;0.28247553794852703;30.0
1.2128787408727348;-1.3493365796463705;1.4710748400610305;2.0968167360962573;0.9151063248059009;-1.651131948420408;0.837419585699763;1.669295767034134;0.03591979155890044;-1.2152881353567002;0.05353319057815832;0.101967982053635;0.4419431430048468;0.19531374164900245;0.5486445395597013;0.2860489413698941;0.2803524382691965;30.0
1.2279259086422976;-1.5482150461261415;1.5078020371150123;2.0968167360962573;0.9285793057062847;-1.6418673090500067;0.8622595269859658;1.6858748457095147;0.03728164563962322;-1.4160222406285963;0.05429795044356055;0.101967982053635;0.4298933391718261;0.18480828306430272;0.4500405445355411;0.6499272704453808;0.26736256894349286;0.0
1.2232823842266194;-1.5188842556135336;1.4964197915591624;2.0777802572450113;0.914734640691657;-1.385092047924252;0.8367394628812949;1.5288585084631643;0.0431672972855903;-1.2349929626886156;0.058376669725705946;0.1325583766697256;0.42650720286116567;0.18190839409245554;0.3972739929939708;0.7962775356223984;0.2663376384203994;0.0
1.1823704004512092;-1.0654347697952826;1.397999763863153;1.8307521691523467;0.8624716964028966;-1.0204043158132536;0.7438574270960902;1.281238786530904;0.04643709334819991;-1.384601038307082;0.06245538900785135;0.1325583766697256;0.4350156455493334;0.18923861187270327;0.4652008446202107;0.4495505035839566;0.2687499984909166;0.0
1.2143182691186774;-0.2189092064514979;1.4745688587153807;1.5966986042622853;0.7836875965504345;-0.7910311772863919;0.6141662489869966;1.1209925298190164;0.04747438150152078;-1.1386881657554846;0.0657693484245945;0.1478535739777709;0.523998417244222;0.27457434127444985;0.4652008446202107;0.3646260608812819;0.3131473650870893;0.0
1.1295998061475634;0.7885636257629093;1.275995722048613;1.4108875020612537;0.7458811246013517;-0.5339402646807646;0.5563386520365771;0.9344337360961332;0.044648651436013376;-0.6801585995707241;0.07724074640562847;0.1478535739777709;0.5875765123444707;0.345246157858892;0.6563573213985345;-0.7063500587632209;0.33519616185147555;0.0
1.1797114574673448;0.4317421853382219;1.3917191228797272;1.4916596705242073;0.7153142591278273;-0.5162916505107281;0.5116744893115925;0.848434507592333;0.036137108969130825;-0.8658538570670714;0.044865912103599394;0.1091057407973895;0.6069372016666637;0.3683727667669604;1.0054288550896036;-1.0607654881162747;0.3139219151999911;0.0
0.9582762843580004;-1.198629257797793;0.9182934371629752;1.4857226269665489;0.6611805104146432;-0.8516939678565602;0.4371596673521681;0.8107785205885043;0.036137108969130825;-0.8658538570670721;0.044865912103599394;0.1091057407973895;0.6784410771722453;0.4602822951946365;1.1353822928428225;-1.1964415913681914;0.34169422205214955;30.0
0.8967535127466596;-1.4662884954970827;0.8041668626234734;1.5437227543683938;0.5901828836882772;-1.209131813984198;0.34831583619861056;1.0194802089354413;0.03513627332704183;-0.8465762928353746;0.043846232283063044;0.1091057407973895;0.7059306009664235;0.49833801338081574;1.1649054540480521;-1.6087344607710095;0.3312126980478835;30.0
1.1020335558372356;0.7945848413733643;1.2144779581912617;1.4037216420881862;0.5229362788880514;-1.5849039279312913;0.2734623517772819;0.8947526445953338;0.0321859368509842;-0.3124439764034087;0.036708473539308624;0.1091057407973895;0.8528099111010391;0.7272847444721623;1.2678057869021746;0.13927638432715525;0.3566179656311079;30.0
1.2474762597067584;-0.5307484686369933;1.5561970185319636;1.4741335469358532;0.45785918903829426;-1.7123398976483566;0.2096350369868045;0.798345301473214;0.03267739626747144;-0.5304855546644635;0.0438462322830631;0.1091057407973895;0.8902496335366816;0.792544410012196;1.2409453086600553;-0.7580236557235929;0.34303268452835256;30.0
1.4437543830697857;-1.108363017181295;2.0844267186332175;1.8525514928054965;0.4076854509495334;-1.2000579221862446;0.1662074269159244;0.6316186575305165;0.033735934818675505;-0.7982502170809735;0.047670031610074375;0.1091057407973895;0.9819506793677253;0.9642271367107372;1.4027404260304737;-1.1199295947312458;0.3503943207978042;0.0
2.127770411241657;1.804520645643524;4.52740692295549;2.7977890496515476;0.34241023389563374;-0.88579382577033;0.11724476827646259;0.4594653909906219;0.03456660813503096;-0.9609237767107901;0.05608239012949923;0.1091057407973895;1.5618409720343112;2.439347221925082;1.5283574968915477;3.7226833077974715;0.47473520148112364;0.0
2.1051455993903185;1.0548007767229863;4.431637994632423;2.321853088445489;0.2937890405273912;-0.6928168796011789;0.08631200033400509;0.4216713115576298;0.03767006790301676;-1.5310580676349874;0.06245538900785145;0.1091057407973895;1.504647797980784;2.263964995968422;1.5827358908196034;3.162367142606422;0.4260651162435589;0.0
2.0987878598893634;0.5402912395420603;4.404910480818975;2.1973342902659407;0.2701652128785297;-1.3818520505825989;0.07298924224970126;0.4216713115576298;0.03588677315592775;-1.0410095297580773;0.05608239012949923;0.1091057407973895;1.431133921652629;2.0481443017048337;1.462246490895002;2.797994086997839;0.37867036908325175;30.0
1.999226640187504;0.4908792083736696;3.9969071588354157;2.410634661567796;0.30022571656341007;-0.7406736966665852;0.09013548088601303;0.4216713115576298;0.03562075019888224;-0.9820292918373424;0.05531763026409695;0.1091057407973895;1.3589394180534098;1.8467163419393402;1.5455160518768327;2.0733231646543975;0.33473690881647267;30.0
1.9622933537941496;0.7717812357282867;3.8505952063446913;2.3434994260209003;0.3527270730954043;-0.9282171606212791;0.1244163880944507;0.4808878383802728;0.030866726034077842;-0.7106667073594243;0.04359131232792893;0.1009483022330987;1.3305385428730931;1.7703328140708536;1.5326198021599526;2.3160013751506323;0.3254243557935215;30.0
1.773630636103563;0.512865966662893;3.145765633325129;2.3434994260209003;0.3734665629935504;-1.4566582710980147;0.13947727367421556;0.6458281441679925;0.03138487791443023;-0.8068769763241588;0.04461099214846528;0.1009483022330987;1.4325034448112732;2.0520661193961645;1.5326198021599526;1.8194352659198103;0.3563798652196728;30.0
1.8429581819878293;0.30362063674543516;3.396494860555885;2.3434994260209003;0.3592119184616128;-1.6414286587637232;0.1290332023648724;0.6814849918138981;0.03201072257185976;-0.8920611654209223;0.04461099214846528;0.1009483022330987;1.5384109046934824;2.3667081116798188;1.5326198021599526;1.1415469179711617;0.39181165839858817;30.0
1.9881487032224305;-0.06704779291105309;3.952735266125032;2.5680336913643407;0.32741820373391256;-1.6537383520818585;0.10720268013634189;0.5426119644329244;0.02947252613303534;-0.8114290816808857;0.044356072193331174;0.0927908636688079;1.6468855928687183;2.71223215599855;1.837638958104196;0.5336846232610336;0.4314596510494623;30.0
2.1405878818875346;-0.4857227407905201;4.582116480083761;3.382371714344074;0.2971482123635725;-1.1178350003918258;0.08829706011086676;0.4736922702307098;0.026948248495711247;-0.9096564438926066;0.042826552462526646;0.0774956663607627;1.7373505474956419;3.0183869248834068;2.732570370539153;0.08675548992175663;0.4679998636335985;30.0
2.2843962734308434;-0.7649039614959987;5.2184663340647255;3.5624378742103517;0.2626793642066065;-0.8095008085521189;0.069000448379987;0.39626953308525126;0.026588070961215928;-0.9455427444614082;0.042826552462526646;0.0774956663607627;1.831197639950392;3.353284796559885;2.791855140752924;-0.05795188920707928;0.5243634913894122;0.0
2.4660204000951533;-0.9068962877344366;6.08125661368546;3.907600842988023;0.24839252459294633;-0.31405390620600365;0.061698846273657446;0.2701659987285394;0.02812225901206183;-1.103382175982017;0.044356072193331174;0.0836137452839808;1.9111136077079554;3.6523552215665163;2.812557098439507;-0.09153363789397101;0.5796380616163423;0.0
2.5578289632547846;-0.6281398496846994;6.542489005265045;4.027132170602842;0.2577370668848718;0.39883081460036657;0.0664283956464169;0.2130236340260856;0.028033188170946712;-1.0937946119192026;0.044356072193331174;0.0836137452839808;1.956876898946209;3.8293671976293315;2.859598781342279;0.3667609466192466;0.641415966099053;0.0
2.069998112805321;-0.9448188194455276;4.284892187017591;2.998356138079277;0.26946641925290277;0.24259566772994326;0.07261215110498116;0.2302755618052037;0.028932929973824538;-1.1416370687954833;0.044356072193331174;0.0856531049250535;1.4766980396185452;2.1806371002132545;1.8404500930265453;-0.5652125288271412;0.5829585866572183;0.0
2.021537564955275;0.4594946321791661;4.086614126525303;1.6368496328630413;0.2919893073879781;-0.4046048955011915;0.08525775562891116;0.37887876283956223;0.026199055621235166;-1.3485611260630388;0.03696339349444265;0.07341694707861719;1.3502046311986464;1.823052546110273;0.5902431750558454;1.5667898426993265;0.5879691047450474;0.0
1.7556210321824781;3.6389642137449476;3.08220520864147;1.3008741640026593;0.3319352961089556;-0.9535587130756173;0.11018104080294004;0.5060039215222636;0.02634297461080906;-1.2242034567570497;0.03696339349444265;0.07341694707861719;1.1337286559469328;1.285340665315239;0.3310631908798316;7.047601705946246;0.5653167401775966;0.0
1.0219631420141535;2.9516796691668863;1.0444086636354408;0.9652076716343532;0.34310256623711527;-1.5995218979973336;0.11771937095849407;0.5910196991938559;0.022860076809489673;-0.3473218039607048;0.0331395941674313;0.07341694707861719;0.5168827176352184;0.267167743789969;0.43752274099699995;4.692851646693731;0.3131590773155106;0.0
0.6585980166992884;-0.7615561854529826;0.4337513476002362;0.8512297477992353;0.3563526719421158;-1.8400114069364915;0.1269872268002852;0.6665354238415515;0.021650148880601666;1.1995360283909462;0.023962475782604173;0.07341694707861719;0.2851394748162973;0.08130452009851385;0.487363331923901;-1.2467063603992183;0.1894580505833912;0.0
0.7144863462515387;-0.3276276242546992;0.5104907389798737;0.9508607380568369;0.3452025171709522;-1.5291992905423537;0.11916477786116153;0.6235217739148935;0.016535475100300408;-1.012256592567689;0.023707555827470098;0.0479249515652084;0.3224214070433798;0.10395556371983279;0.49412880861266006;-0.9091855548427866;0.21064370502431418;0.0
0.6120574058454893;-0.606053521504071;0.37461426805030995;0.8333029176942552;0.32097510455401135;-0.9555704870525523;0.10302501774345853;0.4356842502730396;0.017255994443098124;-1.1289788364261566;0.0265116753339451;0.0479249515652084;0.3088327258650226;0.09537765256522018;0.42625711792508203;-0.5437745023795572;0.2038701752759101;0.0
0.5679474324022978;-0.6376004960491577;0.32256428597236264;0.7059826054363734;0.3105038856775886;-0.9734125842953637;0.09641266302088099;0.4356842502730396;0.018382325137539225;-1.7793248519042186;0.03645355358417447;0.0479249515652084;0.3378515859740937;0.11414369414521044;0.4334281222341474;-0.8339574339856041;0.21972589218513228;0.0
0.5161468903232129;-0.3607246649743293;0.26640761239032285;0.6321741809549227;0.3370869961651099;-0.18466458265530022;0.11362764298361681;0.4356842502730396;0.017577325664847054;-1.8123788858536873;0.03466911389823585;0.044865912103599304;0.39495409484005145;0.15598873703092436;0.4945216453029;-0.7705041276134043;0.2503440455588983;0.0
0.4436959374699904;-0.1293856658838946;0.19686608492737365;0.5436716936396779;0.4305102175489106;0.3602526022032268;0.18533904741401033;0.4575689730558046;0.01600093141726426;-1.2956312493681634;0.025746915468542825;0.043846232283063;0.48122147235479035;0.23157410545531223;0.7690206070939514;-0.8784397921903639;0.2905225880991392;0.0
0.44139378389384665;0.09173635376048424;0.19482847246012777;0.4027916135303955;0.5574367468040552;-0.1614553150404668;0.3107357266874883;0.7500557527142349;0.01723041307393503;-1.6295331117347753;0.032374834302029025;0.046905271744672;0.5829173390723813;0.3397926241912255;0.8460578338459732;-0.9385068042841131;0.33037133653887046;0.0
0.6928587800991515;3.3199076203466005;0.48005328916048434;0.34709556519403295;0.6591243974675763;-1.0870298355920693;0.4344449713369956;1.0265760005512414;0.01860741061577911;-1.7454889779214602;0.03415927398796765;0.0499643112062811;0.8416720212517538;0.7084117913580126;1.0592725787695048;1.4565223084891714;0.42519618270175885;0.0
0.7442717841925004;1.1309401189206496;0.5539404887450878;0.5209895219829117;0.7099411767736945;-1.7015624414659587;0.5040164744788181;1.3132514676250924;0.019468012534990694;-1.306832087647357;0.027531355154481425;0.0581217497705719;0.921752007305344;0.849626762971431;1.021372944398225;-0.16630722562488687;0.4213260975616917;0.0
0.8182332705302484;-0.37157381667818373;0.6695056850026266;0.9803465917050143;0.7121121126897056;-1.842901491814888;0.507103661039396;1.4144340800031237;0.019036781990739195;-0.942969134578015;0.027531355154481376;0.0601611094116447;0.9864892460720441;0.9731610326157901;1.4251252483650654;-1.0778408103849901;0.42076754129864835;0.0
0.8085772927662109;-0.4826568964437759;0.6537972383771348;0.9137514266574991;0.6522349657037279;-1.5889514322643115;0.4254104504865431;1.204851629471535;0.018642724243955917;-0.3456584041157126;0.021923116141531477;0.0601611094116447;0.9329467942922117;0.8703897209801145;1.0980813349166598;-0.9067176701303248;0.3762404207471696;0.0
0.8366992051222446;-0.2214244480646654;0.700065559852196;0.9137514266574991;0.5904039523763088;-1.0787058824693254;0.3485768269815667;0.9231367186005492;0.01850021378539643;0.0810695835044189;0.013510757622106623;0.0601611094116447;0.8458740146171204;0.7155028486044844;1.0732932200507337;-0.9635853226793788;0.3325997730551244;0.0
0.8214036737186036;-0.00363920859551096;0.6747039951984181;0.8688373616999068;0.5356659296466375;-1.4018388822837753;0.2869379881841964;0.9231367186005492;0.016090031395094295;2.3980346850594185;0.008922198429693075;0.0601611094116447;0.7903463123864393;0.6246472935028431;1.0732932200507337;-1.0576106565152714;0.30590773233368646;0.0
0.823402826355191;0.01234215821473678;0.6779922144497168;0.8688373616999068;0.5504934728775287;-1.1997885630893714;0.30304306368076245;0.9231367186005492;0.018380611047959326;1.4465309606221233;0.011726317936168074;0.06933822779647181;0.8281157098693861;0.6857756289324772;1.2721689039347561;-1.1685704362423268;0.3254233652141805;0.0
0.8084370355241733;0.23687193106901533;0.6535704404071134;0.8550480662929445;0.6501978463016118;-0.4834636807145658;0.4227572393352544;0.9267830683630613;0.0131484432078552;1.2750241910816302;0.009686958295095374;0.0520036708473538;0.8472518142806067;0.7178356368017798;1.2721689039347561;-1.171804890989506;0.3349734484639115;0.0
0.84623725261207;-0.2249826116720341;0.7161174877084243;0.8623817589508371;0.782710248135496;-0.8733552910241618;0.6126353325363296;1.240260009666656;0.014843313349761945;0.13870475902769183;0.011726317936168074;0.0520036708473538;0.9869802848211165;0.9741300826255723;1.314189809036555;-0.8840904938117584;0.4076776901637865;0.0
0.856345151114962;-0.3497208388086057;0.7333270178381072;0.9396011771460526;0.9265031079207914;-1.297857399531187;0.8584080089868855;1.5699324334084381;0.015274325980640636;-0.23945355482906494;0.014785357397777123;0.0520036708473538;1.0747764987091164;1.1551445221774275;1.4672267687141718;-1.2758682759080222;0.46515683085292814;0.0
1.1759341973692166;0.8969341139710594;1.3828212365423838;1.1702369027293766;1.0567337726328352;-1.489666364182082;1.1166862662228245;1.9099652782646952;0.025553565439622505;5.15481847127099;0.014785357397777123;0.1009483022330987;1.106828475300952;1.2250692737370301;1.5930286939487555;-1.3830557921168085;0.5004232050101562;0.0
1.2282144041160137;0.0012784349378275944;1.5085106224780547;1.5697978241353745;1.136067802044424;-1.4969051024098692;1.2906500508420482;1.9279118941728792;0.039322027510050934;2.5207927589783417;0.021668196186397475;0.1356174161313346;1.1915535782702649;1.4197999298886723;1.8018420405447442;-1.1507707774784377;0.5904885960828232;0.0
1.1011208244239539;0.6282246989933273;1.2124670699800877;1.0331527059731345;1.1792271653150967;-1.3180971924694034;1.3905767074170783;1.8645102678791674;0.049259292578778306;0.11923331232221193;0.04078719282145398;0.1468338941572345;1.0270972996561931;1.0549288629610436;0.8046013510864025;-0.2602143253893745;0.5634109822980427;0.0
1.0257983150923458;1.1099850067356802;1.0522621832462955;1.0161852110239549;1.1537055495298414;-1.1899444164274706;1.3310364950159534;1.7595260083275244;0.05063020149090059;-0.9970929005879415;0.0762210665850922;0.1468338941572345;0.857561759405288;0.7354121711942931;0.5839217768914935;1.1242190150331959;0.5088416068347199;0.0
0.9154275086678781;1.820592750414663;0.838007523625878;0.9233832703827468;1.068332973681157;-1.1382080226397933;1.1413353426544237;1.6921392173233536;0.04998692885362861;-1.4981704702915526;0.0810645457326398;0.1468338941572345;0.6218360703055403;0.38668009833303696;0.5290839626804995;1.2239514450503906;0.40661981771734357;0.0
0.8646268127647556;2.339827768809597;0.7475795253517398;0.8786892539121974;0.9569418518727015;-1.1366207111118394;0.9157377078655554;1.6037170100581122;0.049749761943293995;-1.6622730495999447;0.07978994595696941;0.1468338941572345;0.45540489390540456;0.2073936173929928;0.4692303000318261;0.07026005968263387;0.3227827396176271;30.0
0.9204253624750497;3.2298752547692087;0.8471828478873267;0.523822348976749;0.8261613400916242;-1.0462216362172505;0.6825425598619884;1.3226737017743018;0.04757026842878835;-1.3301288014734585;0.07418170694401947;0.1468338941572345;0.535858151628157;0.28714395866634485;0.4692303000318261;0.20149558175384388;0.3655987396398408;0.0
1.0355584521171408;2.057003057371973;1.0723813077512485;0.6575380480796899;0.696253515653304;-0.6399852556975746;0.48476895805958553;1.0164394649056732;0.04582366552810583;-0.9879293995094101;0.06576934842459463;0.1468338941572345;0.647313130647044;0.41901428910807703;0.5234789403133318;-0.014525278499874932;0.41866645150491927;0.0
1.3193271333539724;1.3363401537801343;1.7406240848040104;1.0590446369786806;0.5577970998488084;-0.12349566006444282;0.3111376045997416;0.6870102258102736;0.04045551042176909;-1.526876854277977;0.06551442846946055;0.11726317936168029;0.9609639672128552;0.9234517462814694;0.8563167200879014;1.703620608488849;0.5505653388572795;0.0
1.3933699726388022;0.5625417325789865;1.9414798806514568;1.51404360113423;0.43468878063822053;1.1282082662437865;0.188954336012743;0.4176272698475032;0.03774401727817266;-1.4895627164445557;0.057356989905169756;0.1070663811563168;1.0194120147164472;1.0392008557482457;1.26442564969979;0.18548626611290236;0.5453273315676033;0.0
1.4875150943893778;0.28971321311263787;2.2127011560362395;1.6402202444044653;0.3067135214992344;2.2545219379420143;0.09407318427046135;0.2241685732929104;0.03684843415439407;-1.3979076789208977;0.0530233506678903;0.1070663811563168;1.0715888324567333;1.148302625845985;1.3735413456912826;-0.6325627847163736;0.5073769771037256;0.0
1.526489586559005;0.4034259908941566;2.3301704578730815;1.6850776876326066;0.21455922706735261;0.30590443105404574;0.046035661919739776;0.2241685732929104;0.03477211033446247;-1.3322077315366745;0.051493830937085754;0.1060467013357805;1.0534012924345384;1.109654282902756;1.4852480247898;-0.792218073507976;0.45673397336281324;0.0
1.1353308068940142;-0.28420646049318066;1.2889760410826137;1.5754258553370746;0.29820450395371506;4.510482130984371;0.08892592617828125;0.2241685732929104;0.03464490850072035;-1.2024397396860118;0.051493830937085754;0.1060467013357805;1.0096062250187352;1.019304729596581;1.3815905809914049;-0.32913304069251126;0.4237228542097518;30.0
0.9443413014519987;-1.1289120972054585;0.8917804936280547;1.553687833442915;0.4008595859330599;1.475744345007365;0.16068840763442427;0.23779044740960142;0.0338597761726008;-0.47382153093462115;0.05098399102681755;0.1085959008871213;0.8738924667688924;0.7636880434754197;1.3815905809914049;-1.0351243683246854;0.3547016797092346;0.0
0.935025513282536;-1.0978932220251403;0.87427271048927;1.5208891418281456;0.48634028872480295;-0.4028363514831628;0.23652687643692472;0.5432955791930587;0.027249240287927353;-0.9248152971467846;0.033012134189864345;0.07800550627103081;0.8807104712148133;0.7756509341074185;1.4000994353441234;-1.0542859563104647;0.3583664296592711;0.0
0.9673537408079145;-1.2421959085890166;0.9357732598550659;1.553687833442915;0.5444710972889519;-1.4162145586869388;0.2964487757830354;0.9457735854665141;0.026987241827789894;0.13577010360571712;0.0266391353115122;0.0887121443866625;0.9217543887198013;0.8496311531242147;1.538254124596581;-1.2162250607524545;0.3823587267255604;0.0
0.9271522179483632;-1.0264532385362808;0.8596112352465691;1.5208891418281456;0.5836348105536381;-1.8516260665271178;0.34062959208998106;1.007352855479321;0.025302495908963944;0.3654462854954722;0.0266391353115122;0.0887121443866625;0.8940473600489864;0.799320682010562;1.538254124596581;-1.072306087196333;0.3620049219842463;0.0
0.8353066301884857;-0.7212584006113787;0.6977371664368437;0.9280190583322732;0.5895745769430696;-2.0894895874316615;0.3475981817775995;1.1059629959859867;0.020454916755046296;-0.4278138125854866;0.0266391353115122;0.07035790761700811;0.835643169021108;0.6982995059316401;0.976670649267549;-0.7352839304880244;0.3247997251620632;0.0
0.9248634940479536;-1.090661375386058;0.8553724826225892;1.5208891418281456;0.5750140725830505;-2.0206515647840795;0.3306411836685456;1.1562178727131762;0.020229361459398337;-0.26243043930415977;0.022815335984500848;0.07035790761700811;0.9183414604102673;0.8433510379084627;1.538254124596581;-1.1356270402912596;0.3710839327234241;0.0
0.9759738023024361;-1.277324774392383;0.9525248627806747;1.5735238983304431;0.5261683125072609;-1.5219443088089064;0.2768530930867386;0.9797324579683082;0.023624305253906273;-0.809578110697065;0.033267054144998476;0.07545630671968989;0.9733916182374426;0.9474912424549072;1.6002611611007311;-1.2895473470561654;0.41343206764952595;0.0
0.8289805596980554;-1.0696041952517172;0.6872087683573012;1.2733508727840608;0.4721295776450197;-0.6690346174648653;0.2229063380872647;0.5668279086829919;0.023431466954682015;-0.7952196229358018;0.029443254817987125;0.07545630671968989;0.827073834111951;0.6840511270726432;1.307615769641778;-1.0934122490786484;0.3788748181965743;0.0
0.7928857905940527;-0.3142270450856592;0.628667876925956;0.9848417821545605;0.40727475090835746;0.09722058014471599;0.16587272272746462;0.4855171503990925;0.023974306670360237;-0.7889436776337119;0.03199245436932806;0.07545630671968989;0.7885244065939846;0.6217707397943955;1.0201228518253296;-0.26484282087009203;0.37483074244147174;0.0
0.8986657778563006;1.6956019216536586;0.8076001802900699;0.9416858822319985;0.38828246691685037;-0.337019558102076;0.150763274115035;0.4855171503990925;0.024230036793564936;-0.9452869274129935;0.03581625369633933;0.07545630671968989;0.7290233814373471;0.5314750906823437;0.8997783189076372;0.05403473793694881;0.39365641573224985;0.0
0.9693074643922939;0.5465951221660981;0.939556960526618;0.83708285222022;0.40225378661994504;-0.27918795763387655;0.16180810885008426;0.4855171503990925;0.03287817631517609;0.34648115069637064;0.04180687264199041;0.1091057407973895;0.6419083524934006;0.4120463330007919;0.7993687031229231;-0.7541875741981926;0.3918755123780038;0.0
1.0121017458005919;-0.6421536656592044;1.024349943852606;1.1186483453755045;0.46305924086770645;-1.2075310112598467;0.21442386055297658;0.7016257182638789;0.033069163795138065;-0.1814919401472202;0.04907209136331181;0.1091057407973895;0.6717165496076714;0.45120312301683524;0.8426596760436862;-0.6705581352714616;0.4474730955611627;30.0
1.1152672394115488;-1.4176819849060005;1.2438210153046567;2.0503911457902086;0.5215502348232612;-1.6753770925058127;0.2720146474441989;1.022836384063805;0.043512139801974936;1.1936209976832666;0.043463852350362;0.17130620985010692;0.6960715392261392;0.48451558772064657;1.1325073789038251;-0.8861120675011213;0.4794737649974894;0.0
1.4491989993236103;-0.2548858526153367;2.1001777396405537;2.299776389539158;0.5514288035417335;-1.843708979766797;0.3040737253754678;1.0619971277648963;0.04659009705977457;0.44014275573128997;0.05429795044356062;0.17130620985010692;0.7403723605405644;0.5481512322524076;1.2687432979519917;-1.4657744328967586;0.4879245047036916;0.0
1.7077545554523208;-0.8770015413798521;2.916425621668154;2.4049042476666735;0.553095904983756;-1.6288201696089466;0.30591508010980006;0.9137128760408627;0.04488978255379022;0.9391548514452097;0.04078719282145402;0.17130620985010692;0.8001362878134102;0.6402180790758244;1.5102933874491757;-1.8054640516025724;0.49594891679248665;0.0
1.6033320178544455;-0.5724261668380772;2.570673559477208;1.8894242478337082;0.5241468018897263;-0.9945713362832597;0.274729869931228;0.815477296174574;0.04424529985761164;1.2622218341195175;0.03823799327011313;0.17130620985010692;0.7798424217420301;0.6081542027484743;1.2687432979519917;-1.5580004111327377;0.5228063741307653;150.0
1.4435739008901418;-0.27814980110956894;2.083905607331181;1.6104088403499102;0.4610117220800731;-0.11087959270124215;0.2125318078952346;0.6867035183010182;0.04904270306352914;0.031464605410096484;0.042061792597124475;0.17130620985010692;0.6843570290045776;0.46834454314797236;1.1325073789038251;-1.0279866367785897;0.500441091169871;150.0
1.4423338753018309;-0.5642428219245302;2.0803270078431977;1.5660812561913346;0.373328750247922;-0.2804811085085027;0.13937435576167534;0.35465119236005305;0.05120290669382808;-0.5164350098378716;0.05735698990516972;0.17130620985010692;0.6834827572287828;0.46714867942905924;1.1325073789038251;-1.0669899022227216;0.49591754828358803;150.0
1.6661846381522945;-0.47765298597396394;2.776171248414692;1.8588013122337337;0.3480533442721758;0.76562999462429;0.12114113045904573;0.27856146196784604;0.05200541269547548;-0.6821243775774026;0.06882838788620371;0.17130620985010692;0.9325868765318167;0.8697182822793699;1.2687432979519917;0.23654094115446342;0.5943782018019859;150.0
2.0821676477293476;0.9715987264986754;4.335422113250765;2.373971412895605;0.4309696958128356;3.260319152752062;0.18573487870900804;0.2802447569297942;0.052010865060286286;-0.6904695835173098;0.06882838788620371;0.17130620985010692;1.5788231007772957;2.492682383548035;1.5546479207628208;3.3295281694660503;0.8291122403968572;150.0
1.8798427901780705;1.58392917030009;3.533808915784473;2.2205221114908382;0.4920283047823866;1.1741118842124794;0.24209185270702915;0.32600753202991906;0.05325429602619766;-0.9331720145305459;0.07035790761700822;0.17130620985010692;1.5787153506469638;2.492342158368366;1.5546479207628208;3.3402576924700536;0.8296416441394632;150.0
1.8950754310331974;1.5239767971601705;3.591310889305659;2.253409260254187;0.6205227750015685;0.03927000537035118;0.38504851429564724;0.6398053543366159;0.05348210864570085;-0.8226456853829304;0.06729886815539918;0.17130620985010692;1.531092087687494;2.344242980979249;1.5205503233554944;3.206925888151957;0.7467682844901374;150.0
2.3925585088237105;-0.0375717003336029;5.724336218144737;2.6866958539826;0.7302522361749206;-0.7747319487348256;0.533268328438472;1.1577538772332225;0.055164112846443666;-0.5704963620142128;0.06729886815539918;0.1815030080554705;2.010969256088158;4.043997348931759;1.695537090866722;1.0514270851140888;0.7834462348115622;150.0
2.3870694685922307;-0.02654949940431253;5.698100647885195;2.655640911822602;0.8332157315872979;-1.2637758229768374;0.694248455364556;1.3073802229866505;0.05457033875150069;0.10740327389560712;0.06016110941164471;0.1815030080554705;1.9158776351287847;3.6705871127866647;1.7708345215214707;1.0841063382685496;0.6938007888810234;150.0
2.3879218035493444;-0.02792652492995368;5.702170539866354;2.655640911822602;0.932944013310867;-1.4989579483571487;0.8703845319725871;1.6246208197733845;0.05005283205792709;0.4284343397787331;0.05378811053329255;0.16008973182420722;1.8235121266523826;3.325196476048295;1.4882901172658969;1.0969161720813576;0.6158993332535341;150.0
2.4663177235661897;-0.7141558277567608;6.082723113576713;3.4484725312512503;1.0163376037096392;-1.5319425279252714;1.0329421247142518;1.8022268852546532;0.043761986444241376;3.3339655297735615;0.043846232283063176;0.16008973182420722;1.9214178995430393;3.691846744684385;2.1412145443094;-0.3228488987071759;0.5998995960548733;150.0
2.488209097175992;-0.9126726266427163;6.191184511269366;3.4484725312512503;1.0753143258404039;-1.4219209757878102;1.156300899357602;1.8632333876249798;0.04848379913252799;3.5470901375796733;0.03721831344957681;0.19883756500458852;1.9723619374718953;3.8902116123878887;3.1608292044870803;-0.970330650036992;0.5801225354141272;150.0
2.651433815796928;-1.529880662116563;7.030101279551459;4.216051165598439;1.1165454408582034;-1.2047092335352985;1.2466737215012398;1.5937082551211663;0.05096513891440307;3.558974154743756;0.032119914346895054;0.19883756500458852;2.12492349368776;4.515299854026195;3.1100705396410144;-1.1664057213085888;0.5389663384061636;150.0
2.67927248139371;-1.812475658405196;7.1785010295536065;5.462209920554492;1.1289832324023634;-0.978966618501171;1.2746031390456891;1.6323685371222203;0.05281518823801737;3.0187349022596903;0.03849291322524724;0.19883756500458852;2.2239489133860735;4.945948769351096;3.389919460901533;-1.3479002207569493;0.4936738178552178;150.0
3.008726008480299;-1.4410333141366944;9.05243219410579;5.9036398022498195;1.1159549944561835;-0.9203590010255627;1.2453555496517006;1.6177624412570575;0.05456340982621433;2.6564770409610103;0.06296522891811972;0.19883756500458852;2.4602211067350614;6.0526878940246895;3.8657716443283032;-0.8501159086907326;0.4727635211606004;150.0
3.300313131778062;-1.6395217005632752;10.89206676778672;6.092954379392382;1.0957525175637215;-1.1586773199758795;1.2006735797472337;1.6380513959689909;0.060273538359925355;1.8314349031528991;0.06704394820026509;0.2243295605179973;2.740801169174382;7.5119910489476585;4.393565344856759;-1.2015442683586126;0.47836314084366627;150.0
3.312505302878413;-1.6623529894034663;10.972691381597606;6.092954379392382;1.1363686578752714;-1.0934067892142953;1.2913337266012455;1.6946188250093233;0.060158752632460635;3.105961340527078;0.05761190986030387;0.2243295605179973;2.8274076746789256;7.994234158833288;4.808264245642233;-1.488170331975279;0.4784445504862206;150.0
3.102644650019823;-1.1679829774541608;9.62640382429663;3.9909142053672175;1.159904015071939;-1.1534274073393451;1.345377324180005;1.756043672221403;0.06657746873359419;0.7339024599711549;0.07086774752727644;0.2243295605179973;2.6441965401119867;6.9917753427402;3.7523693662155164;-1.337239575122101;0.4087482785173742;150.0
4.119660107649458;1.6581591115331662;16.97159940255834;3.9909142053672175;1.2035598995569428;-1.1521546221820111;1.4485564318215183;1.8223259376052439;0.07513299731670167;0.475629266623545;0.08208422555317628;0.2681757928010604;2.360251875403184;5.570788915344248;3.372778287276252;-0.8402801775331196;0.33841351686925664;150.0
4.2183898390337236;1.4505686026319748;17.794812834062967;4.467088377849197;1.2503992249917588;-1.151109874113108;1.563498221859991;1.8934656211608467;0.05757491442187854;0.575488255542999;0.06627918833486286;0.2141327623126337;2.562201991860076;6.56487904709174;3.829160437882561;-0.9426038629506428;0.35254909487206837;150.0
4.2183898390337236;1.4505686026319748;17.794812834062967;4.467088377849197;1.2503992249917588;-1.151109874113108;1.563498221859991;1.8934656211608467;0.05757491442187854;0.575488255542999;0.06627918833486286;0.2141327623126337;2.562201991860076;6.56487904709174;3.829160437882561;-0.9426038629506428;0.35254909487206837;150.0
4.2183898390337236;1.4505686026319748;17.794812834062967;4.467088377849197;1.2503992249917588;-1.151109874113108;1.563498221859991;1.8934656211608467;0.05757491442187854;0.575488255542999;0.06627918833486286;0.2141327623126337;2.562201991860076;6.56487904709174;3.829160437882561;-0.9426038629506428;0.35254909487206837;150.0
4.2183898390337236;1.4505686026319748;17.794812834062967;4.467088377849197;1.2503992249917588;-1.151109874113108;1.563498221859991;1.8934656211608467;0.05757491442187854;0.575488255542999;0.06627918833486286;0.2141327623126337;2.562201991860076;6.56487904709174;3.829160437882561;-0.9426038629506428;0.35254909487206837;150.0
4.2183898390337236;1.4505686026319748;17.794812834062967;4.467088377849197;1.2503992249917588;-1.151109874113108;1.563498221859991;1.8934656211608467;0.05757491442187854;0.575488255542999;0.06627918833486286;0.2141327623126337;2.562201991860076;6.56487904709174;3.829160437882561;-0.9426038629506428;0.35254909487206837;150.0
4.2183898390337236;1.4505686026319748;17.794812834062967;4.467088377849197;1.2503992249917588;-1.151109874113108;1.563498221859991;1.8934656211608467;0.05757491442187854;0.575488255542999;0.06627918833486286;0.2141327623126337;2.562201991860076;6.56487904709174;3.829160437882561;-0.9426038629506428;0.35254909487206837;150.0
1.8487386899023683;-0.42885463198097995;3.4178347435419254;2.494607269499775;0.7337699437972673;-1.2813636386535794;0.5384183304202449;1.194512045422584;0.06713744764388671;0.7130453043146707;0.0780055062710308;0.2365657183644335;1.8710883013822943;3.50097143156968;2.710378191997191;-0.5443379555534344;0.46846041821442136;90.0
1.8487386899023683;-0.42885463198097995;3.4178347435419254;2.494607269499775;0.7337699437972673;-1.2813636386535794;0.5384183304202449;1.194512045422584;0.06713744764388671;0.7130453043146707;0.0780055062710308;0.2365657183644335;1.8710883013822943;3.50097143156968;2.710378191997191;-0.5443379555534344;0.46846041821442136;90.0
1.8487386899023683;-0.42885463198097995;3.4178347435419254;2.494607269499775;0.7337699437972673;-1.2813636386535794;0.5384183304202449;1.194512045422584;0.06713744764388671;0.7130453043146707;0.0780055062710308;0.2365657183644335;1.8710883013822943;3.50097143156968;2.710378191997191;-0.5443379555534344;0.46846041821442136;90.0
1.8487386899023683;-0.42885463198097995;3.4178347435419254;2.494607269499775;0.7337699437972673;-1.2813636386535794;0.5384183304202449;1.194512045422584;0.06713744764388671;0.7130453043146707;0.0780055062710308;0.2365657183644335;1.8710883013822943;3.50097143156968;2.710378191997191;-0.5443379555534344;0.46846041821442136;90.0
1.8487386899023683;-0.42885463198097995;3.4178347435419254;2.494607269499775;0.7337699437972673;-1.2813636386535794;0.5384183304202449;1.194512045422584;0.06713744764388671;0.7130453043146707;0.0780055062710308;0.2365657183644335;1.8710883013822943;3.50097143156968;2.710378191997191;-0.5443379555534344;0.46846041821442136;90.0
1.8487386899023683;-0.42885463198097995;3.4178347435419254;2.494607269499775;0.7337699437972673;-1.2813636386535794;0.5384183304202449;1.194512045422584;0.06713744764388671;0.7130453043146707;0.0780055062710308;0.2365657183644335;1.8710883013822943;3.50097143156968;2.710378191997191;-0.5443379555534344;0.46846041821442136;90.0
1.8487386899023683;-0.42885463198097995;3.4178347435419254;2.494607269499775;0.7337699437972673;-1.2813636386535794;0.5384183304202449;1.194512045422584;0.06713744764388671;0.7130453043146707;0.0780055062710308;0.2365657183644335;1.8710883013822943;3.50097143156968;2.710378191997191;-0.5443379555534344;0.46846041821442136;90.0
1.743507038239371;0.0692830849473915;3.0398167923902233;2.3441938517576744;0.7835554315991656;-1.371186676206294;0.6139591143885548;1.277906121649852;0.06889661882701535;0.05918662938242834;0.08412358519424892;0.2365657183644335;1.7655002171029588;3.1169910165905947;2.5513024763880976;-0.07424120039632574;0.4231177199543698;90.0
1.873552789907821;-0.6578926212088454;3.51020005657138;2.873980018506584;0.809482186022779;-1.410016914665377;0.655261409488217;1.3209224334892784;0.06935214248517753;-0.19480836695120982;0.08488834505965115;0.2365657183644335;1.9162217336969052;3.671905732692373;2.982374810565987;-0.7752303824787419;0.44068551055172267;90.0
1.608061698128296;-0.5724365463713367;2.5858624249872593;2.0421927386811163;0.802814573032451;-1.4442277407826494;0.6445112386732765;1.323560980940863;0.06653977589620715;0.27818909008187676;0.07341694707861719;0.2365657183644335;1.6422812751660076;2.6970877867608882;1.9777664499609648;-0.634514806877757;0.35582642127698855;90.0
1.5415834390176806;-0.5276607424189952;2.3764794994535787;1.8499848130177128;0.7660917143736887;-1.4107187722584722;0.5868965148320175;1.2858217640046141;0.066270215020384;0.44210964055801455;0.0780055062710308;0.2365657183644335;1.5739539440496182;2.4773310179893486;1.7622064355919047;-0.48512044665546594;0.3215968756830268;90.0
1.347159717628741;-0.11214214491698347;1.8148393048015492;1.7733758773216044;0.6882125858506635;-1.2273467194531738;0.47363656332325677;1.120261949088643;0.06557702393188812;0.7566515360255159;0.0780055062710308;0.2365657183644335;1.3558622417508182;1.8383624186055543;1.667057891865098;0.02551735823043499;0.2623314758074933;90.0
1.4759331585386664;0.10416435150371828;2.178378688473924;1.8705596947948573;0.6061840309932577;-0.9214106613596256;0.36745907943123474;0.9383482941321433;0.059229051685927264;1.1947907164238707;0.07239726725808085;0.23095747935148359;1.452640635237286;2.110164815142586;1.8696915596452657;0.22534103554095092;0.25578640735196295;90.0
1.8748254016692862;-0.2773701007210946;3.5149702867444;2.610815469511661;0.5056926831374248;-0.3921244149732824;0.25572508977872793;0.6931697844751337;0.051803100708759424;1.0226914691583626;0.05837666972570607;0.183032527786275;1.8496331327126372;3.4211427256283637;2.590867063220636;-0.25863680867930533;0.3084945154935505;90.0
1.7918424272594173;-0.09695194110983543;3.21069928412692;2.030237506957026;0.40249683592271784;-0.22119490191250735;0.16200370292779925;0.5492009044600179;0.05442231225315638;0.8040849300309408;0.05837666972570607;0.1993474049148567;1.7460359754437702;3.048641627543878;2.020439246061356;-0.02376825333770714;0.2843276078152845;90.0
2.061883692986875;0.0696131907706356;4.251364363405193;2.089832004819308;0.3884428559418704;-0.5818821536038999;0.15088785233227667;0.5492009044600179;0.05263486812631045;0.9970034963711953;0.04983685122871412;0.1993474049148567;2.019350666158817;4.077777112916058;2.020439246061356;0.2928065080233106;0.3380553273937025;90.0
2.8699766857339504;1.820313439267722;8.236766176656431;2.0133287918449225;0.4827852296457089;0.8941536340127401;0.23308157796405987;0.5492009044600179;0.04024328561760779;0.07354638928776151;0.04767003161007438;0.12745997756704391;2.2899881979212062;5.244045946618413;1.8891791513964673;0.14779162782960245;0.4174351689349841;90.0
3.319732362318483;-0.00022246979163469404;11.020622957424655;2.5573357806896646;0.6508525847655079;0.6447457159110267;0.4236090870959426;0.6530614043976877;0.039892375321518916;0.025538474788330254;0.04767003161007438;0.12745997756704391;2.6429933921923983;6.985414071172681;2.555079753591117;-0.42397128672602347;0.5189943821846661;90.0
3.5965557807710518;-0.9117786034458706;12.93521348419767;4.478181789397385;0.7398262612791648;-0.987533421587068;0.5473428968783071;1.141917954345347;0.040992254829899634;-0.4993617964987784;0.05799428979300493;0.12745997756704391;2.954968568504316;8.731839240848446;4.136160788996337;-0.9065903804175712;0.6275441946405235;90.0
3.901901903080664;-1.4327403448037517;15.22483846126451;6.451623869355728;0.7787960426002223;-1.7707052248976127;0.6065232759697673;1.4487957036558599;0.04492749305426053;-1.3296151970124022;0.06742632813296608;0.12745997756704391;3.1128930062889335;9.690102868602553;4.630323479472459;-1.2316076144849666;0.6962249939044527;90.0
3.9976773936321086;-1.4183218244650393;15.981424543557209;6.5573107623368605;0.7873771359926323;-2.030493055000609;0.6199627542839601;1.491233486785923;0.04687579050869624;-1.6927832625561885;0.0892219842969306;0.12745997756704391;3.1583620845912774;9.97525105738376;4.564564736734686;-0.9665247801810899;0.7888623986211534;90.0
4.28078772937774;-1.4399376527588892;18.325143583991025;6.736086102879363;0.7553329795495607;-1.8535294919931198;0.5705279099952171;1.44716225244658;0.04648092061047239;-1.609833182320352;0.0892219842969306;0.12745997756704391;3.179437681480377;10.108823970417316;4.564564736734686;-0.8648931702713905;0.8248145245362821;90.0
4.354024794608506;-0.9416727577695275;18.957531912065644;6.702493181741972;0.6869831518512478;-1.2842099511861254;0.47194585092747465;1.1150496835762866;0.044888203283863164;-1.416210250140944;0.07010298766187407;0.12745997756704391;3.1179935626583233;9.721883856778744;4.373087000647914;-0.15493518586002009;0.8750339412083435;0.0
4.307031156142679;-0.03791840995729924;18.550517379983738;4.603590981234994;0.6200882521587244;-0.1791754920050241;0.38450944046526186;0.6113789258152706;0.04623394767466701;-1.6037083053136996;0.08463342510451702;0.12745997756704391;3.0756907134630684;9.45987336488296;2.1341366450987467;0.7426004471057758;0.9422469554165956;0.0
3.789618403890266;2.6157281697408155;14.361207647103809;2.1696686797266924;0.5016696757241311;1.4644796223196965;0.25167246354115486;0.45202625217296993;0.04494712506027758;-1.1545192783494724;0.06933822779647178;0.12745997756704391;2.556099461334901;6.533644456236572;1.5539226246368307;4.399821734792365;0.9052771570859551;30.0
2.4771786074727995;3.9161583448352086;6.136413853320877;1.702605556588187;0.35290164944551394;1.0812167107470676;0.1245395741813644;0.41617135568940794;0.03836629373263774;-0.36963042065116836;0.0402773529111858;0.1157336596308758;1.407565068423019;1.9812394218446983;1.4351201272236067;2.674528625808666;0.6206156678482002;0.0
1.4099365418672685;3.0683852536219938;1.9879210520926316;1.4492406016104642;0.2854667362338798;-0.6839268329368678;0.0814912574960235;0.41617135568940794;0.03972795300086645;-1.2317052066266068;0.06398490873865595;0.1116549403487304;0.8780028360693136;0.770888980145758;1.3074181326756622;-0.7256629147804846;0.4472257537655062;0.0
0.8637699798418929;-0.6601341546253006;0.7460985780760641;1.2799328641099457;0.3654480540615445;0.6617132805504791;0.13355228021736956;0.41617135568940794;0.03706275066248446;-1.2159189143110969;0.06067094932191283;0.1060467013357805;0.8962996827150373;0.8033531212350766;1.3505081577209763;-0.9266037949510955;0.4490392506096097;0.0
0.8632094950954283;-0.6430230201343363;0.7451306324229043;1.2799328641099457;0.4250057460487939;-0.41839773456166035;0.18062988417449188;0.48417031380992753;0.03603167478096595;-1.2331178626094859;0.06067094932191283;0.1060467013357805;0.9054967104709516;0.8199242926737143;1.3505081577209763;-0.9174754192055155;0.43792362607998003;0.0
0.8325652310109387;-0.3779580253250452;0.6931648638882977;1.2424416384064363;0.42415598920127706;-1.0509121908002732;0.17990830317531387;0.6154247214884727;0.036194390154428796;-1.2702066263436034;0.06220046905271735;0.1060467013357805;0.8300864060199031;0.6890434414590394;0.8374320564619941;-0.005174174312187713;0.38521684286658486;0.0
0.7225119843168631;-0.91758817218972;0.522023567481491;0.9571216060845114;0.41723786180893196;-1.5188539880603071;0.1740874333268894;0.7354851619580639;0.03900219775039528;-1.7452602996206306;0.07035790761700818;0.1060467013357805;0.7016801824911497;0.4923550785008132;0.7124505907061831;-0.43790631935989005;0.2946959025641039;0.0
0.7036032118863903;-0.6582501771190133;0.4950574797768446;1.0191389776754467;0.388121534985697;-1.4332036719306163;0.15063832591965365;0.680092299931105;0.03622536152464852;-1.7942306256008524;0.06079840929947985;0.0999286224125624;0.6556014268596018;0.4298132309003458;0.9474890688544657;0.33784494241827917;0.2578697704652807;0.0
0.8017347574285846;0.8190984015505459;0.6427786212690714;0.8451565989369247;0.3411435366952482;-1.6239955851111982;0.11637891262894215;0.6283148599438584;0.03273396381202478;-1.8773754457167482;0.054425410421127696;0.08769246456612609;0.6881700097325598;0.4735779622953115;0.7802257963878159;0.9152842771090598;0.2450201572761475;0.0
0.9643218951974576;-0.2919438826460906;0.9299167175572163;1.0420209015357673;0.36512687939377925;-1.0314910870909677;0.13331763805583943;0.6283148599438584;0.03247401054743914;-1.803156427289544;0.054425410421127696;0.08769246456612609;0.8258240398371964;0.6819853447730274;0.8473513487738664;-0.385242229248429;0.27916314480700144;0.0
1.0993319255831313;-1.0465631749221536;1.2085306826063151;1.5318953484501772;0.46072408170396073;-0.08060221534997948;0.2122666794619579;0.6283148599438584;0.03161465294587987;-1.5811038934023602;0.05213113082492087;0.08769246456612609;0.93509263563758;0.8743982372236361;1.217161960376747;-1.1304570542404166;0.29922069482225316;0.0
1.224214991334577;-1.019315828823019;1.4987023450083186;2.1164433591635468;0.5979505176329721;-0.06507088173264795;0.35754482153753936;0.7721919502675129;0.0298143424518136;-1.6742413913008307;0.05200367084735385;0.0846334251045171;1.034148432565643;1.069462980577976;1.751728603733552;-1.0123762809414176;0.30526066704742905;0.0
1.2521750834292067;-1.2643746239883118;1.5679424395609407;2.1164433591635468;0.7748507487363585;-0.18089794971002424;0.6003936828172954;1.1353486500772885;0.02660787569308834;-1.6702523359646568;0.04027735291118585;0.072907107168349;1.0576827449776647;1.1186927890234875;1.751728603733552;-1.3041764925641128;0.3068476637820456;0.0
1.2981311139283809;-1.4486117584828173;1.685144388948939;2.2460876755223294;0.9622625859399507;-0.718124354444561;0.9259492842998411;1.481689057030856;0.025348216884385922;-1.6911899860431245;0.03925767309064952;0.07239726725808089;1.1001093699992952;1.2102406259602463;1.8430645077581227;-1.5025205006311981;0.3066066833593282;0.0
1.2092661374985711;-0.7371836416453353;1.4623245913007132;1.7309480986921537;1.169415346596022;-0.9433437646038991;1.3675322528542944;1.8853605404011597;0.029425985890846256;-0.2586011299595245;0.043591312327929;0.09788926277148971;1.003897583402078;1.007810357960532;1.3801727358475202;-0.926067698919236;0.2671249937006109;0.0
1.138934902570587;0.40384745911029285;1.2971727122934729;1.4566195144884517;1.3306226647836081;-1.1515529440452623;1.7705566760358307;2.2006532168833086;0.03359871617671123;-0.5265482363849255;0.04308147241766075;0.1050270215152441;0.9560675017461608;0.9140650678951453;1.261034296966253;0.0949411977114159;0.24434616238727686;0.0
1.1461804729879035;1.8520697213832162;1.3137296766587743;0.9615573511825017;1.4240754552538102;-1.405518371116132;2.0279909022563465;2.3230849023449975;0.0441673442443724;1.1716569416365479;0.03645355358417453;0.1590700520036708;1.0301958609202568;1.0613035118572294;0.6694005348597569;1.4702086193961275;0.24528452855956434;0.0
0.7735667782545227;0.02805069833942942;0.5984055604190819;0.6924145669914541;1.4804122837871214;-1.3955568604993427;2.1916205299878;2.4173520251567835;0.05756773140623097;0.7662804289604594;0.0550627103089629;0.1978178851840521;0.7940444930046753;0.6305066568710518;0.6368033809008367;0.3624636305522725;0.1771240932879159;0.0
0.6515581225558036;0.933949198772846;0.4245279870684435;0.5290287044768442;1.501678395548054;-1.309298764516205;2.2550380036557773;2.417200814300018;0.05574306797361871;-0.20560549056110566;0.06921076781890474;0.1845620475170795;0.711988892896631;0.5069281836081704;0.8865458153174526;0.7729614782986081;0.15312689351031789;0.0
0.9993502622690963;5.488737876250902;0.9987009466973116;0.5290287044768442;1.447970382695417;-1.3787645995193925;2.096618229163112;2.276834427820499;0.05174087323175387;-0.5695173480385929;0.07813296624859783;0.15397165290098902;0.6553546549250501;0.4294897237319315;0.8865458153174526;0.30726894356519224;0.1400843760860268;30.0
0.9999700393117079;5.251159385649597;0.9999400795210586;0.5561326158319284;1.3336803568575741;-1.391919134688342;1.7787032942677463;2.2175071880072577;0.05112259880431944;-0.5110019627954501;0.07813296624859783;0.15397165290098902;0.6568615311581391;0.4314670711154149;0.833183348386143;0.07145683723009913;0.13855193465215102;30.0
1.0391386648718;4.6182963205150385;1.0798091648315469;0.7304032620601113;1.1817238492548077;-1.0600929357914437;1.3964712558975996;1.7989473423401368;0.049940874987263795;-0.41779494243122534;0.07354440705618429;0.1529519730804526;0.7240508741820898;0.5242496684038485;0.8530757120297618;-0.567989536731045;0.14889642883145773;30.0
1.0574731245881952;4.370277765602266;1.1182494092263207;1.0281095147299846;0.9967665778364336;-0.48231621162789856;0.993543610691755;1.2620580664106087;0.04816061686336371;-0.2569392642823421;0.06666156826756393;0.1529519730804526;0.7508656870874045;0.56379928004524;1.015933028350318;-0.7835550747918344;0.15161353423732846;30.0
1.0269842229567918;4.133111359835541;1.0546965942021653;0.7916499845480782;0.7933370146539739;0.08376393277386632;0.6293836188200795;0.7870715955266183;0.04750968824003579;-0.5174690098725698;0.06436728867135719;0.1529519730804526;0.7630386110964215;0.5822279220239559;1.0765154296268307;-1.038118833892984;0.15608963527139375;30.0
1.2116888664453225;0.8177303795396836;1.4681899090675508;0.9119265056020973;0.6260148267840518;0.11632548400012549;0.3918945633534665;0.7128779909791256;0.04402235985482627;-0.18864633260225472;0.06079840929947993;0.1427551748750891;0.9506080730339092;0.903655708517242;1.0777838968511215;0.015251585925705058;0.19893475241738576;30.0
1.3532755814764954;-0.7048655052699423;1.8313547994205466;1.3884881054151137;0.5147020579261562;-1.2502744153181582;0.26491820843342023;0.7128779909791256;0.043011337481580585;-0.106589071766531;0.06079840929947993;0.1396961354134801;1.140761032169702;1.3013357325168835;1.407871215896261;-0.7388170471039517;0.24762639212262696;30.0
1.409969069439233;-1.3108074655838897;1.988012776775337;2.403200873236493;0.5329149710412796;-1.0359352720842487;0.28399836635992787;0.7128779909791256;0.0428744553596817;-0.17348778966301603;0.06079840929947993;0.1396961354134801;1.2410587132152167;1.5402267296474095;2.000807945278707;-1.388609643259164;0.2757099303462377;30.0
1.5388817949626814;-1.746432002108748;2.368157178867564;2.7771317628337933;0.6432197578094097;-0.7062827354546692;0.41373165683639557;0.8589707425182933;0.04441012983102022;-0.350659201614041;0.06079840929947993;0.1396961354134801;1.4469462443186172;2.0936534339477517;2.5474092467297105;-1.551045002801391;0.337438285048768;30.0
1.6017657366736455;-1.5463279898784417;2.565653475181666;2.5160981897785106;0.7649022421279833;-1.041230799482053;0.5850754400124161;1.0408571302268572;0.04137541680193598;0.9734766680735005;0.056337310084633406;0.1396961354134801;1.5938138878270924;2.5402427090305113;2.479623282659907;-1.3137790278375792;0.41052895007797097;30.0
1.7379851541643423;-1.2677844638806002;3.0205923960956524;2.590785193597383;0.9262338634150437;-0.7947905779947424;0.8579091697367577;1.3361475575718242;0.03000119669439855;-1.6881564161185962;0.054807790353828885;0.0861629448353216;1.7956441817213287;3.2243380273496602;2.699409017539074;-1.1472205040936312;0.5165038202069159;30.0
1.7969952648889627;-1.0923517762963588;3.2291919820333534;2.606189982214313;1.0331290254258094;-0.7999542205429798;1.067355583177283;1.4854170830860838;0.03186331805584086;-1.023719322383793;0.047733761598857956;0.0968695829509533;1.9272777498983644;3.714399525253303;2.8473299439746587;-1.1442577877656321;0.6297795885924636;30.0
1.951209224860275;-1.2468690218501741;3.8072174391798357;3.4023087799282576;1.031947589850595;-1.242397067875286;1.0649158281984517;1.5508772615966724;0.04874875958381157;3.0850706396546395;0.04684154175588862;0.1769144488630569;2.0484600106074837;4.196188415058012;3.5840410065177037;-1.3723446825561836;0.7301891047889202;30.0
1.9089638406142087;-0.6258383751472378;3.64414294477255;2.3236814278518554;0.9843158546686045;-1.533021259912368;0.9688777017519853;1.7377086455751019;0.04879539377653438;2.985183451852246;0.04684154175588862;0.1769144488630569;2.0077659717662417;4.03112419738244;2.728738068517659;-0.8098964278723176;0.8281784530600043;0.0
1.7201592687609892;0.3355209956886553;2.9589479099043414;1.8710846233531946;0.9194547970275848;-1.544060913412851;0.8453971237770372;1.629326349877792;0.04874427550630663;3.0431595244616902;0.04633170184562045;0.1769144488630569;1.7281435549992734;2.986480146685527;2.3116283470519696;0.18073897905089337;0.8633978542921011;0.0
1.4195079563662742;-0.17063506242872234;2.0150028381871565;1.9244004518981879;0.8337798936919476;-1.5104234133502976;0.6951889111249555;1.4197826131225655;0.049002347628952836;3.210608687280904;0.04633170184562045;0.1769144488630569;1.3005379506763268;1.6913989611493798;2.1245058710257267;0.04946108902184644;0.7999617147898164;0.0
1.154462359245168;-1.2214027600801423;1.3327833389139192;2.0069715549750446;0.7627686867647769;-1.223370270299502;0.5818160695088624;1.1166817786897667;0.04620703737902172;3.882344886082683;0.03154634444784338;0.1748750892219842;0.9791120319124996;0.9586603710358236;1.559829980800894;-1.1347711768897188;0.741334118481302;0.0
1.080805477021623;-0.3750169110610039;1.1681404791599383;1.1881159959004546;0.7065221623096789;-0.5256441149409877;0.4991735658347442;0.9316239584364387;0.04633331027538198;3.8530737824030425;0.0330758641786479;0.1748750892219842;0.8767862965526575;0.7687542098225246;0.8173180240644057;0.1986990535578078;0.7776432787730456;0.0
1.0500408742962892;0.966045166759395;1.1025858376929154;1.1461686703766076;0.6266220359783492;0.036213923136671156;0.3926551759736515;0.5622970543184531;0.04634190001848225;4.068763237213997;0.03288467421229732;0.1748750892219842;0.7488084236460643;0.5607140553233037;0.6580336932263727;2.7011069086297184;0.7354732399229429;0.0
0.7652344088797395;0.5169517573381768;0.5855837005335244;1.0106817130660222;0.5451452536494934;0.15627919131566792;0.29718334757657056;0.4861580904073423;0.04563623869804285;3.087244756890799;0.03823799327011312;0.1748750892219842;0.4651610891591611;0.216374838867737;0.6163302934559965;1.248708268652139;0.5436770191088703;0.0
0.5894060108498087;-1.237820580258385;0.34739944562588476;0.8546479758072508;0.47490625616038873;0.10740124747401107;0.22553595214027675;0.6477406576953166;0.04799547109121113;1.3102021843943223;0.06016110941164464;0.1748750892219842;0.34737287345438567;0.12066791321195663;0.6163302934559965;-1.3328123720205656;0.4359162473430467;30.0
0.5182453753037495;-0.47011836319435363;0.2685782690237241;0.5051865896129746;0.3953937643356376;-1.8005550785047562;0.15633622887550572;0.7404872607741717;0.04678544653450551;0.8392404489774088;0.0545528703986947;0.1748750892219842;0.3296433254655824;0.10866472202400787;0.4599497858693159;-0.8813483945132083;0.42908100723912146;0.0
0.7161767668072981;1.2387463361146513;0.5129091613145551;0.5723230233048963;0.4371581399995536;-1.1680285329881;0.1911072393678693;0.7849970477864809;0.04429529727680397;-0.11121159591422282;0.0599061894565106;0.1432650147853573;0.382442909619066;0.1462625791178971;0.6243423242291188;-0.5971696711753572;0.44609705771137775;30.0
0.7233471520558818;1.029336961426423;0.523231102387355;0.5928775264570453;0.5111704037352769;-1.0533164089259015;0.261295181654886;0.7980756330832179;0.047062360471933955;-0.17600273103340922;0.0655144284694605;0.1483634138880391;0.3372249004707625;0.11372063349751566;0.505520459416502;-1.0150875545132414;0.3598044559851794;0.0
0.9047668800640483;-0.2956005375661833;0.818603107260832;1.1669890484362087;0.5450910204683171;-1.0569976888712203;0.29712422059519134;0.6847926229530996;0.03999885784846527;-0.7392533302751404;0.0634750688283878;0.1300091771183847;0.4117881866464383;0.1695695106615619;0.4497526379246033;0.1262183406722449;0.39183624233412984;0.0
1.0954401269545848;0.7600914314833978;1.1999890717422768;0.8451238398068016;0.5915110693357645;-0.622898034332701;0.3498853451467396;0.7850107395528133;0.04328835809921087;-1.4520480888536054;0.07596614662995813;0.1300091771183847;0.6784976642500216;0.46035908039273504;0.5440904806244913;4.097916514515125;0.537917361960317;0.0
1.105035703757029;0.6524719091013512;1.2211039065777924;0.8451238398068016;0.6977504987429706;0.5221506842384315;0.4868557584960641;0.7976835461684291;0.04435391895092023;-1.6983744414526876;0.07596614662995813;0.1300091771183847;0.7487428498067649;0.5606158551367557;0.7306634075866213;0.9480038041062061;0.5337884378127513;0.0
1.097394382495079;0.7433385235901628;1.2042744307317557;0.814724397829314;0.8354211672869174;0.46182792905193915;0.6979285267510357;0.8126361376513109;0.04376286390349223;-1.491996584402797;0.06831854797593542;0.1300091771183847;0.8643711234339327;0.747137439026439;1.152164372387689;-0.7096867831163808;0.556328516400982;30.0
1.1848531221599967;0.04849798381335404;1.4038769210922921;0.8721138856598808;0.9678161983682266;-0.40198802742320744;0.9366681938239266;1.2112810008861534;0.044412485417806166;-1.1445993998212032;0.0716325073926786;0.1300091771183847;1.030073175051394;1.06105074596046;1.4906555817510498;-0.7207443969328501;0.5706838998497081;30.0
1.2073406604798793;-0.015152555468510324;1.4576714704479912;0.9385439594308796;1.0681161100770016;-1.2047396369011913;1.1408720246060253;1.8447998508221146;0.04144551678489038;0.1722833321420233;0.0333945141225655;0.1300091771183847;1.066342715661139;1.1370867872435726;1.762282393380797;-1.4162236245375563;0.5166426510325732;30.0
1.197628711469483;-0.0024074418189078037;1.4343145305360543;0.836284470453211;1.1255259574548055;-1.6939903535495762;1.2668086809045567;2.0269903044605435;0.0397873896112484;2.0635279149079286;0.02141327623126335;0.1300091771183847;1.106276735364108;1.2238482152078687;1.9404985081342547;-1.7597601226271056;0.49278899918577246;30.0
1.2057807062548498;-0.02194694156756201;1.4539071115764446;0.904430885255537;1.1347119412653879;-1.8805762141894808;1.2875711896502648;2.067894519683777;0.03975213461057487;2.170937268645888;0.020393596410727;0.1300091771183847;1.082300866564786;1.1713751657668867;2.023141377300385;-1.6614557412331121;0.4393252334671936;0.0
1.2007484888112405;-0.0529303843640845;1.441796933382478;0.904430885255537;1.0833067652233648;-1.775983413812377;1.1735535475787102;2.055676477299583;0.04022449102375475;2.134618223189874;0.02115835627612922;0.1300091771183847;1.0311159196797184;1.0632000398169514;1.6727775959943845;-1.0502356978648157;0.39092281421899094;0.0
1.2251666307572735;-0.12853062154988681;1.5010332731211293;1.1353748283692673;0.9760684778877843;-1.5869245050909382;0.9527096735261761;1.7694988986962836;0.050921303978396705;1.6517079659138694;0.021413276231263323;0.1993474049148567;0.8855424137357587;0.7841853665249537;1.2165668085264127;-0.531338899114181;0.3083358260331003;0.0
1.069381781281697;1.6495117231033116;1.1435773941372154;0.8774039916268629;0.8701275568149526;-0.7601735823836268;0.7571219651287585;1.16880089114483;0.055016538565507755;0.7907450240304892;0.021413276231263323;0.1993474049148567;0.7988522569531762;0.6381649284391834;0.757839637021136;1.476195986138896;0.262533804713737;0.0
0.9920200353143331;3.8201455939253353;0.9841037504650508;0.7549442220206487;0.7459948603305151;0.9824141324164171;0.5565083316395447;0.6397743906978479;0.04813967737483023;2.728421883516866;0.017334556949117952;0.1993474049148567;0.5504952500156282;0.303045020289769;0.5702947389741242;2.1075587879621125;0.17031810745024648;0.0
0.6273027874211748;-0.5290640855692295;0.3935087871063757;0.7880183154530113;0.5576147201251049;3.6226659469408586;0.31093417610019913;0.30852353540898836;0.03345042822810776;2.5955481864061842;0.014275517487508875;0.1106352605281942;0.4056176176898563;0.16452565178039447;0.3714730611198074;1.1348982593880546;0.11899225884481662;0.0
0.555383609811504;-0.9088869978843288;0.3084509540472569;0.7549442220206487;0.34854687449427957;2.255332521983914;0.12148492371973107;0.30852353540898836;0.033529925637518485;2.6415609130574165;0.014275517487508875;0.1106352605281942;0.436693615458888;0.19070131378255517;0.39689165255371295;0.20628451252121194;0.12903348796759814;0.0
0.5646421785977648;-1.00527887050457;0.31882078985163004;0.7549442220206487;0.5015685645565533;6.500616863926268;0.2515710249513214;0.30852353540898836;0.03329181031998965;2.7023273936252354;0.014020597532374779;0.1106352605281942;0.5769814027769717;0.3329075391504821;0.39689165255371295;3.475554042884909;0.17330847939183877;0.0
0.5819733283800629;-1.4059250405929529;0.33869295494576845;0.8174202919304346;0.7787930500811587;2.9298758248698986;0.6065186148547141;0.3278961530785125;0.03380739343146645;2.5795676570496044;0.015805037218313403;0.1106352605281942;0.6796924899802536;0.46198188093555714;0.44476274502022095;0.8237658660276862;0.208854980655621;0.0
0.661899443517748;-0.23336764613343222;0.4381108733291045;0.8774039916268629;1.0938979960955064;1.0579337564020066;1.1966128258617645;0.9013526789339599;0.04419433244449471;2.0439162160164956;0.017844396859386123;0.1789538085041297;1.0621719566596053;1.1282092655140945;1.0146865923994794;2.5173829368480876;0.3578277530176127;0.0
0.6553387417211193;-0.2013069056113453;0.4294688664006198;0.8864099605681375;1.3593000422021146;-0.3814436916728697;1.8476966047306704;1.8698778981479949;0.04654338988705455;1.2269531717291342;0.02294279596206785;0.1789538085041297;1.2183242703852355;1.4843140278097164;1.5645383062398572;-0.08237704841962959;0.4468264595871711;0.0
0.8689290609656594;0.517049411201609;0.7550377129906626;0.9851016990007101;1.5527644712793904;-1.303186044411484;2.4110775032675646;2.4668173079954316;0.04927237817113523;0.6676256023905094;0.029825634750688272;0.1789538085041297;1.2773575259294745;1.6316422490486682;1.9048463579766284;-1.1668015403239742;0.5047558026218874;0.0
1.115405622292023;0.09243672821658543;1.244129702240655;1.2854547741424849;1.7060713287945697;-1.735008401664796;2.910679378934869;3.1409218355131077;0.051093542017926645;0.31445208513942224;0.05276843071275615;0.1789538085041297;1.2478702998034195;1.5571802851314758;1.8375227475314841;-1.295553947716015;0.5226460388595541;0.0
1.1818565524353766;-0.8341927755163845;1.3967849105344339;1.8969429051329714;1.804070640295319;-1.8909659763033513;3.2546708751755626;3.5603072801916213;0.05349283603245468;0.21647263928559382;0.056401040073416855;0.1789538085041297;1.248176973828536;1.5579457579957618;2.2477291027689565;-1.4060405386783672;0.5623821257525992;0.0
1.1365459551486718;-0.6313408303210173;1.2917367081648066;1.3601831701528568;1.8588142130990026;-1.7201004498664452;3.4551902788188644;3.466921797984646;0.04389167641960318;0.7070449659356692;0.05499898032017935;0.1560110125420617;1.1823202862653703;1.397881259314627;1.6882199758241518;-0.9426836544984225;0.5795771833349292;30.0
1.0851370246577505;-0.24604122453686222;1.1775223622830755;1.1774080117521888;1.841794232446112;-1.2610037554852151;3.392205994671763;2.8438608773448593;0.035813243353601656;-1.5680561042591497;0.06067094932191283;0.0999286224125624;1.0778326309027222;1.1617231802386838;0.9824980523933737;0.14713914538941328;0.5718058435504243;0.0
1.212683510270918;-0.7026062077707416;1.4706012960829953;1.4197978252597072;1.6885656526362482;-0.40599915464160163;2.851253963262879;2.323262525021839;0.0367522952778835;-1.4556640795452662;0.06423982869379008;0.0999286224125624;0.9916134685252049;0.9832972709605876;0.9543563321594135;1.1081469347121962;0.5457442134089171;0.0
1.4342157143082477;0.30974980598745294;2.056974715168717;1.4197978252597072;1.3710479638021162;0.36897668203237055;1.8797725190459291;1.6352429515069202;0.04847081550706282;1.6661876416395394;0.049454471296013026;0.17946364841439777;0.9292002006916527;0.8634130129654075;0.9543563321594135;0.383048877439989;0.5190257526810703;0.0
1.515835751784284;-0.5474298071021843;2.2977580263874255;2.2499710155834434;1.0200398854046784;0.5014166804346183;1.0404813678163896;1.0796371486605938;0.05097662775018687;0.3452873138972317;0.04155195268685627;0.1692668502090343;0.908328540393619;0.8250607372936024;0.9208652336641063;0.7278418371091125;0.5132572828281707;0.0
1.601150885298726;-1.0930947505896225;2.563684157492894;2.6115919169640724;0.7561663922326642;1.41541996181987;0.5717876127421634;0.7513431445925615;0.0462210989377884;0.8828048974507207;0.0367722035280922;0.16314877128581617;0.9434332466690513;0.8900662909205068;1.29941300374443;-0.005388479458546019;0.5135959831715865;0.0
1.5756977516038395;-0.874148161542621;2.482823404409395;2.6115919169640724;0.5308143203756139;0.10448951362776787;0.28176384271582494;0.6906014255131869;0.050452664250397156;1.0903365819400688;0.0367722035280922;0.19068012644029758;0.9809485883625934;0.9622601330105646;1.500333792571319;-0.222893900726025;0.5646263003786995;0.0
1.7012184710276779;-1.1681751632874162;2.89414428616575;2.299542655861976;0.5027033681245217;-0.4667529889748033;0.2527106763237383;0.6906014255131869;0.05445070477447745;0.44311243342163936;0.04155195268685627;0.19068012644029758;0.9755197427496836;0.9516387684944089;1.4007801098149417;-0.9549791058569851;0.4901786911489401;30.0
1.75751052512533;-1.3250666291770068;3.088843245926313;2.509879082692118;0.6626901870106643;1.2530847758882828;0.43915828396022927;0.6906014255131869;0.06542659714603302;0.1366399837400517;0.0512389109819516;0.22942795962067897;0.9128575595498563;0.8333089240273194;1.2702504972543704;-1.0963071800369897;0.42183111001907775;30.0
1.6924633448209871;-1.1914915632956804;2.8644321735626437;2.414307734400678;0.8211465954126903;-0.0892918946910413;0.6742817311578525;0.8584772798495879;0.0674720447516739;-0.25479538007839186;0.08488834505965115;0.22942795962067897;0.9304804051378478;0.8657937843454934;1.2702504972543704;-1.1067503349983547;0.4326124302880865;30.0
1.503726694655509;-1.6462599865692258;2.2611939722195826;2.3634024557572384;0.9275583396364412;-1.2745786690948777;0.8603644734291116;1.4434341461044702;0.06756164367756114;-0.26782469454803326;0.08488834505965115;0.22942795962067897;1.0003285742110324;1.0006572563830771;1.4827333706001977;-1.3923509067693922;0.48338548434184536;30.0
