acc_X_std;acc_X_kurt;acc_X_var;acc_X_iqr;acc_Y_std;acc_Y_kurt;acc_Y_var;acc_Y_iqr;acc_Z_std;acc_Z_kurt;acc_Z_iqr;acc_Z_range;acc_std;acc_var;acc_iqr;acc_kurt;acc_cv;class
3.7784702512191424;1.4008650252247246;14.276837439348048;2.7672283684103487;1.0171546912130884;-0.38205790187373495;1.0346036658567934;1.4325472064258116;0.04820344901480009;-0.022185808883834725;0.059141429591108345;0.174365249311716;1.3368275314315807;1.787107848793454;1.4053806842371817;0.234434503584956;0.27304558512062604;0.0
3.7784702512191424;1.4008650252247246;14.276837439348048;2.7672283684103487;1.0171546912130884;-0.38205790187373495;1.0346036658567934;1.4325472064258116;0.04820344901480009;-0.022185808883834725;0.059141429591108345;0.174365249311716;1.3368275314315807;1.787107848793454;1.4053806842371817;0.234434503584956;0.27304558512062604;30.0
3.7784702512191424;1.4008650252247246;14.276837439348048;2.7672283684103487;1.0171546912130884;-0.38205790187373495;1.0346036658567934;1.4325472064258116;0.04820344901480009;-0.022185808883834725;0.059141429591108345;0.174365249311716;1.3368275314315807;1.787107848793454;1.4053806842371817;0.234434503584956;0.27304558512062604;30.0
3.7784702512191424;1.4008650252247246;14.276837439348048;2.7672283684103487;1.0171546912130884;-0.38205790187373495;1.0346036658567934;1.4325472064258116;0.04820344901480009;-0.022185808883834725;0.059141429591108345;0.174365249311716;1.3368275314315807;1.787107848793454;1.4053806842371817;0.234434503584956;0.27304558512062604;30.0
3.7784702512191424;1.4008650252247246;14.276837439348048;2.7672283684103487;1.0171546912130884;-0.38205790187373495;1.0346036658567934;1.4325472064258116;0.04820344901480009;-0.022185808883834725;0.059141429591108345;0.174365249311716;1.3368275314315807;1.787107848793454;1.4053806842371817;0.234434503584956;0.27304558512062604;0.0
3.7784702512191424;1.4008650252247246;14.276837439348048;2.7672283684103487;1.0171546912130884;-0.38205790187373495;1.0346036658567934;1.4325472064258116;0.04820344901480009;-0.022185808883834725;0.059141429591108345;0.174365249311716;1.3368275314315807;1.787107848793454;1.4053806842371817;0.234434503584956;0.27304558512062604;0.0
3.7784702512191424;1.4008650252247246;14.276837439348048;2.7672283684103487;1.0171546912130884;-0.38205790187373495;1.0346036658567934;1.4325472064258116;0.04820344901480009;-0.022185808883834725;0.059141429591108345;0.174365249311716;1.3368275314315807;1.787107848793454;1.4053806842371817;0.234434503584956;0.27304558512062604;0.0
3.610514184211164;4.15886699963746;13.035812674390007;1.9770571654106393;1.2301440224052942;-0.8175053243068747;1.5132543158594771;1.9119745158955612;0.04928293304867513;-0.2461314620453057;0.0688283878862037;0.174365249311716;1.3752287162492345;1.8912540219965175;1.9977037692997612;-0.6220234887315352;0.27275145903910003;30.0
2.2279279477351;3.0247679357134807;4.963662940299135;1.7746698799323992;1.418261149897249;-1.0644480265769694;2.011464689307867;2.248558375605592;0.052254577496095876;-0.19900814612996418;0.061308249209748096;0.174365249311716;1.2688237277693846;1.6099136521505975;1.9977037692997612;-1.1309565504835044;0.25452576891072315;0.0
1.377589190081449;-0.6777446521116461;1.8977519766292623;1.640292981620215;1.6079325205391837;-1.0361582957469535;2.5854469906074926;2.507250939898352;0.05106403485791156;0.7360076624375773;0.0670439482002651;0.174365249311716;1.2328045703216528;1.5198071086059548;1.822041870151061;-0.9950256268353036;0.2430268903568493;0.0
1.3975382125801374;-0.9071142778660822;1.9531130556216851;1.9020100810911487;1.7559199405806258;-1.1462808509923788;3.0832548377286684;2.705161603575544;0.05509052703762135;0.9027660721386553;0.07125012745997748;0.19679820536351578;1.2122600416028397;1.4695744084669187;1.52663674403869;-0.7777644678011693;0.24053324100712756;0.0
1.323987323569307;-0.12839351936545867;1.7529424329722167;1.4578820461648352;1.8410096288203095;-1.3239626277286436;3.389316453409094;2.895219811320887;0.05243783898271355;2.637875382468989;0.057484449882736724;0.19679820536351578;1.0564881709773706;1.1161672554151096;1.1312504097176905;0.03597853433211324;0.2192876129440909;0.0
1.7419370634454263;0.6082114230204063;3.034344733004875;1.78227487481763;1.868758880321698;-1.449466556535275;3.492259752781206;3.1341663267136117;0.05216297900821173;3.126330447514397;0.0429540124400937;0.19679820536351578;1.257918386149006;1.5823586662117195;1.3336228501062939;0.1115985844143318;0.2747198460493487;0.0
2.063390372810972;-0.298860506552634;4.257579830609002;2.3542759016829757;1.829715031902361;-1.5162665551796237;3.3478570979694577;3.1278416629214782;0.05167881850774898;4.384587183200321;0.03110023452635865;0.19679820536351578;1.3964055542682603;1.9499484719912474;1.6644392671398962;-0.48720408776351104;0.31699544379901967;0.0
2.3231902001455054;-0.8680648434921624;5.3972127060521125;2.864496032637529;1.7540753197740242;-1.4633170458400573;3.076780227440345;2.947956197956291;0.028519428373434068;2.3679729285679705;0.02906087488528592;0.1142041399000713;1.4621123339759852;2.137772477164703;2.060758300002867;-0.7918016175069403;0.33750381446501326;0.0
2.5225619005583955;-1.500034697789594;6.363318542148783;4.6687344599132;1.65005034022058;-1.3040539996448515;2.7226661252620517;2.6739192846585604;0.01883461574370482;0.14362952838739224;0.024217395737738248;0.06525950851432641;1.5100856088399748;2.2803585460255973;2.244077237758013;-0.9868047124458176;0.35708067115262815;0.0
2.626034613240096;-1.7974390608555066;6.89605778993506;4.6687344599132;1.4758854755011674;-1.0344700672769218;2.178237936795307;2.301808454083311;0.03453069914844942;5.539878092096038;0.0244723156928723;0.12745997756704391;1.5357935045520046;2.358661688624128;2.3463506116418706;-1.0742524755793876;0.36590526042066346;0.0
2.589363292637758;-1.6534574064400762;6.704802261259851;4.6687344599132;1.2609186720006582;-0.5264836506504208;1.5899158973999037;1.7362790102478973;0.03778062495408674;1.772543844006077;0.022178036096665577;0.12745997756704391;1.5368153492456191;2.3618014176769346;2.3463506116418706;-0.8490946808794667;0.37649749860382714;0.0
2.5752266345924673;-1.5796383606612772;6.631792219514446;4.6687344599132;1.026619408458177;0.30628120093813893;1.0539474098230173;1.1465323872696895;0.03935376494724152;0.4434135907090106;0.0433363923727949;0.12745997756704391;1.5368751123115822;2.3619851108427388;2.3463506116418706;-0.9079586841631346;0.3742577276546758;0.0
2.4398467291064025;-1.4173778411276712;5.952852061531212;4.449076891708639;0.7834337914597117;1.5224165068465905;0.6137685056009391;0.744869550941117;0.03703266574597085;0.7047531229751232;0.03925767309064955;0.1264402977465075;1.4598613890861774;2.131195275344623;2.315708879267163;-0.5833103221549979;0.36087880541962614;0.0
2.1250370611499734;-1.951559760135203;4.515782511260915;4.0204986328689305;0.534512131801562;1.7177154470108664;0.2857032190430504;0.4230764185535407;0.03687375649420355;0.6821832542577485;0.03925767309064955;0.1264402977465075;1.191627998136147;1.4199772859419615;2.136305620976338;-1.7220823479792864;0.30703629518595815;30.0
2.016253149281398;-1.821548193089864;4.065276761987156;3.5601650003063106;0.3632689505354262;1.3759361425002485;0.13196433042310993;0.33890067346340613;0.03670941231080954;0.3184752586482047;0.04193433261955745;0.1264402977465075;1.1398719616835573;1.2993080890323212;1.6284497035692924;-1.4142293919565256;0.29876391323224916;30.0
1.811248972272596;-1.831918701154253;3.280622839558535;3.281420572297774;0.2764811790539186;0.01367284790971755;0.076441842371045;0.33890067346340613;0.03757886762788445;0.470005722769202;0.0442286122157642;0.1264402977465075;0.9985852457540644;0.997172493037705;1.4456671718734064;-0.9785887971069693;0.2729785361196843;30.0
1.7427981757231208;-1.5903617211028331;3.037345481303838;3.035651889055751;0.26477222222040836;-0.21887461846443254;0.0701043296595333;0.33890067346340613;0.038131318830750334;0.3889486513785275;0.0442286122157642;0.1264402977465075;0.9803955502503164;0.9611754349506207;1.4008252291346706;-0.5137359723824375;0.2745265714631585;0.0
1.6732417419262566;-1.3042615259181243;2.7997379269244136;2.8167333405852046;0.2872430051892446;-0.6104850032860706;0.08250854403014841;0.3728633164673929;0.03723965647936089;0.5015510047532783;0.0442286122157642;0.1223615784643621;0.9050429963906662;0.8191028253157954;1.263442903760609;-0.2574373958081291;0.24648925099927296;0.0
1.5710735706268333;-0.6591434374865224;2.4682721643221472;1.7765047896804123;0.3286235281401716;-1.0107338176962672;0.10799342324729416;0.5034652250346832;0.0369154683734571;0.5454676273531978;0.04346385235036198;0.1223615784643621;0.8284871816258748;0.6863910101183851;1.03799560559239;-0.22541253402052916;0.21766853145128331;0.0
1.4309595864787266;0.15042659047450369;2.047645338135368;1.325846992974284;0.3887392681337741;-0.4490886350204581;0.1511182185891823;0.5164020288806759;0.036302253953006736;0.4917564591525547;0.04269909248495968;0.1223615784643621;0.8146421701902313;0.6636418654522499;1.0557186391021807;-0.8870554706378724;0.20429734024098906;0.0
1.1872815588895935;0.681117758285873;1.409637500079303;1.5479479456038248;0.41672406387631444;-0.42990012906603786;0.1736589454135906;0.5352340762395804;0.03587994080739342;0.570018212943195;0.0388752931579484;0.1223615784643621;0.7858425702914824;0.6175485452823234;1.2990315934179129;-1.035992914514953;0.18999487024870476;0.0
0.8794962492658992;-1.2906260089489665;0.7735136524727847;1.4348601307147044;0.5004313580769809;0.048072658361348254;0.2504315441467715;0.659184230527045;0.028508343969289505;-0.4367629007145821;0.037855613337412;0.0897318242071989;0.6830555923360565;0.466564942221561;1.1901511976598016;-1.017544117178564;0.1601935712254213;0.0
0.7694029498983945;-1.4753441356734984;0.5919808993123513;1.2430889648324266;0.5959197999843725;-0.27616792201125184;0.3551204080134145;0.7769296549864657;0.02321680795743406;-0.49706310813045446;0.027786275109615496;0.07341694707861719;0.701407137331139;0.49197197229906336;1.1901511976598016;-1.014290388885036;0.164998025969031;0.0
0.7604623062437805;-1.3490848629358618;0.5783029192176095;1.2430889648324266;0.6483501411810182;-1.0441556161066035;0.42035790556944624;0.8773355681462496;0.018591476415329482;-0.6120871431334087;0.024727235648006475;0.0596512695013765;0.7141887521735633;0.5100655737312314;1.1901511976598016;-1.1571275998544763;0.16953214739237635;0.0
0.6891401602885617;-1.0636098797932094;0.4749141605225446;1.149797433294932;0.6610953550909305;-1.573607017465004;0.4370470685228035;1.1302013007674692;0.018538068753119388;-0.23660522332188774;0.02332517589476895;0.0596512695013765;0.618128006135131;0.38208223196859253;0.9279956398640294;-1.4073997870475614;0.15226738868844045;0.0
0.7717843110138993;-0.7529221646810432;0.5956510227271993;0.9235457951814237;0.6524519976404631;-1.903159168615741;0.42569360922503097;1.3200363583954098;0.019925703730718745;0.1562364136676049;0.023707555827470077;0.0678087080656673;0.7307251821432426;0.5339592918182751;0.8238655450513428;0.4882910654274023;0.19038690854749454;0.0
0.774700264157723;-0.8034349042126684;0.6001604992860458;0.9410958702153565;0.6488319981770939;-1.8842310502426098;0.42098296185848044;1.2470383607238906;0.015486287931907403;-0.027660187283923835;0.020393596410726973;0.0550627103089629;0.7165028543699767;0.5133763403203241;0.6730058384837467;0.7093275434656694;0.18883943844603895;0.0
0.8788458303525549;-0.7420345784510781;0.7723699935280717;1.2572422187704895;0.6354935687978662;-1.5795973191040178;0.40385207598344836;1.015817941763661;0.015504079942423766;-0.09794996247725546;0.020393596410726973;0.0550627103089629;0.808187110603559;0.6531664057457293;1.0185953346972103;-0.03564959654379057;0.20650737675126882;0.0
0.8068230591563277;0.015250851305135408;0.650963448786375;0.9304283207570974;0.6027982849032688;-0.9236031722244269;0.3633657722823225;0.8805080133164527;0.01510781631925325;0.06483484791368394;0.018481696747221277;0.0550627103089629;0.7839636726723708;0.6145990400699521;0.9279956398640294;0.5853681960570952;0.19701186923812594;0.0
0.8074900348820409;0.00784528938095832;0.6520401564337995;0.9304283207570974;0.5350583379024632;-0.15916756189347503;0.2862874249589465;0.6767296957100319;0.015188414790975057;0.0036482153159359616;0.01873661670235535;0.0550627103089629;0.8380836934046557;0.7023842771507889;1.0022588570550712;-0.2693608778463872;0.21364219653549646;0.0
0.8207348907634541;-0.2714361381821738;0.6736057609164988;1.129648926872667;0.46148504624783204;0.23759844818082457;0.21296844791036368;0.43566868619543614;0.016407793508654345;-0.4409731707157701;0.021923116141531473;0.0550627103089629;0.8571181374662724;0.7346515015736518;1.2477198405889798;-0.6616015008224407;0.2224419025070308;0.0
0.8928536501876039;-0.4169255395132565;0.797187640653328;1.003593756772391;0.4208241727618715;0.5442286034669905;0.1770929843807135;0.38626993884189664;0.016034862468408913;-0.9518540834309261;0.024344855715305348;0.0499643112062811;0.9152018146833049;0.8375943615996142;0.9915536223306112;-0.5656985650511142;0.2527501328797756;0.0
0.8885487725256992;-0.2766991884081828;0.7895189211569268;1.0565082383798243;0.38359150333828673;-0.521413249018926;0.14714244143332686;0.49523144783428;0.015050420977278196;-1.1084522025546013;0.024599775670439403;0.047924951565208394;0.8961626034654818;0.8031074118500304;1.0861301498376137;-0.4218384991211375;0.2621292713483834;0.0
0.8405392613134818;0.6749360504229275;0.7065062498094136;0.9594652201138594;0.366597166513693;-1.356439061907417;0.13439348249586835;0.6334086980350779;0.018014361715112077;-0.9234766388800728;0.026384215356378;0.0565922300397674;0.8397507255430983;0.7051812810501599;1.0015985902517817;0.5550802235335646;0.25350283633924414;0.0
0.8400537713669568;0.6566953787559018;0.7056903387878474;0.9594652201138594;0.365530577836055;-1.6459093938267708;0.13361260333316027;0.669032555149522;0.0178465486513469;-0.8613965061939445;0.026384215356378;0.0565922300397674;0.8397585141902613;0.7051943621550353;1.0015985902517817;0.5555677902519821;0.2535187145133581;0.0
0.8296367189895475;1.1001401100152337;0.6882970854957414;0.8179752170071426;0.38273982217388086;-1.3815090533157492;0.14648977147769393;0.6016656627557173;0.019756134549626835;-0.9667844426079796;0.02396247578260425;0.061180789232180996;0.8268727456876004;0.683718537560951;0.8709328705586485;1.0645947179730633;0.2535144937346083;0.0
0.8299165043820452;1.0896489269222647;0.6887614042457133;0.8245731896600574;0.3728184167356536;-1.4361774956906717;0.13899357185727945;0.5737912697832895;0.019495910346104636;-0.8460982033582228;0.02396247578260425;0.061180789232180996;0.8253432423619396;0.6811914677125193;0.8381527500035624;1.1204152352054766;0.25332844572372587;0.0
0.7861423081842033;1.610172348757335;0.6180197287171868;0.745485538100418;0.3575189953852953;-1.4651270554974778;0.1278198320613108;0.5857924413834514;0.020336545864481494;-1.1875729245623587;0.03237483430202914;0.061180789232180996;0.7886523678000651;0.6219725572366491;0.7498588126543431;1.5858623351661214;0.23942107457945308;0.0
0.7730454267709841;2.3479511150631236;0.597599231851533;0.5020686707610449;0.34956741521782614;-1.155314735623221;0.12219737778207208;0.5757848953675662;0.0187652739388814;-0.7301450773971769;0.025746915468542894;0.061180789232180996;0.7744271126639583;0.5997373528290351;0.4879953079046242;2.334410935840707;0.23837530324793205;0.0
0.5586999466468785;-0.1233998170080699;0.3121456303832249;0.5020686707610449;0.3329846912079029;-0.6821769393611059;0.11087880457882247;0.3827489714031407;0.01757866999384417;-0.1672632893886253;0.02345263587233607;0.061180789232180996;0.564644439462131;0.3188233430155042;0.4879953079046242;-0.07937159638680669;0.1791706639095901;0.0
0.5695816875980424;-0.4278102609265463;0.3244232988470339;0.6475892354674357;0.2997223828358007;-0.4150920563239361;0.0898335067727703;0.37601334436156014;0.014173905177407117;-1.3153185815893313;0.02319771591720197;0.0428265524625268;0.5625655367471876;0.31647998313565123;0.6130287418195528;-0.46127507000540313;0.18844139214233596;0.0
0.5865513634610436;-0.8558263483097316;0.3440425019780093;0.813178624151567;0.23717037265097335;-0.7520236105068313;0.05624978566340157;0.36405489461243545;0.013937696579866595;-1.2516508764956087;0.021668196186397447;0.0428265524625268;0.5792127144182212;0.3354873685437239;0.7867191757353562;-0.8518021634625351;0.19616974475458512;0.0
0.6526082992994822;-1.1041427217626494;0.42589759231456253;0.8819460431978174;0.2001788079431893;-1.644438091799813;0.040071555149556265;0.34966851216599815;0.014077925103835357;-1.4333215890268929;0.021668196186397447;0.0428265524625268;0.6508444765199307;0.4235985326165027;0.9146310433898073;-1.032289088458513;0.2295921767852473;0.0
0.7800678618249376;-0.3559462129754751;0.6085058690521299;0.9238449823096855;0.22540714663514272;-0.8700819523810733;0.050808381754196726;0.34966851216599815;0.01392037814214074;-1.1819002704490067;0.020138676455592926;0.0428265524625268;0.7818854959259297;0.611344928739337;0.9301383915294466;-0.19589875634849124;0.28351788413187756;0.0
0.9009812264349545;-0.9498716240378934;0.8117671703882346;1.2620300017635477;0.2840586302584982;-0.2648247123997066;0.0806893054243342;0.36405489461243545;0.014664394927585415;-1.3427891302439448;0.02166819618639745;0.0428265524625268;0.90253988600299;0.81457824582629;1.2185935451412364;-0.8558382088584116;0.339655892616987;0.0
1.0136022270773144;-1.3348802034917977;1.0273894747360914;1.5176516233484452;0.3474355637203123;-0.5235964039588332;0.1207114709376512;0.4173704022080954;0.013241271298003909;-0.3896093271169718;0.020393596410726997;0.0428265524625268;1.0100048699805722;1.0201098373844726;1.5512564920731937;-1.3338519948408536;0.40825610005828455;0.0
0.9785737907867268;-1.1015860650709461;0.9576066640147046;1.47331226907268;0.41461971331839864;-1.0446780588235702;0.17190950667223107;0.6276618211016068;0.01334791890334504;-1.2344545586706908;0.020138676455592926;0.0397675130009177;0.9777888446022888;0.9560710246286789;1.501373323117789;-1.1149700800888676;0.4072595585268226;0.0
0.9822787970229306;-1.0051003039189115;0.9648716350808157;1.4773455196005938;0.4359041308679989;-1.7092975703831246;0.19001241130778548;0.7881057507721122;0.01151859412351959;-1.5487420880529357;0.018864076679922473;0.0336494340776996;0.9831917235468294;0.9666659652509849;1.496369526908739;-1.0342418303821268;0.43621437063444274;0.0
0.8899244067883294;-0.0355179521532471;0.7919654497975599;1.1915893421570933;0.4363101348920714;-1.8148616377599922;0.1903665338095375;0.7881057507721122;0.019359071064499692;3.5375158551891963;0.020393596410726997;0.0723972672580809;0.8938606355751024;0.7989868358307262;1.2008511902343537;-0.07640223637153996;0.41976949982389516;0.0
0.8786767286174512;0.21690347490634534;0.7720727934138659;1.1375595210098965;0.4419348367136232;-1.6281734223919215;0.19530639990109683;0.7961876201386084;0.01879421491209602;4.002535052347379;0.020393596410726997;0.0723972672580809;0.8821940325259424;0.7782663110243835;1.144465921049087;0.18454873392097712;0.4179799735820802;0.0
0.8095387982032591;1.7548852756004976;0.6553530657963772;1.0418956833746589;0.4444210816213641;-0.9359230629236948;0.1975100977895032;0.629569349316802;0.020790461306309193;1.3161127982524894;0.021413276231263347;0.0723972672580809;0.8132516192169247;0.6613781961589498;1.063776228117955;1.6671667687694847;0.4001663453031148;0.0
0.5573512604072822;-1.4351165059592028;0.3106404274775861;0.8950941439599185;0.42685751500259983;0.019400709540943556;0.18220733811419476;0.4447067929876518;0.023540467489476493;-0.44381971829464784;0.02957071479555415;0.0723972672580809;0.5538323820846883;0.30673030744560015;0.9507724339162831;-1.4493396266394145;0.30149849961959113;0.0
0.6393531922585843;-1.3329980812515707;0.4087725044512423;1.0418956833746589;0.3662332672947579;0.010406185187234011;0.13412680607339358;0.40137216666412157;0.023021283486191417;-0.6966258792021778;0.0326297542571632;0.0723972672580809;0.643247788633333;0.413767717581673;1.063776228117955;-1.2058296142523164;0.33643703861734303;0.0
0.6145297910016244;-0.966219465439712;0.3776468640285002;0.8950941439599185;0.30618111394292885;-0.5209721450666842;0.09374687453533279;0.44491324609478644;0.028789919700214644;-0.6756833314018492;0.044865912103599345;0.0907515040277352;0.617063614804775;0.38076750471593573;0.9507724339162831;-0.7568208947469429;0.3344872603918653;0.0
0.644228954697293;-1.4207784186371475;0.4150309460703669;1.0346257374881476;0.2494559251872014;-1.2071111418045015;0.06222825861100261;0.37255025919579354;0.02846967019978458;-0.6270491866951975;0.04333639237279485;0.0907515040277352;0.6474886375649378;0.41924153577569945;1.0652877702379566;-1.258762346367909;0.34051453272938786;0.0
0.6201541224395569;-1.1705154180249495;0.38459113557877694;0.9761810199071879;0.2169464872441176;-1.33448372530349;0.047065778327562084;0.33194006598657383;0.028276448101340897;-0.6060007060304687;0.04333639237279485;0.0907515040277352;0.6139246364386615;0.3769034592263427;0.8797605762388809;-0.8899957178838204;0.31562621173069155;0.0
0.6044146165720976;-1.066501862891729;0.36531702872599575;0.9761810199071879;0.205145277809188;-0.6541692673631007;0.04208458500740892;0.329163617720729;0.029073069453774227;-0.6940737748085534;0.04333639237279485;0.0907515040277352;0.5827672624554613;0.33961768218983246;0.8549240643458373;-0.6147156793770794;0.29538208630541385;0.0
0.7935183755122314;2.1052856866165133;0.6296714122755706;0.9761810199071879;0.200141212489158;0.32342669429544657;0.040056504936630294;0.2543410749189051;0.029833655628808443;-0.7984048860177608;0.044865912103599345;0.0907515040277352;0.6200115594021772;0.3844143337923196;0.8549240643458373;-0.052418811686004575;0.3172028238606598;0.0
0.7766632714059074;2.054582919833182;0.6032058371509262;0.8608785457883554;0.20260509789136785;0.8494828875493555;0.04104882569157075;0.1707832969109766;0.02933912802751648;-0.775964309983706;0.044865912103599345;0.0856531049250534;0.6073743697156607;0.3689036249874961;0.7683129870812089;0.15812139056433744;0.32047213035311184;0.0
0.8002724723068415;1.2745742517809624;0.6404360299321045;0.8748713773110541;0.18351405616223754;4.2496779385137415;0.03367740880911688;0.1197140356588644;0.029261031620923025;-0.7672566238300501;0.04461099214846525;0.0856531049250534;0.6203615830079993;0.38484849367219076;0.7683129870812089;-0.06251497873957419;0.3296140576486955;0.0
0.9397890851739984;-0.16258231662451597;0.8832035246121809;1.019132932395446;0.10616996987915762;4.503077598846173;0.011272062504141239;0.09949503526687331;0.03163797125184697;-0.7422249985452418;0.04461099214846525;0.0856531049250534;0.6878407106724019;0.4731248432583149;0.8946938008338188;-0.6047279412554013;0.38676827558679344;0.0
0.9976163950124628;-0.7421143634194898;0.9952384715976621;1.0364087573812;0.056950533213176675;-0.7184144967777387;0.0032433632332651394;0.0641789629909073;0.04343821800708027;0.7013898914916088;0.057356989905169645;0.1391862955032119;0.7060386337101887;0.49849055229135003;0.7308335292948374;-0.31625645430766114;0.43297855695507975;0.0
0.9939093775464654;-0.7686356668774023;0.9878558507748022;1.3634133213693596;0.05243057640984519;-0.4020938634437982;0.002748965342668615;0.06232752631602578;0.04721381758136845;0.5275523571479103;0.0601611094116446;0.162638931375548;0.7166798987887644;0.5136300773278735;0.9122581080292761;0.20985422910268187;0.47720974777346536;0.0
1.0147790903410236;-1.0066770824637987;1.0297766021933557;1.4948754013000016;0.06952910908895722;0.3559154391449662;0.004834297010704113;0.08596894369298913;0.048008762724377804;1.0094284225293455;0.04563067196900176;0.162638931375548;0.7285598007759923;0.5307993833067536;0.9961468136190649;-0.2034382917011846;0.47551945296296066;0.0
0.9160267317880253;-1.4853199644516981;0.8391049733502508;1.608948126636361;0.08187649902097376;-0.0072835979191167;0.006703761091931517;0.08763154839114973;0.04943294454969574;1.1137746466005012;0.04078719282145402;0.162638931375548;0.6199546323284775;0.3843437461455376;0.9712892991877634;-0.7502881440870315;0.4663648748277684;0.0
0.9418317055390827;-1.4115376561900004;0.8870469615586573;1.6405873688386874;0.07914311690808919;0.03970985213177806;0.006263632953927473;0.07577970799411049;0.045805419511442076;3.634273112120839;0.02574691546854285;0.162638931375548;0.6335788057009513;0.4014221030334438;0.963795039030098;-0.5013509587977183;0.5089289007389611;0.0
0.7850682600171577;-1.6613958801681208;0.6163321728863675;1.4740637444949918;0.07741690718204945;0.5573102377580395;0.00599337751763406;0.063336643572386;0.04662252559849155;2.2973194407666027;0.03364943407769955;0.162638931375548;0.4958071657656357;0.2458247456245526;0.8185008810605552;-1.3421421621674183;0.4487314582363737;30.0
0.7768897785841652;-0.9332438521938305;0.6035577280685532;1.194650198390759;0.08462973402681685;0.2521257310487221;0.007162191881449761;0.08056888727878764;0.0486691411965832;0.7938147471990855;0.0618180891200162;0.162638931375548;0.45480667316992834;0.20684910995989803;0.5813675271211707;-0.15971985691631654;0.43813751208812834;0.0
0.745413580965;0.30560061665125005;0.5556414066870645;0.7553154264447894;0.08741678005444077;-0.5111015936118564;0.007641693435086474;0.09702414771141954;0.04831013906194754;0.5449355060377135;0.0618180891200162;0.162638931375548;0.4409688772449873;0.19445355069870465;0.2955228407576209;1.4016193913150055;0.456348314685211;0.0
0.758654075731797;0.222866928666414;0.5755560066244672;0.7820889472392976;0.09426057200871292;-1.178736317902897;0.008885055435409754;0.14891878207163156;0.04787306839024126;0.6016104152368857;0.0618180891200162;0.162638931375548;0.4449915014786073;0.19801743638818536;0.336012594013287;1.350422769561304;0.46343902608968135;0.0
0.66701986946304;3.2497509567603653;0.444915506258491;0.5125652212743903;0.10621495569130757;-1.067551647702595;0.01128161681250643;0.15725301037165917;0.046754310330498115;0.5887408635975191;0.05799428979300485;0.162638931375548;0.3956521516482331;0.15654062510387645;0.21047352969273192;5.538381783249341;0.45816798153288857;0.0
0.6969324895797587;2.3241930040240604;0.48571489503184045;0.5125652212743903;0.12842266424864468;0.06796577786916676;0.01649238069272012;0.13131360453764307;0.04567723465052758;0.7092342997904104;0.05264097073518905;0.162638931375548;0.3981569767233903;0.15852897811351035;0.21047352969273192;5.2721652104395815;0.4598655347529133;0.0
0.6980731742812053;2.31889826194244;0.487306156651038;0.5125652212743903;0.20707044498516067;4.162659101082774;0.04287816918635245;0.15352266844210105;0.04353623234707589;2.143867023275008;0.038237993270113124;0.162638931375548;0.4514184877509099;0.2037786510833184;0.2430864085925044;3.63548521815289;0.5582731151806357;0.0
0.7051981824139695;2.2464904337338227;0.4973044764799661;0.5402927185249033;0.2894688048324853;1.7039885986127703;0.08379218897114747;0.2122513900001201;0.031044971766069827;-1.0442158776845583;0.04945447129601302;0.0973794228612215;0.4713556229150241;0.22217612325361039;0.32660096950608064;3.1213692294233044;0.6080080704007316;0.0
0.7915941613286086;1.7626066234061353;0.6266213162495432;0.3769364421723444;0.31324976883327055;-0.3208971906129338;0.09812541767409745;0.3501578468808815;0.028318619476576334;-0.8259624024100718;0.0410421127765881;0.0917711838482716;0.4794177921157194;0.22984141939711114;0.4333080084944957;2.223147593860285;0.5962944621381705;0.0
0.6978928230080687;1.7892124231478874;0.4870543924061714;0.24812034282331125;0.31053494214881655;-0.3352041465382551;0.09643195029536886;0.3501578468808815;0.027526490932143197;-0.5898488420983243;0.03390435403283362;0.0917711838482716;0.4188059068871558;0.17539838764357302;0.4333080084944957;0.6211724807572371;0.5372557012457189;0.0
0.7753474740176302;0.6249458875970744;0.6011637054655197;0.48466953787541617;0.3084721761806665;-0.4016215533343894;0.09515508347763615;0.3501578468808815;0.024944251449713975;0.13153005920839922;0.028423574997450726;0.0917711838482716;0.4572856901717808;0.2091102024358819;0.5133066563232774;-0.49503113739292465;0.532973854743743;0.0
1.3239352551427703;3.7629758894639456;1.7528045598099526;0.9966384965249986;0.30067787090953385;-0.6039974176777189;0.09040718205469031;0.400171719011897;0.024871199530966056;0.2184425653137358;0.028423574997450726;0.0917711838482716;1.034071314927685;1.0693034843562714;0.7124972031381159;6.653013855698843;0.9057853162683939;0.0
1.939134144284729;2.385316696251736;3.760241229530868;1.2772318042797268;0.2942072572705443;-0.7908586841816316;0.08655791023065625;0.4306235077662935;0.026684438685068416;-0.23242004216951892;0.0326297542571632;0.0917711838482716;1.6989151320109184;2.8863126257756764;0.9107051237196432;3.3267589560744404;1.0899310801219797;0.0
2.0457199897822997;0.49763068898587903;4.184970276594892;1.92083927390484;0.25157828012577055;-0.9624707562024721;0.06329163103104067;0.4015823094600423;0.02251374590397341;-1.1086343995421999;0.03619863362904042;0.0657693484245946;1.7891497379083898;3.2010567846576596;1.5466374897471749;1.061870726611406;1.0013524343638733;0.0
2.046823920456118;-0.09748442363075911;4.189488161351352;2.8977077273224583;0.23415064819601375;-0.8450341450707868;0.054826526050613396;0.3664096469076666;0.021268219919925536;-0.8229762363866939;0.02982563475068827;0.0657693484245946;1.783368410695433;3.1804028882663546;2.5604174409621887;0.3257819186186497;0.8986253214214476;0.0
2.0472620312004106;-0.4833641190968535;4.1912818243948315;3.150149502881742;0.24608661692205486;-0.6932564785842488;0.06055862302814218;0.3664096469076666;0.024192134509739664;-0.8968604123991845;0.03619863362904042;0.0759661466299581;1.7733416362798515;3.144740558963701;2.51890377348777;-0.269412217367004;0.8015042888230332;30.0
1.9789982003980697;-0.2457778208429286;3.9164338771787985;2.528253837086957;0.276687295619103;-0.6519281869161293;0.0765558595570129;0.3664096469076666;0.0235822566203002;-0.7072152743335968;0.03135515448149279;0.0759661466299581;1.697882331435133;2.882804411399603;2.2320209966489717;-0.18220731464762327;0.7057971916033892;30.0
1.779370565134;-0.787619732203196;3.16615960806529;2.4295450149453797;0.30705876387591974;-1.104833721048401;0.09428508447300782;0.4436441440312962;0.022876093650658434;-0.39982956164242045;0.028551034975017844;0.0759661466299581;1.7763905841146703;3.15556350733126;2.3920647608377896;-0.804180428382029;0.6603846764415071;30.0
1.5925586729639853;-0.30702880945203725;2.5362431268328103;2.218250799490693;0.32003598714252607;-0.94278489815552;0.10242303306629111;0.48030813283131013;0.02285559697528771;-0.387889325335015;0.028551034975017844;0.0759661466299581;1.5838735319573067;2.5086553652349135;2.1577508342375475;-0.3282722386312148;0.5394127481124338;0.0
1.36720850258967;0.15429686866785156;1.869259089553488;1.3135540910648293;0.291290549466362;-1.2971051209616125;0.0848501842084151;0.5131311121987174;0.02835458251077965;1.4607829530710894;0.023580095849903098;0.10706638115631681;1.3568456545679561;1.8410301303199452;1.2272677776827399;0.15271206522774922;0.4291625376504766;0.0
1.290193296996958;0.3348978583053047;1.6645987436158807;1.2778733471918144;0.27698191457782084;-1.3116173887585398;0.07671898100319523;0.39935534475338896;0.028039474477830232;1.0135249844635439;0.030208014683389274;0.10706638115631681;1.2532252758098466;1.570573591928666;1.1495444816366165;0.4223712299607333;0.3872884991925501;0.0
1.1939899696868068;0.8772192523336912;1.4256120477127021;0.895668858784501;0.296856855740492;-1.3674248948319407;0.08812399280013128;0.45518751623959186;0.027631702581418362;1.5816109203045174;0.019501376567757675;0.10706638115631681;1.154580765116099;1.333056743176077;0.7984284875585663;0.9859389270436522;0.33925008677364554;0.0
1.0367344719307758;1.6606281654973019;1.0748183652895846;0.898357652154099;0.2981775414230813;-0.997559117406057;0.08890984620911335;0.4518987995186798;0.027864511924012847;1.480592299378308;0.020648516365861073;0.10706638115631681;0.987984481553523;0.9761133357905837;0.8922436118036545;1.6855374959878948;0.274247300664079;0.0
1.0458020757471391;2.0529906020594137;1.093701981637025;0.820917361866139;0.2747723478026231;0.5192396290884573;0.07549984311696568;0.23533743129543816;0.027873697662149675;1.5505125645998843;0.020648516365861073;0.10706638115631681;0.998999339218195;0.9979996797583902;0.7447302042284765;2.071588408867792;0.28572097094966675;0.0
0.7723704054972427;0.48489539569551676;0.5965560432879751;0.820917361866139;0.21299769509931513;0.8985373597930094;0.04536801811762081;0.20907624587156448;0.027386203158945886;0.07942740016981892;0.0326297542571631;0.0907515040277352;0.7296392461787768;0.5323734295643336;0.7447302042284765;0.31876189148123396;0.21677362597627395;0.0
0.7727972382072098;0.47648156154057486;0.597215571380691;0.8277744130813636;0.1885844818616824;-0.35105944777313186;0.035564106799039215;0.20907624587156448;0.02533951448739631;-0.14409919223409323;0.031355154481492696;0.0805547058223717;0.7304217342773712;0.5335159099047627;0.7591428385255163;0.3007883657643365;0.2168995295809679;0.0
0.9853507441551197;0.25924863649306706;0.9709160890070482;0.9706483266539143;0.23524022662064428;1.2040691273541333;0.055337964220532075;0.20907624587156448;0.02901733918872986;-0.04981883696344956;0.031355154481492696;0.1040073416947078;0.9667197759691454;0.9345471252498346;0.9000980875406359;0.6771440988536754;0.3008514493748273;0.0
1.3279459516225376;0.5135401019933638;1.763440450430687;1.2477275921647908;0.3016649236282168;-0.038188940960479714;0.09100172614761788;0.3407420536764256;0.03121879389629911;-0.0900658592316006;0.0331395941674313;0.1040073416947078;1.3207643766932406;1.7444185387418847;1.1315531042067444;0.728873947589409;0.4497774752389669;0.0
1.4504400693155677;-0.7354724334856795;2.1037763946761485;2.1100220402573244;0.3406983192117323;-1.2953351367602288;0.11607534471369947;0.517939150163816;0.03240726849568117;-0.28878878072386427;0.0423167125522585;0.1040073416947078;1.4541607739759344;2.114583556570288;1.9640409177734113;-0.664917710027221;0.52517960395552;30.0
1.3891945660606062;-1.2895812368818764;1.9298615423723162;2.4739155474535397;0.36287048931126187;-1.912168624605118;0.1316749920129946;0.6796634246317671;0.03246555019250017;-0.2945997822215367;0.0423167125522585;0.1040073416947078;1.4036557745197942;1.9702495333427634;2.559294176028491;-1.3106162282670766;0.5711438170866043;30.0
1.6206060130017077;-1.2877441229382014;2.626363849377291;2.661001329772599;0.39064992654481606;-1.9512806196355785;0.1526073651094702;0.7265635342169936;0.03279866022442949;-0.33160229183109585;0.0423167125522585;0.1040073416947078;1.4791837866045288;2.187984674553712;2.7515011288464604;-1.7183516143825839;0.6562593440904692;30.0
1.73110102284774;-1.5674654580928193;2.9967107513044913;2.956639725842585;0.4305073428382389;-1.3826028166133255;0.18533657223764094;0.7477045496441642;0.02608923679761706;0.15918392338839768;0.02294279596206788;0.0887121443866625;1.5431410107261925;2.3812841789850547;2.8918129148593534;-1.7746260748379623;0.7577533638370362;0.0
1.842860860709893;-1.7780439979511604;3.3961361519364077;3.6488076460016923;0.45186312727579014;-0.9509688839566207;0.20418028579145692;0.586300822856412;0.02485112015069042;1.0591496227500354;0.0186091567247884;0.0887121443866625;1.599265380207141;2.5576497563290914;3.049574826693109;-1.8479520323970904;0.8326758371286238;0.0
1.9188930815268928;-1.2830824384290318;3.6821506583317745;3.257853016938611;0.4217366025142172;-0.7343685741534772;0.1778617619002348;0.530911037852553;0.025070470677123907;1.150689058928439;0.01994748648924235;0.0887121443866625;1.5051885082956251;2.265592445505209;2.407714628056417;-1.1250927087127929;0.8708044739558771;0.0
1.924916966206887;-0.49811087766086454;3.7053053267911262;1.985282654608814;0.3676554435207134;0.1480282329782704;0.13517052515041247;0.35516920487405335;0.02934942062356834;0.5417267327324029;0.028296115019883755;0.10910574079738951;1.3477592451699958;1.8164549829411967;1.4658789797583922;0.11057852931042791;0.86397845775441;0.0
1.8680277560608138;0.5697245128824237;3.4895276974135996;1.6815691543306466;0.2834092980239166;-0.08407044894324638;0.08032083020640919;0.26682859963142963;0.02945109566422768;0.6769490426641659;0.027531355154481532;0.10910574079738951;1.301750283362277;1.6945538002337683;0.8606175030338882;1.6139939628442619;0.935533087090029;0.0
1.5233725171246435;2.1580986082082583;2.3206638259306724;1.7891603793908337;0.2403983662371359;-0.36801846892271517;0.057791374489484126;0.26682859963142963;0.02214043438239435;0.6661609031035356;0.02064851636586118;0.0846334251045171;0.9413652275668708;0.8861684916720264;0.8046361239575245;4.545379794955677;0.8043352095966587;0.0
0.9907652068096355;-0.9277898014669707;0.9816156950245399;1.1650764471058364;0.22997282690082482;-0.4953039579810239;0.05288750111275673;0.26682859963142963;0.026584321209094153;2.446869711468378;0.02064851636586118;0.10706638115631681;0.5052585404495898;0.25528619269724984;0.5928496548259438;-0.10859144226999876;0.5401103481413959;0.0
0.9269114083140131;-0.6233392347328592;0.8591647588626671;1.1842443679603851;0.2709123149395422;-0.16676368224331795;0.0733934823859017;0.275674828699063;0.030578636104469627;0.5701449090118104;0.023962475782604277;0.10706638115631681;0.5620581728706454;0.3159093896906884;0.8046361239575245;-0.8155768747345046;0.568803590029359;0.0
0.9078352321965705;-0.25780110181470123;0.8241648088174011;1.049642390976417;0.37240253277420493;0.8381723115349076;0.13868364641664277;0.36225392135174683;0.03008378685697875;0.36117793422438793;0.028423574997450747;0.10706638115631681;0.48319764820878397;0.23347996723449976;0.6757180083218843;-0.9858163918649546;0.45405438578468926;0.0
0.7764414465205652;1.1506131573944913;0.6028613198749477;1.0031490201148534;0.4716109346921342;-0.04057798991423611;0.2224168737211885;0.4785451574636992;0.029394206329871924;0.657370519645244;0.02670286530029565;0.10706638115631681;0.4800580312572312;0.23045571337456874;0.6757180083218843;-1.1229961442378107;0.4369886255230609;0.0
0.590788294226895;-1.2370087568458483;0.3490308085955243;1.0031490201148534;0.5778256529671816;-0.6831591778443131;0.3338824852269498;0.7330557038963488;0.03271789009548178;-0.17785742882461542;0.028423574997450747;0.10706638115631681;0.4826154861581176;0.23291770747963622;0.6757180083218843;-1.2809179285157963;0.4269048274717601;0.0
0.5868079135421563;-1.2307346515664896;0.3443435273956988;1.0031490201148534;0.6660537965101437;-1.1939619579305463;0.44362765984557595;1.072432979108191;0.03298881719841839;-0.27390542202729257;0.03224737432446202;0.10706638115631681;0.48080216774003265;0.2311707245035145;0.7890279419075407;-1.2386729648440666;0.39497148756953354;30.0
0.5647193208356438;-1.3671296191836695;0.31890791132507074;0.8409757158866903;0.708345938330579;-1.424467325010986;0.5017539683494284;1.1258072390802576;0.034615986167313914;-0.815418203710682;0.042699092484959594;0.10706638115631681;0.4696664943421483;0.22058661590764322;0.7576510494023698;-1.1316767135310108;0.34701467755644044;0.0
0.5334668806774926;-1.1161981283845914;0.28458691277977416;0.6683964932100177;0.688313656606986;-1.6635047283660385;0.4737756898716798;1.197620473753688;0.03896996555417429;-1.175248477951445;0.05608239012949922;0.1172631793616803;0.43475466123869005;0.18901161546876813;0.6356939790995202;-1.2648449682055047;0.2956361381383106;0.0
0.5706875181194838;-1.264974872064171;0.3256842433373762;0.8234626424908166;0.6470000868836091;-1.7604262823205419;0.4186091124273977;1.2364119753665919;0.04003844527991847;-1.3090186143834317;0.06296522891811954;0.1172631793616803;0.4346023280413281;0.18887918353894217;0.6356939790995202;-1.184860125148859;0.2919699032541791;0.0
1.1360792717594626;6.723185809818879;1.2906761117215106;0.86829838415978;0.5923702772678962;-1.4918964422682681;0.3509025453904442;1.057968886849244;0.03567477588602795;-1.112215986789795;0.0604160293667787;0.1101254206179258;0.6192447163453424;0.3834640187216236;0.6699579551595078;1.613939666163629;0.390226590418329;0.0
1.6585843295458667;2.167157525368903;2.750901978215112;0.9967281891123663;0.5118313527002674;-0.8420967512251796;0.2619713336069855;0.7134752769913865;0.03389177704292238;-0.4318811869445988;0.04881717140817768;0.1101254206179258;0.8431146092107137;0.7108422442645345;0.692100928802224;1.9060907613474076;0.45849309850557646;0.0
1.7720067576189176;-0.10718986786414651;3.1400079490471096;1.4132311384944547;0.4467619658649155;-0.6341512145979474;0.19959625414348395;0.6557181823082634;0.03229953592166286;0.5309798012342596;0.038110533292546;0.1101254206179258;0.8707679009982066;0.7582367374088225;0.8933926883973635;0.6440462877882447;0.45270045635653056;0.0
2.1043696482613794;-1.0426743446999511;4.428371616523722;3.457525791290552;0.44000529321683474;-0.7718426068357032;0.1936046580588327;0.6557181823082634;0.03216316888958074;-0.14928653002218906;0.045758131946568595;0.1101254206179258;1.0376432917793625;1.0767036009747115;1.2195947688152846;0.011021635094095927;0.47002883785145627;0.0
2.12624740560828;-1.7793474328634513;4.520928029855941;3.506837813494088;0.5274115470321898;0.4025998015598961;0.27816293994288777;0.6557181823082634;0.030643649705126716;0.21855495105505915;0.0383654532476801;0.1101254206179258;1.0872735691644715;1.1821638142036486;1.6155942959951823;-0.9844581665450638;0.4636938398668462;0.0
2.4637069782358205;-1.5314200737304018;6.069852074607877;4.150307306390616;0.6452891345282635;-0.5328489487695277;0.4163980671402354;0.8748189844613979;0.032568954967695865;-0.2045283306532958;0.045758131946568595;0.1101254206179258;1.3626454735853286;1.8568026866825844;1.883733956729627;0.2809914275994111;0.4980891545792898;0.0
2.4790102586515226;-1.66020140652986;6.1454918624994885;4.146609863394172;0.7422832824344192;-1.4538326239783588;0.5509844713816158;1.2642693671239444;0.033142327462157076;-0.4827551575779271;0.05302335066789015;0.1101254206179258;1.3329910192800225;1.7768650574811935;1.9919867566860288;-0.3476152624495708;0.44746460172649843;0.0
2.5165163898162914;-1.4546097708814054;6.332854740214021;4.580688994061243;0.823120757671474;-1.8612482527220005;0.6775277817096614;1.5709242538163137;0.028469670199784566;-1.488988115067777;0.05302335066789015;0.08055470582237159;1.321268647345796;1.7457508384589893;2.1479020139394076;-0.9156081703672454;0.4043380793607003;30.0
2.404717535012557;-0.6262577330241015;5.782666423196869;2.5477300487214536;0.8936189931533377;-1.797017682520135;0.798554904924385;1.7021781443455009;0.03564860188219483;0.5218157297657159;0.05302335066789015;0.1244009381054348;1.2873231163919812;1.6572008059971624;1.9111577560684814;-1.040026473744742;0.364997627437888;30.0
2.0878229074974706;1.024985121577742;4.359004493071191;2.1169112391902276;0.939079398577367;-1.5361733189642914;0.8818701168324293;1.6004386813508074;0.04165955838572336;-0.5783811190126598;0.055827470174365096;0.1254206179259711;1.2512001429414663;1.5655017976967456;1.8612768207354513;-0.7256707748505771;0.3328003709023523;30.0
1.5382177616722548;3.4140204246967225;2.3661138823240018;1.4878056792182837;0.9803798603814543;-1.068613936839384;0.9611446706415598;1.3847819097017924;0.041917511854623724;-1.1794529914352734;0.05455287039869465;0.116243499541144;1.12070481752205;1.2559792880171314;1.451185999422779;0.4480024653768567;0.2853433167906579;30.0
0.9101287829965167;-0.14488088445225458;0.8283344016387205;1.1632107944201002;0.9928603288760103;-0.6915677273800807;0.9857716326557793;1.2594118197021975;0.04084152025176915;-1.2444906483106049;0.06627918833486275;0.116243499541144;0.8527672719527265;0.7272120201136953;1.0704439614499974;-0.12869921012200003;0.20415034760317635;0.0
0.8336837044229976;0.28156316775840273;0.6950285190204519;1.1632107944201002;0.9471117522576392;-0.6957707019303023;0.8970206712645357;1.1886173030722718;0.03929246964286855;-1.049808462690895;0.0713775874375446;0.116243499541144;0.7870432582339737;0.6194370903315494;0.9906815988826994;0.7077679244215176;0.18568901432533605;0.0
1.4384547922244437;3.914207057216677;2.0691521892734674;1.3207880738564568;0.8779131325652895;-1.1649538946192939;0.7707314683305995;1.3423510594123573;0.038846098736445345;-0.6051537272662119;0.056847149994901584;0.116243499541144;1.0280353532607884;1.0568566875540342;1.107614794626119;0.605869528412286;0.25185533409570254;0.0
1.5816842771493005;1.8017786191289449;2.501725152581305;1.3207880738564568;0.8207799005273345;-1.5849693745417686;0.6736796451096612;1.4883429875584233;0.03670450361153381;0.49182712040220367;0.04868971143061078;0.116243499541144;1.0685969259671275;1.1418993901863945;1.107614794626119;0.40497277119199376;0.26339178019855314;0.0
2.2622924987192308;1.2686899832626655;5.117967349761301;1.93607792694847;0.7666474843680946;-1.7897476770715968;0.5877483652879278;1.4280761294419293;0.03714702844144347;0.19192112491996152;0.05200367084735393;0.116243499541144;1.1237416236786568;1.2627952367879438;1.5081304443203165;-0.5696617451581283;0.2856515552785565;0.0
2.438805778820766;-0.41651523977604116;5.947773626809563;3.779406341204419;0.7233816014161457;-1.5463406833030944;0.5232809412673874;1.2694928795146316;0.03443510190023261;1.5320006032051008;0.05021923116141531;0.116243499541144;1.2444899213510676;1.5487551643443866;2.106468445630829;-1.196714109279197;0.3260108100016334;0.0
2.4367266493315833;-1.312247379226097;5.9376367635627245;4.329534001526984;0.6520139173620371;-0.8763416897826807;0.42512214843378937;0.9940019543677777;0.023058206726225477;-1.7201399319990054;0.04486591210359951;0.06118078923218111;1.1995976203594019;1.43903445077194;2.358993715913294;-1.8566982408224735;0.3418751691186821;0.0
2.3810826216167484;-1.243349558582487;5.669554450965287;4.329534001526984;0.5381131331470764;0.14164803619007418;0.2895657440653632;0.6384141556131138;0.021987515047119006;-1.5242582346486446;0.038492913225247255;0.06118078923218111;1.1816716581492004;1.3963479076730805;2.358993715913294;-1.7953058874158134;0.3429658586137563;0.0
2.368724094907901;-1.2372556636446048;5.610853837797255;4.3089621923970025;0.41996716350676255;0.15036944837257302;0.17637241842391582;0.5658280719549771;0.021065968291972784;-1.0793885925702953;0.035433873763638185;0.06118078923218111;1.184680537515674;1.4034679759684259;2.358993715913294;-1.7932514840117195;0.34360230099106515;0.0
2.3575208690556115;-1.2313288061440497;5.557904648032726;4.299212813115562;0.36769919204178625;-0.8564188936380636;0.13520269582818242;0.5658280719549771;0.01987404855342139;-0.9355252965905012;0.024472315692872407;0.06118078923218111;1.1785146795903167;1.388896850009867;2.3438192605640626;-1.793970454511927;0.34231616522416336;0.0
2.2246695453829215;-1.0869485731549655;4.949154586154254;3.8345633431719524;0.4133381216792815;0.20506510066687345;0.17084840283335653;0.5658280719549771;0.019921552521805136;-0.9777802305539568;0.02498215560314055;0.058121749770572106;1.1285945897287961;1.2737257479651096;1.902611168282065;-1.6987340102486599;0.34935059858985157;0.0
2.163561723471691;-0.935717068507071;4.680999331271795;3.5094603227573042;0.5154709536357589;-0.3197654754156424;0.26571030404215873;0.6994655555907885;0.023114119966185807;0.10100886074599266;0.02498215560314055;0.07698582645049461;1.122276079956129;1.259503599641696;1.7256726903314585;-1.3719138297914015;0.36221050834485397;0.0
2.0624357783257086;-0.766019887648317;4.253641339717971;2.9909201269525525;0.5836189500092114;-1.4151532545949244;0.3406110788098544;0.9611415052825323;0.02286950743694011;0.36334071852362515;0.0219231161415315;0.07698582645049461;1.1872827193618194;1.4096402556951966;1.4635501690703152;-0.22331794459833532;0.42572931493374394;0.0
2.087471316225178;-0.7140825272222387;4.357536496062877;2.598117857116452;0.6240010543135521;-1.952411451554806;0.3893773157844246;1.2254432164990834;0.021808515821872956;1.870939658713553;0.02855103497501785;0.07698582645049461;1.2584324794881971;1.5836523054308118;0.9896607001697295;0.13959909404207263;0.4935692222889755;0.0
2.124171793554065;-0.8334756535272618;4.512105808530693;2.9019856492711726;0.6264646221223334;-2.025496510645723;0.3924579227708781;1.2844171001034939;0.021070034219639735;3.275764560713213;0.0216681961863975;0.07698582645049461;1.34256801393446;1.8024888720399206;1.2495803985627318;-0.22012985294661322;0.5459631280744678;0.0
2.167527343749008;-0.914644180977824;4.698174785899631;2.9019856492711726;0.606827344164423;-1.68847616186524;0.3682394256256471;1.134423224011453;0.022828828899352054;2.443887454715097;0.023962475782604326;0.084123585194249;1.4362342847758789;2.0627689207656803;2.0648086259162275;-0.4970340771054339;0.6186545321337509;30.0
2.0026474484274415;-0.9563420053559532;4.010596802692942;2.8757143706721844;0.5554228707934143;-0.7941140793758065;0.3084945654003979;0.7718321431127172;0.02383983818298306;1.9821314675124528;0.023962475782604326;0.0871826246558581;1.4833967574571667;2.200465940034436;1.7855840096002922;-0.36016534641621295;0.6862540237046737;0.0
1.9886606879897863;-0.9346139077054185;3.9547713319560107;2.8757143706721844;0.461938991037156;0.6396483480983691;0.21338763144042572;0.4824172645431023;0.02360575135133371;2.074793977653026;0.023962475782604326;0.0871826246558581;1.5302640455646008;2.341708049147739;1.8028924827876691;-0.3886731872614304;0.7419129881620391;0.0
1.9343514716479646;-0.8465054130673902;3.7417156158666462;2.776969437955518;0.3440014735376552;2.5657364593812164;0.1183370137960781;0.29346918217989093;0.028983489499441795;1.378848562711089;0.028805954930151978;0.11573365963087581;1.5566817446247583;2.4232580540479813;1.8028924827876691;-0.331383396405205;0.7831575781876876;0.0
1.9077713244011059;-0.6382375785224743;3.63959142620715;2.6754062759888195;0.22996688709347496;0.29624912767446543;0.05288476915946306;0.29346918217989093;0.02917688871293893;1.2076766274994901;0.031100234526358725;0.11573365963087581;1.5132322253636281;2.289871767878958;1.6385650695735248;0.2424170450754357;0.7828722937722752;0.0
2.423423886949156;1.8412474884981305;5.872983335835755;2.6754062759888195;0.20829883047130196;-0.7649631050092505;0.043388402775712195;0.29346918217989093;0.028342912557097245;1.9169931006599161;0.027021515244213354;0.11573365963087581;2.058014495794578;4.235423664900611;1.6385650695735248;3.4336052968980515;0.956999227331371;0.0
2.3908638596052807;2.1138876856959072;5.7162299951666595;2.6754062759888195;0.2239597376667793;-0.8186801951364765;0.0501579640957726;0.2954713346618576;0.028418681595704674;1.8416826133159425;0.028551034975017875;0.11573365963087581;2.0298341058680527;4.120226497345157;1.6385650695735248;3.8329246865775;0.9533829347431944;0.0
2.395389517141926;2.020648091637746;5.73789093883343;2.6754062759888195;0.2558313072504262;-1.475515685288228;0.06544965776946197;0.4562936209879759;0.02808999470373441;1.9979872592284222;0.0239624757826043;0.11573365963087581;2.0352208013306634;4.142123710169028;1.8197685838058388;3.5922641934644375;0.9429778296768514;0.0
2.38277582040221;2.489183879177957;5.677620610293423;2.671049297489424;0.2519738541773655;-1.8029090280695823;0.06349082318899626;0.49788104435061886;0.022217557427858577;1.3290548041100887;0.0239624757826043;0.0795350260018353;2.0371178075646545;4.149848961897025;1.8197685838058388;3.885722300182882;0.9702546402934421;0.0
2.3999764025369466;1.6632153912965035;5.759886732734184;2.8948852590115224;0.23236889907988345;-1.6119064649193837;0.05399530525959706;0.41146868920394475;0.026901001240487228;1.256548241031026;0.0239624757826043;0.10706638115631681;2.0141399567945695;4.056759765556429;1.9415104674433517;3.233757062096792;0.8827567884986646;0.0
2.3426399168129595;1.026162328291239;5.487961779845429;2.925521710482206;0.21198459458534874;-1.4255311083929623;0.044937468341514665;0.35950447150771003;0.026773620299592148;1.400305505710323;0.018609156724788425;0.10706638115631681;2.006193082712544;4.0248106851236605;2.3501745950013015;2.2255347683895113;0.7955971399528203;30.0
2.225631634644898;1.4701013407139525;4.95343617313212;2.546272822624964;0.19230181100957558;-0.6686622963139567;0.03697998651756252;0.2979987430828037;0.02708818733115529;1.2124063005542636;0.020393596410727;0.10706638115631681;1.958446882284925;3.835514190731543;2.202317159820363;2.4799790232408236;0.7566575588358767;0.0
2.199851217971242;1.5757177254939398;4.839345381209558;2.546272822624964;0.15301316303085852;-0.6097303402302449;0.023413028060708087;0.19685065153526904;0.026145936205780734;2.0046831653592636;0.016314877128581602;0.10706638115631681;1.9259910639475895;3.709441578405968;2.1340148249878235;2.6796952637536076;0.7344954382437427;0.0
2.061810579974927;2.1939915900696834;4.251062867696546;2.0118688905439592;0.1273352700215139;0.694078675779028;0.016214270991451857;0.11972375009849467;0.02957710708157686;1.8467129278171481;0.018354236769654354;0.11726317936168029;1.864155590342472;3.4750760650050907;1.7153366163081147;3.0560538154744687;0.6886923974016936;0.0
2.0288332313333877;2.377949590495954;4.116164280562675;1.9988376429157262;0.10459991763826111;0.07917584738027081;0.010941142769931009;0.11972375009849467;0.02933523485782621;2.079559623850375;0.0160599571734475;0.11726317936168029;1.8390054874065314;3.3819411827113344;1.7003359836551677;3.2370416789482634;0.6731741945123322;0.0
1.9517679674712547;2.624526766099344;3.8093981988468726;1.8205372123895387;0.10818280114555147;0.4284588456651767;0.011703518463697932;0.11972375009849467;0.021000384427554905;0.9473329152827237;0.02103089629856223;0.06933822779647189;1.7645074755648604;3.113486631324277;1.531047453331475;3.60935269714979;0.6156879999335949;0.0
1.9520522225447963;2.664125281259361;3.810507879542079;1.8205372123895387;0.12379395296869126;-0.7828469365933637;0.015324942791614544;0.1792306271847337;0.022410252824992358;0.6127989886870643;0.02307025593963495;0.072397267258081;1.7664369055567963;3.12029934131307;1.531047453331475;3.6630463267393427;0.6196900544327576;0.0
1.2637366811108017;-0.5005009798586343;1.5970303991849442;1.4977302785811828;0.1545262257236361;-0.3022896639860322;0.02387835443639214;0.20546006539520012;0.03096160647542801;1.7889069150055534;0.024854695625573554;0.12134189864382569;1.0761772161097425;1.1581574004737154;1.2426107876874832;-0.23124421812210585;0.462296035844268;0.0
1.03917714073287;-0.6919054801848492;1.0798891298217432;1.3103761775287932;0.18577185593928025;-0.49999045260797614;0.03451118245912469;0.2507925155351862;0.03456817474113051;0.21453740691089632;0.03250229427959623;0.12134189864382569;0.8411441948866649;0.7075235565915358;1.134570915431408;-0.5768276150740159;0.38973069890227957;0.0
1.0485870745558357;-0.7851128000532955;1.0995348529255657;1.4004554775808815;0.21460004112963538;-0.4373671595146915;0.0460531776528412;0.29707138902814;0.03533486852080791;-0.16519963177354827;0.03709085347200983;0.12134189864382569;0.8367533485341143;0.700156166283053;1.0691154732352364;-0.49576746676290084;0.3890071264887453;0.0
1.0642011156561306;-0.7714954209637167;1.132524014563753;1.4680203153125206;0.2654365040671023;-0.09881923775598693;0.0704565376913648;0.39262772141282143;0.036360791414145416;-0.4131574425256967;0.04091465279902105;0.12134189864382569;0.8427037431355682;0.7101495986946977;1.1748511565591047;-0.7125537369489898;0.37629985829592766;0.0
1.088996267575661;-0.864998059157514;1.1859128707937208;1.4680203153125206;0.3461753058887726;0.016919220818371942;0.11983734240718528;0.4893992294326973;0.032421575422543404;0.645647410212881;0.031610074436626875;0.12134189864382569;0.8525441525689538;0.7268315320795155;1.1748511565591047;-0.786286834776463;0.3791856280738118;0.0
1.007398504792035;-0.9433813522269121;1.014851747457228;1.4680203153125206;0.3958480158267962;-0.742729989869298;0.15669565163401147;0.5229739221191848;0.032375625024755744;0.6812045279396733;0.031610074436626875;0.12134189864382569;0.7375265608122367;0.5439454279035258;1.1748511565591047;-1.4465677818759097;0.3393169999830263;0.0
0.9878260286875036;-0.2895236006610118;0.9758002629525246;1.2294471061446453;0.42445276806363713;-1.2918369253083901;0.18016015231688376;0.6433763889622037;0.031739232904408166;1.1714971104650165;0.02625675537881105;0.12134189864382569;0.7200283541212683;0.5184408307385826;0.988102558833446;-0.9635862925755393;0.32269612426442096;0.0
0.7852659626970737;-0.3058702945426167;0.6166426321705619;0.9741881288512886;0.43956261992747786;-1.5546120633466187;0.19321529683750835;0.8165653374248294;0.03211252584569407;0.83535679526821;0.03033547466095645;0.12134189864382569;0.6562542318323261;0.4306696167978364;0.8673147387721518;-0.6211685766491877;0.28816520414235464;0.0
0.7602155663707875;0.5918559779750651;0.5779277073524572;0.5047147027844798;0.4270670464075569;-1.8391946940079098;0.18238626212727435;0.7791778349592056;0.024188186331805153;0.03477360702157613;0.02625675537881105;0.0841235851942489;0.6458983580256128;0.41718468890018273;0.6155228244092816;-0.21187884461361176;0.2801759668058977;0.0
0.7037421499541622;1.6545252445292868;0.49525301362210655;0.4713778890105189;0.4191249585953971;-1.7440907897172861;0.17566573091759333;0.7369500151752608;0.023604750276938122;0.11644144934158286;0.025237075558274702;0.0841235851942489;0.6556911977954701;0.42993094686645833;0.48472047992793676;1.120262790058797;0.2604294197462232;0.0
0.7968981745391309;0.056271872986042124;0.6350467005837992;0.7007969878555045;0.389101900495397;-1.2739542751275386;0.15140028896912983;0.6378060063993194;0.024293346056119113;0.2236703367679234;0.025237075558274702;0.0887121443866624;0.760889051122079;0.5789521481174579;0.7109412957003256;-0.12598854807745094;0.3183640394227242;0.0
0.9134814889877457;-0.7664418550171067;0.834448430723269;1.2616447779296236;0.3341933850199734;-0.8025936553171429;0.11168521859110818;0.4771256483320536;0.02431473646862674;0.22630127012452148;0.025237075558274702;0.0887121443866624;0.8859487967544348;0.7849052704706309;1.2673824951411559;-0.731377382063443;0.3951036474066908;0.0
0.8361853208342539;-0.2381868264796089;0.6992058907786841;1.0904423637147795;0.2762876743876463;0.4663854674509891;0.07633487901853407;0.24184162950636306;0.02054367868063819;-0.09337608632851269;0.024727235648006527;0.07239726725808081;0.8392953387560583;0.7044166656576467;1.1044984947548762;-0.2756269898537621;0.3669435771713776;0.0
0.8616879786598961;-0.6359313955823463;0.7425061725669775;1.164481704799735;0.20951704624829695;1.8372806219435083;0.04389739266861101;0.18548532149088898;0.02254433869082201;0.4303331564871984;0.024727235648006527;0.084633425104517;0.8640671323584859;0.746612009222217;1.1755637647383907;-0.6712728124026954;0.3906019773859964;0.0
0.9447729794262827;-0.9524773524764776;0.8925959826540151;1.3484935955157047;0.14151928559688015;2.154902908431547;0.020027708195851333;0.1404491588370938;0.023319085978468372;-0.09148896119369346;0.034669113898235904;0.084633425104517;0.9458040485776726;0.8945452983059166;1.3596696598089342;-0.9578516044929163;0.45839514300532747;0.0
0.9310572320328533;-0.7799473869906535;0.8668675693206783;1.1681271885464577;0.09469849052364468;-0.7411321505288545;0.008967804107456822;0.12844922420052007;0.023606627256605863;-0.20319917366990695;0.034669113898235904;0.084633425104517;0.9307974776524574;0.8663839444041769;1.164474871907568;-0.7704852699835089;0.4559143728208266;0.0
0.8819467509620411;0.03167212012164353;0.7778300715325005;1.1295805314856215;0.08748819886635642;-0.2558532127376408;0.0076541849408791295;0.11079543917784163;0.023184936688564542;0.018982206736959346;0.030845314571224552;0.084633425104517;0.8819790022321674;0.7778869603784496;1.1288140197080347;0.04526331482967281;0.4674855575714707;0.0
0.9021287977897849;0.8896958467574468;0.8138363678016426;1.202382984379517;0.09352958992884419;-0.7314318540789031;0.008747784192257753;0.13204570244163388;0.023125235298832866;0.0528569125017523;0.03059039461609045;0.084633425104517;0.8993316348543607;0.8087973894498173;1.2030049683306836;0.9193909360424237;0.5314405320805281;0.0
0.9105049615930975;0.6967170298971167;0.8290192850856478;1.2316971512316033;0.09740287351222245;-1.0014089358313716;0.009487319768438005;0.16505547903510953;0.023347442796886834;-0.03205991939938018;0.03059039461609045;0.084633425104517;0.9080049145913874;0.8244729249221128;1.2333746976313358;0.7167495202584083;0.5333751095738586;0.0
1.0046743114182184;-0.6574685591018022;1.0093704720236711;1.4176986090266328;0.10756753882941973;-1.1955945195365625;0.011570775409818723;0.172573300568387;0.02324753437576237;0.007420478086646022;0.03059039461609045;0.084633425104517;1.0027641558002416;1.0055359521577711;1.4179063279360284;-0.6564679116017171;0.5481482147658564;0.0
1.0848438152343223;-1.2949573806661163;1.1768861034521605;1.622292024673277;0.15195383899352244;1.261560379094449;0.02308996918486934;0.19493705557247848;0.022959098180818524;0.33636146254520566;0.0267665952890791;0.084633425104517;1.085981732915818;1.179356324226843;1.6211294924849033;-1.3034456064954405;0.5661590825722921;0.0
1.0415796859034756;-1.5110872617981126;1.0848882420867827;1.622292024673277;0.1682717563095063;-0.013403455938175234;0.028315383971485874;0.20103960869614557;0.022988584363594213;0.2947767992489048;0.0267665952890791;0.084633425104517;1.0446908334942875;1.091378937586989;1.6211294924849033;-1.5078846060945719;0.551610492150982;0.0
1.2340786648832522;-1.0085308739056933;1.5229501511200303;2.0290539431511316;0.1902127118854074;-1.0816936322894082;0.036180875762801004;0.27548762913384583;0.0179181821335186;-0.1171738499421786;0.02141327623126325;0.06423982869379;1.238300192531168;1.5333873668227278;2.04211704120471;-1.015133692797275;0.5720491046755352;0.0
1.3505344720973098;-0.9765070457059564;1.8239433603231594;1.8282494319023581;0.20580797447844626;-1.6448906524983815;0.04235692235892079;0.39507824950538506;0.017580014220041434;0.14677874989025164;0.019628836545324678;0.06423982869379;1.3552128008515016;1.836601735591772;1.8532074398175489;-0.9959988919019502;0.5438876088647269;0.0
1.6894598769090436;-0.2785105395457012;2.8542746756855206;2.170110898255138;0.20190482005623023;-1.5451825541143573;0.04076555636193871;0.3689135362869179;0.018882857499640505;-0.3203391197513952;0.0214132762312633;0.06423982869379;1.6920274434633833;2.8629568694332326;2.187050683214025;-0.3078665330921985;0.5909265194792455;0.0
1.6999887708756711;-0.5359571818333841;2.889961821103375;2.2510886639485395;0.1771190670038767;-1.2932086673462784;0.03137116389632376;0.2592753770267794;0.016279110505571907;-1.4509112138238482;0.030845314571224622;0.0469052717446721;1.701276865042767;2.8943429715297455;2.2644084063726266;-0.5569185579648048;0.5463131385458916;0.0
1.7693721558170978;-0.42740603540513195;3.1306778257808445;2.0796079852307634;0.16811644602771142;-1.2993739455818651;0.028263139424988405;0.25469954253706784;0.015371226835494505;-1.1785535346568634;0.02523707555827467;0.0469052717446721;1.7671847227657818;3.122941844376773;2.0868031130922207;-0.4496672186038072;0.4939160319543932;0.0
1.7685805632701088;-0.3166594898013961;3.1278772087768156;1.7239267295682486;0.16333909290638401;-1.4477966623189358;0.026679659271480347;0.25469954253706784;0.013758523081795175;-1.4050178545777814;0.02396247578260422;0.0387478331803813;1.7649659032415967;3.1151046396054256;1.731058298701213;-0.32780334004424705;0.46850036807982154;30.0
1.6801709386039214;0.5247698818703567;2.8229743829291825;1.8092918637271556;0.16240682085745597;-1.4500908769219465;0.0263759754610258;0.25469954253706784;0.018581782166031274;0.38703442918372083;0.026766595289079195;0.06423982869379;1.673392471282581;2.8002423629452236;1.7841465922010697;0.5193159660018599;0.4034627302111441;0.0
1.3449886262966213;-1.2252774984351693;1.8089944048672726;1.8092918637271556;0.16257620291986807;-1.4606931856612173;0.02643102175584212;0.25469954253706784;0.018065284611673164;0.48547930785745924;0.019118996635056576;0.06423982869379;1.3416370483101425;1.7999899693983514;1.7841465922010697;-1.2166969320392957;0.3104923158351487;0.0
1.2843325640973944;-1.2435262054962013;1.6495101352009875;1.8092918637271556;0.16266124775731172;-1.4654770748321995;0.026458681521965545;0.25605841779778815;0.017844838273762296;0.7302945927678289;0.016314877128581574;0.06423982869379;1.2806980539143982;1.640187505300127;1.7841465922010697;-1.2378687521850436;0.29328561172275963;0.0
1.278921787008452;-1.2277027792736597;1.6356409372848923;1.7927556145104484;0.1627948729159626;-1.4631399454798049;0.026502170647724407;0.25605841779778815;0.0177705268478829;0.297902955219955;0.013510757622106625;0.060161109411644605;1.2750781398382751;1.625824262693436;1.7670333579686672;-1.221242404715945;0.2916176755088871;0.0
1.3536618160814882;-1.287929092696431;1.8324003123170327;1.874767948099315;0.1529025865782076;-1.3642114250776798;0.023379200982306267;0.22411803656889587;0.01784682450334807;0.26519240603878036;0.013510757622106625;0.060161109411644605;1.3498755871273056;1.8221641007222877;1.8658513865763116;-1.2904582169369279;0.31327189363016167;0.0
1.3700431038479357;-1.353337197920383;1.8770181064012854;1.934691031747473;0.18304316289494796;-0.5864622195908705;0.03350479948258645;0.29068009032431297;0.02493528961076269;1.4012730180972697;0.017844396859386127;0.0938105434893442;1.3672432799502372;1.8693541865690826;1.9301531209868212;-1.3599534169553524;0.31889513623828203;0.0
1.3696661321057162;-1.3405060639037067;1.8759853134374334;1.934691031747473;0.25166813239882085;1.9008749309330686;0.06333684886511043;0.253469349974546;0.024851120150690433;1.4388500271764535;0.017334556949117952;0.0938105434893442;1.3667718924678458;1.8680654060401365;1.9301531209868212;-1.3470718558352144;0.31947656093312665;0.0
1.4422537974416028;-1.3763603195186285;2.0800960162347235;2.1412927723059285;0.3444305512609001;1.8531840174088037;0.11863240464188753;0.2632741975583759;0.026676356746465374;0.10353923983337583;0.03186499439176098;0.0938105434893442;1.428785054617909;2.0414267322995014;2.115107942934701;-1.3721270462891832;0.34748266152779267;30.0
1.373572558389092;-0.6020207905722518;1.8867015731595556;1.9879985916447005;0.4337671781276802;0.3673276861580436;0.18815396482085064;0.4215917122790244;0.026186876272580088;0.46790132079225244;0.024982155603140578;0.0938105434893442;1.3418764612275562;1.8006324371965894;1.9131658328988683;-0.5600327140993234;0.3529629242835897;0.0
1.4011776829103202;-0.1157260150296199;1.963298899085934;1.8168453242564473;0.48894795103765304;-1.015133293692673;0.23907009882391916;0.7242171095815769;0.028415355333701448;-0.2992831528805059;0.027786275109615552;0.0938105434893442;1.360313705507333;1.8504533773910916;1.7898700633013043;-0.02601454558639173;0.3737198386137029;0.0
1.20122597792047;0.9148622983616443;1.4429438500309895;1.0021586593417657;0.5384176438882158;-1.707715174241141;0.28989355925013754;1.00495389567544;0.028862298048045704;-0.6834116696859067;0.035433873763638254;0.0938105434893442;1.1365381227872715;1.291718904548815;0.917888217957703;1.1921689586943387;0.34720970548881225;0.0
1.122565082575763;3.4955540936155445;1.2601523646183295;0.8079686626735989;0.5461807455818275;-1.9347849906426713;0.29831340684432095;1.00495389567544;0.02933009911095404;-0.8085796115453939;0.037473233404710905;0.0938105434893442;1.0605577006512859;1.1247826364107425;0.6658096022557793;4.131073622388777;0.34612135631371965;30.0
1.0130949519508756;2.2571785428470386;1.0263613816683468;0.8079686626735989;0.5430009381953161;-1.813971521710363;0.29485001888099355;1.00495389567544;0.02720711226258652;-0.8008602367355201;0.037473233404710905;0.0866727847455898;0.9604010417455529;0.9223701609859432;0.6658096022557793;2.9609127438125267;0.31712824661870237;0.0
1.10230550551625;1.538256254087144;1.2150774274914355;0.9638681092658117;0.5143170623599987;-1.1776445683690655;0.2645220406346188;0.7667752720082933;0.026877126665840714;-0.8833775685769972;0.037473233404710905;0.0866727847455898;1.0426213488192955;1.0870592770137668;0.7764576759639708;2.1380908636817;0.3543983315740359;0.0
1.6415762024163914;2.642070677779072;2.6947724283398213;1.1586200187254185;0.4740633350577956;0.1488143685112372;0.22473604564611974;0.4416607749781138;0.028047374261621665;-1.2503588358089959;0.0474151116549403;0.0866727847455898;1.1138792768069936;1.2407270433000712;0.9872260528341426;1.746062408815582;0.3947398915199887;0.0
1.9204595776998676;0.611843921405996;3.6881649895791537;1.1458006008189185;0.3977307374405156;3.1363397929714427;0.15818973950497636;0.2029639765373943;0.024668951873561513;-1.1638234642534055;0.03772815335984502;0.0744366268991536;1.1737102824913312;1.3775958272258804;0.9652780602064148;1.8368806602208982;0.4397174167010518;0.0
2.0040909819726775;-0.15040890741565122;4.016380664024211;1.6638375702694113;0.24116139764250138;2.8689853282190216;0.058158819712884675;0.14337519454365988;0.03444170628996309;1.291052726280687;0.035816253696339354;0.1233812582848985;1.2884584295419594;1.6601251246577327;1.2416327944520495;1.2515116145553324;0.5098927264169427;0.0
2.2390131140553264;-0.573450252285677;5.013179724911731;2.727759557492446;0.15891261982705113;0.15110247349034706;0.025253220740296886;0.14337519454365988;0.039111103918832865;0.19140817855613615;0.035816253696339354;0.1233812582848985;1.2785872604732518;1.634785382644495;1.04760387289944;1.9445322391592073;0.5253574396905946;0.0
2.235134913198388;-0.39114074000549726;4.995828080198366;3.4984890184415534;0.1511122772474458;-0.2601846684476742;0.02283492033490893;0.14337519454365988;0.043251768112898104;0.10963052771735862;0.03709085347200978;0.1488732537983072;1.1425695390123551;1.3054651514789057;0.9026189142557155;6.08736834534008;0.5118112985683917;0.0
2.243074442135305;-0.06501934361034943;5.031382952960609;3.383625617573922;0.15557432680899713;-0.5371159738732204;0.02420337116207264;0.15785590072016698;0.0475219554893682;-0.3535747804390332;0.05926888956867533;0.1488732537983072;1.1625853447301269;1.3516046837812679;0.7865461058704715;6.753426058059558;0.5504766240325819;0.0
2.2875981215003973;0.4096026245766527;5.233105165492146;3.270075399208231;0.18253817342455864;0.6799549441840188;0.03332018475717424;0.15994751527894846;0.052135488854189144;-0.7349965014707499;0.06742632813296615;0.1580503721831344;1.159625090398589;1.3447303502819359;0.5683940956793814;7.471004622370859;0.5625391469833169;0.0
2.267304404330651;1.603485983383593;5.140669261897167;3.277898687877679;0.17322308194760452;0.9781284156115406;0.03000623611942651;0.17580683906894534;0.05572605557980164;-0.6524990203449136;0.07481900683185465;0.1672274905679616;1.1467966811834265;1.3151426279733214;0.4549000497940048;8.693781223627369;0.5710080844326398;0.0
2.204358622539583;2.8879237775296436;4.859196936764608;2.1763330747236758;0.13757436212305715;0.06570956942712453;0.018926705113566065;0.21211377500368034;0.055486092243450004;-0.4692295666903653;0.07481900683185465;0.1672274905679616;1.214347289793981;1.4746393402299873;0.6080366186935382;7.565009943198339;0.6398811776653365;30.0
2.189621992931383;5.12733844979208;4.794444471928803;1.6305608302728767;0.15745008772542105;-0.04619919129291803;0.02479053012474278;0.22514335354984505;0.055289482588275006;-0.46393824052304355;0.07481900683185465;0.1672274905679616;1.2494945882042379;1.5612367259516782;0.6080366186935382;5.802679207911327;0.6391746194051294;0.0
1.2339697371215195;0.9731941770232614;1.522681312131752;1.028945718536181;0.18573009277081562;-0.27440808082435586;0.03449566736065578;0.2648048655229587;0.0635820562142458;-1.15135965289242;0.09839910268175775;0.18150300805547048;0.747486698946908;0.5587363651025455;0.6080366186935382;0.2516042736570676;0.4231035579424785;0.0
1.0323630219626438;-0.4194092414921411;1.0657734091158424;1.0237688926108701;0.1952514981158132;-0.8032631127897977;0.038123147516469405;0.28629699460137314;0.06402592038101391;-1.2943550314635461;0.09839910268175775;0.18150300805547048;0.89841855695437;0.8071559034799727;0.8927898902641445;-0.5192644406554734;0.4661880896438538;0.0
1.0880050487358002;-0.7623755368484928;1.1837549860745908;1.71576057192545;0.19732592342283464;-0.9074874448886823;0.0389375200546744;0.28629699460137314;0.06501263099074933;-1.4664101414420623;0.11407667992250421;0.18150300805547048;0.9491415307853999;0.9008696454616522;1.6121742996521446;-1.1428774009946665;0.46227648434184637;0.0
1.066271000182415;-0.3906553875651904;1.1369338458300076;1.2345692961634365;0.19502356510249327;-0.7909501752526195;0.038034190945286435;0.28629699460137314;0.06503211953717054;-1.4297091577183059;0.11407667992250421;0.18150300805547048;0.9283008566130418;0.8617424803885072;1.2920893092101613;-0.9306911908743719;0.44144844434678027;30.0
0.8877060866820913;0.24946280152466202;0.7880220963324326;1.0472495759133706;0.19239409414162714;-0.6327718313781784;0.03701548746057729;0.2767149870316259;0.059471395607649566;-0.6466879406468896;0.09036912409503399;0.18150300805547048;0.848754093412902;0.7203835110851572;1.127433598772253;-0.3796574577526441;0.3760275106872398;30.0
0.9312695247027956;0.05516203446027437;0.8672629276401708;1.1785330055297623;0.199664449287107;-0.8658731884327608;0.03986589230912372;0.350489425080033;0.05290576919587936;0.804040744711113;0.05990618945651048;0.18150300805547048;0.8926951010909069;0.7969045435117045;1.241283684195381;-0.5963850203462395;0.3785025542293884;30.0
0.9563595619046644;0.30447697256435363;0.9146236116464816;1.1788690952019858;0.24025375634999555;0.2362129817275963;0.05772186744028303;0.27839573588741007;0.051547016959158976;0.5959356331281123;0.0555725502192311;0.18150300805547048;0.9241468241986922;0.8540473526765285;1.254835315056734;-0.3882410877043671;0.3719937885267873;30.0
0.8723905098472314;2.3872082298858524;0.7610652016715125;1.143360749579156;0.32803800423017876;1.05059570536455;0.10760893221931879;0.2588913611696926;0.04921335806815841;0.9010126055389277;0.045630671969001675;0.18150300805547048;0.8440911450865468;0.7124898612135179;1.191263084187547;1.397532151292464;0.32316294364256637;0.0
0.9769032005935646;0.5500604654865033;0.9543398633299502;1.143360749579156;0.32909930570222423;-0.15740209339373906;0.10830635301368603;0.3324049717241363;0.04447823624053439;1.9686051390918857;0.03798307331497908;0.18150300805547048;0.8589868364757576;0.7378583852386299;1.191263084187547;1.03554147433811;0.3306133368559742;0.0
1.0390392248471187;-0.49410877680943677;1.0796025107709013;1.363329648676841;0.31796770087921894;-0.8040927886044914;0.10110345880241646;0.4867480180014412;0.04216564551183339;0.26749840176369793;0.040914652799021116;0.130519017028653;0.8780072326735274;0.7708967006270258;1.2527685587078918;0.5687510964783383;0.34062186256328286;60.0
0.8458723150094399;-0.46800568207942145;0.7154999732994292;1.1775088749487024;0.29989059434631143;-1.507957124757954;0.08993436857738392;0.4847332478572963;0.04145235815076413;0.3588446026411595;0.038875293157948417;0.130519017028653;0.6412233572958415;0.41116739394175034;0.9648985157857197;-1.0881405872016432;0.2359902175817672;60.0
0.8438764725582469;-0.7677785763578154;0.7121275009373497;1.1775088749487024;0.33283108364184644;-1.7090019674192725;0.11077653023820579;0.548248255587561;0.03921995244784153;0.5081407941073482;0.03734577342714389;0.130519017028653;0.6373807991381274;0.4062542831099579;0.9648985157857197;-1.1636082853563614;0.2373867946140155;0.0
1.0035404722343761;-0.7506737042320556;1.0070934794123945;1.3884210105504946;0.37287925595039784;-1.6763204299262529;0.1390389395181223;0.6137667754474687;0.036808030637455996;1.2889153656191759;0.030399204649739976;0.1458142143366981;0.6654386864335612;0.4428086454024234;1.1720455682483344;-1.4945461138220792;0.2589501091326279;0.0
1.2401177329081958;0.2976523023642364;1.537891991473363;1.6710240783732428;0.39837486595890087;-1.4404726048640435;0.15870253382777222;0.7093173405034843;0.03638103399829574;1.6638027941497475;0.026447945345161622;0.1458142143366981;0.6076511113083176;0.36923987307423334;0.9173845699070675;-1.417182397682061;0.24831540752992476;30.0
1.202557556661848;0.0247530731587656;1.446144677084514;1.5554474717948783;0.4636056883053429;-0.05576051459422047;0.21493023422907073;0.4977812103378685;0.0347639755973437;2.662465530936883;0.026447945345161622;0.1458142143366981;0.5736378410915525;0.32906037273217714;0.7571384873988087;-0.8459169279885473;0.23951095564651687;30.0
1.792072641840986;1.694593594490017;3.211524353634931;1.696146374073015;0.5108407736767832;0.14052819876022038;0.26095829605069437;0.4603244217353957;0.03456913603245127;2.730098952445251;0.024918425614357097;0.1458142143366981;0.7163352172335535;0.5131361434490423;0.9367335013579519;-0.31638348738967337;0.2800173381967582;30.0
1.7451840897383892;1.5521123039531952;3.04566750707601;1.689382783049181;0.5436694313829826;-0.26730023971126304;0.2955764506202957;0.5600549283476317;0.03339568609693636;3.2243170610287595;0.027085245232996855;0.1458142143366981;0.7184004763330296;0.5160992443955238;0.9367335013579519;-0.39224072406937077;0.2799574317534066;30.0
1.963418773320604;0.1326926860163591;3.8550132794277854;1.8783520651568788;0.5569563641094207;-1.1825807979376193;0.3102003915219856;0.917964165320095;0.035660718029976085;1.9142521164185407;0.02600183542367695;0.1458142143366981;0.8384825568735398;0.7030529981811889;0.9673657800935129;-0.43835095079959197;0.31727278860893354;30.0
1.8588555510081906;-0.6385244791342252;3.4553439595139634;2.3498363022562527;0.5772589992058755;-1.7506722842532854;0.33322795216416895;1.0255291904698292;0.036359105715931046;1.5074829342438647;0.031100234526358777;0.1458142143366981;0.8316998491625466;0.6917246390970028;0.9451433520679386;-0.3221070882759041;0.31559085745709103;30.0
1.96543768231039;-1.3228146805098786;3.8629452830456374;2.930104811560448;0.5835458843811296;-1.9292171653849781;0.3405257991781547;1.057193652045475;0.03671804117861391;1.2910383270793488;0.03211991434689512;0.1458142143366981;0.966035608169416;0.9332247962512535;1.4816754918239092;-1.121912734251666;0.34968593660011377;0.0
1.949257374918219;-1.462691921491545;3.799604313673066;2.930104811560448;0.5559740404842108;-1.6302350539559616;0.3091071336923389;0.917061839503799;0.04081153693003716;0.4633179578261958;0.03696339349444272;0.1458142143366981;0.904360050266721;0.817867100518426;1.2261035355231327;-1.0370006544755193;0.3151668055420294;60.0
1.877806559511543;-1.2208339996360877;3.5261574749445783;2.562373789394638;0.48818800691208125;-1.2111938133956632;0.2383275300927903;0.830547103100655;0.04330249771109828;0.564975648209345;0.03696339349444272;0.1621290914652798;0.8431392640386656;0.7108838185636627;1.049893223620518;-0.887837046603788;0.28776344766013556;60.0
1.6917868695825655;-0.7384028696688385;2.8621428120919763;2.349190411622864;0.4317665303879212;-1.570567033559033;0.18642233676322367;0.7989958723996082;0.05039736605702926;0.03919385613874624;0.06194554909758332;0.1804833282349341;0.8694551105653228;0.7559521892881577;1.113687429790331;-0.9849781068772958;0.2994720991912113;60.0
1.4327406825216886;-1.1436816921472763;2.052745863352714;2.0104188363103543;0.4146659688808959;-1.7155946978499512;0.17194786574793214;0.7989958723996082;0.05033342514424052;0.05541709473507442;0.06194554909758332;0.1804833282349341;0.8636842870365949;0.7459505476739113;1.113687429790331;-0.9857236393145967;0.29512837729966523;60.0
1.5168149966142235;-1.1155826357943661;2.300727733953807;2.0474378967290487;0.4729863571695447;-0.7911080372367514;0.22371609406851609;0.7989958723996082;0.04963372920368935;-0.06417806191498698;0.06194554909758332;0.1764046089527887;0.8767752233031894;0.7687347921983576;1.113687429790331;-0.9509780349713802;0.3005070544515665;60.0
2.023953060268918;0.14419988904831169;4.0963859901719175;2.9611954524915185;0.5892516199649274;-0.12028280739004912;0.34721747163129124;0.8161211049000656;0.0504984122298257;-0.25364757444161923;0.06500458855919239;0.1764046089527887;0.844472638788972;0.7131340376632096;1.1437183372132314;-0.8866914987781923;0.2780522245322483;60.0
2.2456880718910694;-0.5006435177238542;5.0431149162338285;2.9974323766740687;0.8093535988442139;0.43963228260857234;0.6550532479620806;0.9799856703682213;0.05419607184583566;-0.800247505008169;0.07418170694401963;0.1764046089527887;0.8293061689189015;0.6877487218069456;0.9047885830224942;-0.6999146351380672;0.2706105851072503;60.0
2.2567836476581706;-1.0940961421994972;5.093072432337318;3.0726825989558986;1.0056961021299968;-0.3242720339838286;1.011424649839469;1.3681175094991396;0.05725491392648723;-1.1079440628888493;0.08004486591210362;0.1764046089527887;0.8249366879065709;0.6805205390542632;0.9934921262528831;-0.45697851536972206;0.284146490115257;60.0
2.3149149208060824;-1.3784827612662447;5.358831090570631;3.5062680009781406;1.2127256957555306;-0.5180519467154423;1.4707036131457356;1.7104603012800004;0.06059105165471025;-1.3514298837219028;0.09890894259202605;0.1764046089527887;0.8899705796651433;0.7920476326695112;1.3190944307591836;-0.8171993640582741;0.3158981780613306;60.0
2.256698731430058;-1.4634232059853218;5.092689164438033;3.7551840909280627;1.4313157186417838;-0.607691327055312;2.048664686431046;2.096939061113451;0.06118521476578534;-1.0539403928634026;0.08858468440909546;0.1764046089527887;0.7835846891435371;0.6140049650601737;1.0332935214486163;0.059777925147766885;0.2884234086029116;60.0
2.250906478604883;-1.2014491470417463;5.066579975425435;3.6322641692882263;1.6119836229051283;-0.9182815016486535;2.598491200514343;2.2484631315595727;0.06364116839563315;-1.1517642954487535;0.09304578362394202;0.1764046089527887;0.7777026652007675;0.604821435460377;1.0097154909484711;0.18962231427321904;0.28708885595141;60.0
2.2282846683847137;-1.2903598898359563;4.965252563358375;3.6322641692882263;1.7513192410890788;-1.26111225769311;3.067119084208827;2.80097186773697;0.07134550831897055;-0.8169464687932924;0.09814418272662376;0.22636892015907;0.7489471254899931;0.5609217967797234;1.0097154909484711;-0.2449578684796178;0.2778031452098076;60.0
2.180956053144737;-1.0881417874373907;4.756569305748669;3.4003881692428957;1.8744576748304609;-1.3807471411492578;3.513591574730818;3.185497668273278;0.06775872498423433;0.3710857563305928;0.055827470174365096;0.22636892015907;0.7693832295436129;0.5919505539029598;1.2151126919775166;-0.6280885669135039;0.28202652469982886;60.0
2.582210791916843;-0.9077217780746746;6.667812573891809;3.687175199194755;1.958853465143833;-1.4811668411201468;3.8371068979060015;3.3420552617496293;0.05998703213723004;2.9181931101548266;0.029825634750688175;0.22636892015907;1.136830070614174;1.2923826094526278;1.3582153938089219;1.6509097626357725;0.3794486703539573;60.0
2.5681094863172103;-0.7730905861478296;6.595186333712445;3.687175199194755;1.9747678278734924;-1.5031280817642867;3.899707974004191;3.181539406372709;0.037361924883584044;2.409682367089014;0.0235800958499031;0.15091261343938;1.1071648306297581;1.225813962183421;0.9421745526042078;1.394325097850888;0.3523290374463778;60.0
3.0968781155919656;-0.35908942679754685;9.590654062832444;3.9541998764705326;1.8721991574991945;-1.4435402019668464;3.5051296853406937;3.2819708857163077;0.026551272743125614;0.28309913744763865;0.026894055266646254;0.0968695829509533;1.5702782398608908;2.465773750580617;1.2454821300936358;1.2974484101877983;0.449815054092256;60.0
3.2151547928705875;-1.1859441216558904;10.33722034211871;5.625516077405786;1.6882166743622045;-1.1580676590424939;2.8500755395945814;2.793597940394408;0.027260042046121362;-0.24044703671233694;0.039130213113082526;0.0968695829509533;1.4907073084640752;2.2222082795082074;1.361064147554083;1.0280865995046011;0.39892959526809973;60.0
3.0911217479771698;-1.4706869286780182;9.555033660817434;5.322443007270479;1.4366421987410185;-0.8487375626227334;2.063940807203428;2.0600591989784016;0.023645426451955276;-0.6917465757943476;0.034924033853370076;0.0734169470786173;1.5033513312903264;2.2600652252923967;1.5956941963209599;0.5892807081615747;0.39346049842716174;60.0
2.9262224868516147;-1.4047138163984596;8.56277804255605;4.869636025445899;1.1927030286214095;0.07732570906973012;1.4225405144826828;1.4499974562528968;0.02216213674659196;-0.5899633262859273;0.030080554705822375;0.07290710716834921;1.472624477654092;2.168622852185987;1.3809047508625487;0.6020875609893267;0.3730146677682452;60.0
2.806565659568458;-1.0433097532734532;7.876810801468935;3.710432163748782;0.9062530089983215;0.8290804909613554;0.8212945163185118;0.9926194831432005;0.020711078681376477;-0.13746609236149285;0.026511675333945176;0.07290710716834921;1.3582340728240256;1.8447997965801406;1.3654847441767624;1.07543344605681;0.3250603456662433;60.0
2.774638606084261;-0.32039904146322884;7.698619394373211;3.2134747377315054;0.6545298644174843;0.5264573257087489;0.4284093434143703;0.783417763975164;0.026218102692789548;0.7502402407359247;0.02498215560314062;0.0953400632201489;1.218168884167261;1.4839354303533099;1.3772847041883058;0.07995224388679642;0.2685654802649327;60.0
2.310235372232303;1.1518472804802413;5.337187475113326;1.8716713434296768;0.5166652119379009;-0.9267557171987051;0.2669429412268361;0.783417763975164;0.0264289498256445;0.7453538616388983;0.02498215560314062;0.0968695829509534;1.1682875088906173;1.3648957034298443;1.3475384757365334;0.24819149043674366;0.2552679560502619;60.0
1.6627285803817764;0.2661314237953213;2.7646663320183973;1.3680228257815061;0.510695461038899;-1.0250549898287236;0.2608098539257336;0.783417763975164;0.030319858660623873;0.38826438700128657;0.02574691546854287;0.1111451004384622;1.0850236489358367;1.177276318750038;0.9512671025555512;0.5714803833896036;0.23074000598593083;60.0
1.8243233011542135;-0.6801038043545443;3.328155507134207;2.145905642633024;0.6003116967304309;-0.6241219209884327;0.36037413323136885;0.8117491629257239;0.028920948674723116;1.3006971511978818;0.030080554705822375;0.1111451004384622;1.331393595198716;1.772608905336162;1.3475384757365334;0.4826187955325458;0.2944036131022247;60.0
1.843660424953874;-0.7187425560125569;3.399083762541099;2.1892643466846264;0.7206361547062595;-0.9598366419559088;0.5193164674698241;1.0683502323513094;0.029479874907343627;1.0792686920403785;0.0323748343020292;0.1111451004384622;1.5234627877098403;2.320938865536638;1.3475384757365334;0.052280290557573356;0.3470164270057399;60.0
1.8349421428164365;-0.6766397249954132;3.367012667483776;2.152798360512211;0.8099977040186859;-1.054615985404441;0.6560962805155427;1.2012181699513511;0.03226415547078501;1.075962440531889;0.03517895380850417;0.11930253900275299;1.469943681505572;2.1607344267981543;1.0612564284403603;0.510469280752057;0.3429733326109753;60.0
1.6319595171527348;-0.39065003296321255;2.663291865625387;1.8440412062399627;0.8686379153708189;-1.1396392819179098;0.7545318280197619;1.3427606184025362;0.03284761598313595;0.8890895667365777;0.04129703273172228;0.11930253900275299;1.5809755925577187;2.49948382426323;1.5741052617968005;-0.2587191989341433;0.380008955178027;60.0
1.4526546275151886;-0.6773573174685825;2.1102054668412915;2.0631560891031513;0.9137665018015219;-1.2632288748669038;0.8349692198145907;1.4532599890172087;0.032091914899358545;1.8128528024847128;0.039002753135515454;0.11930253900275299;1.4630422191058852;2.140492534886273;2.4743676326987645;-1.1954648060285002;0.39516074435838683;60.0
1.4711860932105816;-0.7800297024325888;2.1643885208562144;2.1066938111992783;0.9629941022870776;-1.307859980351032;0.9273576410396945;1.5327162817953557;0.031758088571437755;2.83757270178593;0.030590394616090474;0.11930253900275299;1.5083807148149686;2.2752123808257156;2.5347561226928277;-1.4387210227941574;0.43319867881082935;60.0
1.5644682062848014;-0.9987819255992721;2.447560768475984;2.6676352774851755;0.9931318615783179;-1.3310022820063592;0.9863108944820153;1.5811294967369802;0.03278109394412057;3.708892756206449;0.019883756500458802;0.12134189864382569;1.6459709092235333;2.709220234010145;2.5570101413473285;-1.2804359946121868;0.5177208834935165;60.0
1.5644682062848014;-0.9987819255992721;2.447560768475984;2.6676352774851755;0.9931318615783179;-1.3310022820063592;0.9863108944820153;1.5811294967369802;0.03278109394412057;3.708892756206449;0.019883756500458802;0.12134189864382569;1.6459709092235333;2.709220234010145;2.5570101413473285;-1.2804359946121868;0.5177208834935165;60.0
1.5644682062848014;-0.9987819255992721;2.447560768475984;2.6676352774851755;0.9931318615783179;-1.3310022820063592;0.9863108944820153;1.5811294967369802;0.03278109394412057;3.708892756206449;0.019883756500458802;0.12134189864382569;1.6459709092235333;2.709220234010145;2.5570101413473285;-1.2804359946121868;0.5177208834935165;60.0
1.5644682062848014;-0.9987819255992721;2.447560768475984;2.6676352774851755;0.9931318615783179;-1.3310022820063592;0.9863108944820153;1.5811294967369802;0.03278109394412057;3.708892756206449;0.019883756500458802;0.12134189864382569;1.6459709092235333;2.709220234010145;2.5570101413473285;-1.2804359946121868;0.5177208834935165;60.0
1.5644682062848014;-0.9987819255992721;2.447560768475984;2.6676352774851755;0.9931318615783179;-1.3310022820063592;0.9863108944820153;1.5811294967369802;0.03278109394412057;3.708892756206449;0.019883756500458802;0.12134189864382569;1.6459709092235333;2.709220234010145;2.5570101413473285;-1.2804359946121868;0.5177208834935165;60.0
1.5644682062848014;-0.9987819255992721;2.447560768475984;2.6676352774851755;0.9931318615783179;-1.3310022820063592;0.9863108944820153;1.5811294967369802;0.03278109394412057;3.708892756206449;0.019883756500458802;0.12134189864382569;1.6459709092235333;2.709220234010145;2.5570101413473285;-1.2804359946121868;0.5177208834935165;60.0
