acc_X_std;acc_X_kurt;acc_X_var;acc_X_iqr;acc_Y_std;acc_Y_kurt;acc_Y_var;acc_Y_iqr;acc_Z_std;acc_Z_kurt;acc_Z_iqr;acc_Z_range;acc_std;acc_var;acc_iqr;acc_kurt;acc_cv;class
0.029165041394804043;-0.39799525214393155;0.0008505996395606334;0.02880595493015195;0.019456477852656855;2.555466630479835;0.00037855453043092663;0.00892219842969344;0.04548219100772547;-1.6319539936269831;0.08106454573263985;0.11318446007953491;0.021388112284749992;0.0004574513471050735;0.031875313624362425;-1.0299385019306746;0.2925531684901604;30.0
0.029165041394804043;-0.39799525214393155;0.0008505996395606334;0.02880595493015195;0.019456477852656855;2.555466630479835;0.00037855453043092663;0.00892219842969344;0.04548219100772547;-1.6319539936269831;0.08106454573263985;0.11318446007953491;0.021388112284749992;0.0004574513471050735;0.031875313624362425;-1.0299385019306746;0.2925531684901604;30.0
0.029165041394804043;-0.39799525214393155;0.0008505996395606334;0.02880595493015195;0.019456477852656855;2.555466630479835;0.00037855453043092663;0.00892219842969344;0.04548219100772547;-1.6319539936269831;0.08106454573263985;0.11318446007953491;0.021388112284749992;0.0004574513471050735;0.031875313624362425;-1.0299385019306746;0.2925531684901604;30.0
0.029165041394804043;-0.39799525214393155;0.0008505996395606334;0.02880595493015195;0.019456477852656855;2.555466630479835;0.00037855453043092663;0.00892219842969344;0.04548219100772547;-1.6319539936269831;0.08106454573263985;0.11318446007953491;0.021388112284749992;0.0004574513471050735;0.031875313624362425;-1.0299385019306746;0.2925531684901604;30.0
0.029165041394804043;-0.39799525214393155;0.0008505996395606334;0.02880595493015195;0.019456477852656855;2.555466630479835;0.00037855453043092663;0.00892219842969344;0.04548219100772547;-1.6319539936269831;0.08106454573263985;0.11318446007953491;0.021388112284749992;0.0004574513471050735;0.031875313624362425;-1.0299385019306746;0.2925531684901604;30.0
0.029165041394804043;-0.39799525214393155;0.0008505996395606334;0.02880595493015195;0.019456477852656855;2.555466630479835;0.00037855453043092663;0.00892219842969344;0.04548219100772547;-1.6319539936269831;0.08106454573263985;0.11318446007953491;0.021388112284749992;0.0004574513471050735;0.031875313624362425;-1.0299385019306746;0.2925531684901604;0.0
0.029165041394804043;-0.39799525214393155;0.0008505996395606334;0.02880595493015195;0.019456477852656855;2.555466630479835;0.00037855453043092663;0.00892219842969344;0.04548219100772547;-1.6319539936269831;0.08106454573263985;0.11318446007953491;0.021388112284749992;0.0004574513471050735;0.031875313624362425;-1.0299385019306746;0.2925531684901604;0.0
0.025019018492547562;0.6762017250057359;0.0006259512863304368;0.0214132762312634;0.019521347441592653;2.5095660046951163;0.00038108300593537605;0.009177118384827543;0.040128619444803046;-0.8854168456344982;0.06194554909758335;0.10400734169470781;0.01981003052539455;0.0003924373094170639;0.024035889274445485;-0.022980932880477666;0.2641783082890748;0.0
0.02478656416831612;0.9379393080825449;0.0006143737632700525;0.016824717038849822;0.018479765434530247;2.9941636816235713;0.0003415017305152589;0.004588559192413744;0.03993677754428367;-0.8956612674422995;0.06194554909758335;0.10400734169470781;0.019843790082533553;0.00039377600483965703;0.024660653011370978;-0.06627424428156638;0.26487371376305374;0.0
0.02026752102827103;1.0593464192955884;0.00041077240863140844;0.016824717038849822;0.018561635858578087;3.0265061220342067;0.00034453432574645186;0.006118078923218195;0.03922974837048512;-0.19057475425158196;0.03479657387580297;0.10400734169470781;0.018803089573890243;0.00035355617752374;0.023917077281788685;-0.12729484660756674;0.25975287900465505;0.0
0.020121642808803922;1.5019141202129251;0.00040488050932509055;0.01376567757724078;0.01614306015734353;4.72915388389151;0.0002605983912436122;0.005353319057815831;0.03207350107640434;2.259558444465957;0.02077597634342815;0.1009483022330987;0.018559343056010164;0.00034444921467067277;0.022669341063931564;0.15767659340870951;0.2549210088478108;0.0
0.0149405548125194;5.570777084677003;0.00022322017810589664;0.013510757622106677;0.008729760839584632;4.8207674442640345;7.620872431634537e-05;0.004333639237279585;0.027206243703322978;7.964294165475457;0.01988375650045887;0.1009483022330987;0.01712857758994837;0.0002933881702548815;0.022669341063931564;1.4775365787299057;0.23096003982418425;0.0
0.007674171025517028;-2.026443730731518;5.8892900928885075e-05;0.013510757622106677;0.008750039057010666;5.0170126505104715;7.65631834992121e-05;0.004333639237279585;0.010517268012603134;-2.1136576885489244;0.019628836545324796;0.024982155603140606;0.012097301745452899;0.00014634470952053775;0.022669341063931564;-1.9840389451442813;0.1576140404103124;0.0
0.00702776325673337;-2.2058155891971456;4.938945639269162e-05;0.014275517487508903;0.008639515440173785;5.257515955083874;7.464122704100124e-05;0.004333639237279585;0.009767026783921873;-1.663375285470356;0.019373916590190693;0.022942795962067906;0.011122423443802347;0.00012370830326324404;0.022978126622239595;-1.811464998001698;0.14985362623756532;0.0
0.006810033284670826;-1.6412402560570163;4.637655333832452e-05;0.013510757622106628;0.008718926506102478;5.425442310268315;7.601967941881636e-05;0.004333639237279752;0.009032642305836561;-0.4993670429455165;0.009559498317528295;0.022942795962067906;0.010506892514177916;0.00011039479030448794;0.014607395504218981;-0.9024410172343171;0.14572245254899854;0.0
0.0061809627045925465;-0.42213556824659815;3.820429995556401e-05;0.005417049046599329;0.008880053653089625;5.38856672104785;7.88553528817504e-05;0.004333639237279752;0.007502015820331531;1.6790189579926176;0.004716019169980629;0.020903436320995193;0.008979181732470639;8.062570458473444e-05;0.006407761713117771;0.9036752729711819;0.127627629159612;0.0
0.005281054604351525;2.2415647081078114;2.788953773414244e-05;0.001848169674722129;0.008943691758268719;5.778807916002042;7.99896222669238e-05;0.002804119506475078;0.005798654320639694;7.819594420113723;0.002294279596206851;0.020903436320995193;0.007155554019262035;5.120195332257706e-05;0.004296899757180964;5.260905306530374;0.1046197782467504;0.0
0.003849910283689215;9.703771787800155;1.4821809192455974e-05;0.0011471397981033804;0.008968317959786252;6.136061957259606;8.043072702782464e-05;0.0015295197308047292;0.0022112366462859493;2.6579079098006724;0.001529519730804528;0.0076475986540225985;0.0036617401992005655;1.3408341286441398e-05;0.0020579372259241224;5.5362949419570855;0.05512386833609182;0.0
0.0010730796987624973;1.1291266038683565;1.1515000398962118e-06;0.0010196798205363289;0.00425638375617786;4.502752060490968;1.8116802679854743e-05;0.0012745997756706817;0.002111470774931564;3.107411754366554;0.0011471397981033804;0.007137758743754399;0.0018099765098808453;3.276014966320445e-06;0.0013116778706651483;1.6918998115406692;0.027670318039789234;0.0
0.0009850543198715795;1.4381147586003047;9.703320130976602e-07;0.0010196798205363011;0.003088509422760468;8.882640207673377;9.538890454480197e-06;0.0010196798205366342;0.0013104036855949466;6.674715930665498;0.0003823799327011268;0.0050983991026817;0.0012846543234722016;1.65033673081582e-06;0.0008716253608202496;5.228942317168287;0.019748282521685333;0.0
0.0007155393752087828;-0.12184618374542361;5.119965974741753e-07;0.0010196798205363011;0.0010501247079524056;1.0991020407068257;1.102761902252125e-06;0.0010196798205366342;0.001245689983054784;7.762044890332333;0.0002549199551340753;0.004588559192413598;0.0012685777417255236;1.6092894868014293e-06;0.0006729338698555354;6.1937078748575205;0.019517183178570045;0.0
0.0008419729008308245;-0.09288889063565635;7.089183657334735e-07;0.0010196798205363011;0.0010501247079524056;1.0991020407058039;1.102761902252125e-06;0.0010196798205366342;0.0012574902779433005;8.951268360321718;0.00012745997756705152;0.004588559192413598;0.0012544823051226237;1.5737258538657714e-06;0.0006729338698555354;6.908735991421167;0.019308121035131916;0.0
0.0008419729008308245;-0.09288889063565635;7.089183657334735e-07;0.0010196798205363011;0.0011874173069046316;0.19033113816156577;1.4099598607366482e-06;0.0005098399102682061;0.0018632581072978397;2.532419054059306;0.0003823799327011268;0.005608239012949996;0.001699001590540065;2.8866064046576706e-06;0.000809364383710473;1.7511794507270855;0.026020416236415694;0.0
0.0008372822075041981;-0.011665183206993232;7.010414950031031e-07;0.0010196798205363011;0.0011997908675996625;0.08334590279760681;1.4394981259755512e-06;0.0008922198429694439;0.0018616721304685595;1.8387272730043163;0.0012745997756704042;0.005608239012949996;0.0016906313675125937;2.8582344208175028e-06;0.001223022053107481;1.1199260616891302;0.025834405134498768;0.0
0.0009833035554461913;0.0480734687611693;9.668858821531207e-07;0.0011471397981033526;0.0010070487111036189;0.19499519263082954;1.0141471065354599e-06;0.0003823799327011268;0.0020374275140248974;1.5694810408552402;0.0008922198429693259;0.0071377587437544965;0.0016933736230981815;2.867514227404662e-06;0.001223022053107481;1.1258579012219292;0.02587962085965692;0.0
0.0009681671430668543;0.39336205330497287;9.373476169142348e-07;0.001147139798103422;0.0010273756264725785;0.12276676308017677;1.0555006778699233e-06;0.0007647598654023646;0.0020316201078731627;1.3010780258771604;0.0016569797083716212;0.0071377587437544965;0.001672138379827337;2.7960467612915916e-06;0.001676362621215885;0.7301385388147827;0.02549788328073141;0.0
0.0007938196636703752;-0.5775000213983806;6.301496584297477e-07;0.0007647598654023022;0.001083353007484422;-0.06837529850753551;1.1736537388255418e-06;0.0008922198429694439;0.0020638357123202097;1.1777042080759348;0.0016569797083716212;0.0071377587437544965;0.001526124291703564;2.3290553537277055e-06;0.0013718024756958491;1.1556705216108487;0.023218775075115283;0.0
0.0007875935309642802;-0.43660769800921834;6.203035700167826e-07;0.0007647598654023022;0.0009308360652343667;1.8316363634574853;8.664557803409982e-07;0.0010196798205366342;0.0017987286211377132;5.061922785350765;0.0008922198429693259;0.0071377587437544965;0.0012815912563866442;1.6424761484466973e-06;0.0011437767815681427;5.555956982734926;0.019602621686858637;0.0
0.0007634713053203205;-0.0988312351506977;5.82888434047514e-07;0.0006372998878352507;0.0008785973660195949;4.737650978533384;7.7193333157657e-07;0.0010196798205366342;0.0017860942432582714;5.050403292595149;0.0008922198429693259;0.0071377587437544965;0.0012572753135985414;1.5807412141843105e-06;0.0008656317265612196;5.80514080440303;0.0192172705920124;0.0
0.020535433481957525;11.967270690311327;0.00042170402829190215;0.0010196798205363983;0.007809144203722743;11.609900343958717;6.098273319453651e-05;0.0010196798205366342;0.003260947022875625;5.249167407375903;0.0012745997756704042;0.014275517487508896;0.017964512063319612;0.00032272369367315583;0.0011461530202424852;11.8565680560506;0.2541266485093795;0.0
0.022205854736802862;9.448247657510349;0.0004930999845919901;0.0010196798205363983;0.008951614711328281;4.081378643133546;8.01314059400689e-05;0.0015295197308048403;0.006587985862488407;5.581556832814428;0.0015295197308045072;0.025491995513408798;0.019901018518939023;0.00039605053809115394;0.0011461530202424852;8.651718539412387;0.28957174683032866;0.0
0.02216466897074134;9.30298435602311;0.0004912725505825439;0.001147139798103422;0.013955769619736722;3.854515138919439;0.00019476350567916646;0.0015295197308048403;0.009498094570751823;3.5809281440714864;0.002421739573773826;0.04180687264199041;0.020628122248456858;0.00042551942749728076;0.0018447079013108048;5.902077275699484;0.2919634705741006;0.0
0.022186159017299926;9.312427918145268;0.0004922256519409188;0.001147139798103422;0.015720084777886736;1.3652296341791965;0.0002471210654239463;0.0015295197308048403;0.017135521883387746;4.504103657745817;0.0036963393494442304;0.06933822779647189;0.022901359700193656;0.000524472276117654;0.008754469490545258;2.025179557227158;0.30915092037791997;0.0
0.027825757171788396;2.2361336092905795;0.0007742727621833334;0.002166819618639723;0.016448788183861206;0.8558209238671761;0.0002705626327175321;0.0063729988783525204;0.019363088614094425;2.926387522726443;0.006245538900785122;0.0764759865402264;0.02531326165890737;0.0006407612158123099;0.02772390454381647;-0.07866251496250622;0.32422504919926637;0.0
0.028433956612403898;2.1117464289390213;0.0008084898886360673;0.0024217395737737984;0.01711896537538041;0.49315462954456973;0.0002930589755234734;0.01656979708371581;0.0244814470116772;1.8546150051142616;0.013128377689405495;0.0999286224125624;0.02738442130044307;0.00074990652996016;0.027987274268868975;-0.37278928155141733;0.36138783786099793;30.0
0.03151833334243084;-0.273609575188082;0.0009934053366845877;0.017716936881819106;0.019565027923981695;-0.7078743789434946;0.00038279031766618355;0.02243295605179982;0.02445476756098899;1.9266778083442129;0.012236157846436176;0.0999286224125624;0.02929194672673659;0.0008580181430419745;0.04321681422564401;-1.226877500290718;0.36717465130988247;0.0
0.03416895749838446;-1.454247959175378;0.0011675176565264036;0.059013969613541384;0.020296175486247604;-1.2257143756988853;0.00041193473936855816;0.036963393494442776;0.029094702225029852;0.3251422693073007;0.018099316814520226;0.1014581421433669;0.034395740933488635;0.0011830669943636656;0.048700501400879004;-1.1398319915081352;0.39759797181108675;0.0
0.03660586862838552;-1.987415722395497;0.0013399896180386192;0.06271030896298566;0.020419602907366607;-1.3273903240223632;0.0004169601828945349;0.036963393494442776;0.033465642593347694;-0.625413251144913;0.04027735291118586;0.1085959008871213;0.03895410724601733;0.00151742247133422;0.052645040424782366;-1.236299878987816;0.4146188980406882;0.0
0.0485118160732548;0.06629142456334938;0.0023533962987253025;0.06513204853675945;0.0205943714460814;-1.4028992701802994;0.00042412813525917296;0.036963393494442776;0.033448691525985196;-0.6572508811654403;0.04027735291118586;0.1085959008871213;0.047360277823850494;0.0022429959155523048;0.06723927458386746;-0.4556574360464765;0.4519958654563844;30.0
0.04807797153000244;-0.21724432772842434;0.0023114913464397256;0.0704853675945753;0.0208785041100125;-1.53804333333281;0.00043591193387180886;0.036963393494442776;0.033425605426639034;-0.6691943161867238;0.04027735291118586;0.1085959008871213;0.04613749746645736;0.002128668672467359;0.05324644416884752;-0.27871937992449414;0.41772486162992845;30.0
0.04695210124487602;0.0005405190133987819;0.0022044998113090884;0.06742632813296626;0.021088718052309992;-1.6222892298280625;0.0004447340290898254;0.036963393494442776;0.03377303869926694;-0.7672065746350799;0.044101152238197196;0.1085959008871213;0.04416890394084141;0.0019508920753352754;0.04110301941991193;0.2667519162083206;0.39057125976255913;30.0
0.04700835235965166;0.31861498849658576;0.0022097851915691678;0.062073009075150405;0.01919065193735843;-1.6996584553816116;0.0003682811217808389;0.030590394616090533;0.0341252446514247;-0.6425726252993715;0.050983991026817534;0.1085959008871213;0.04404243556749247;0.0019397361307167253;0.04110301941991193;0.3047790285719777;0.3972547252626962;30.0
0.04972798682797824;0.30745669758311023;0.0024728726739635777;0.062073009075150405;0.018342806874361937;-1.6734408785050172;0.0003364585640301396;0.029060874885286025;0.03245171776714577;0.3354438882789092;0.03390435403283366;0.1085959008871213;0.04068956810577785;0.001655640952634734;0.04110301941991193;0.6049148731889905;0.35968132937126895;30.0
0.04950000304268628;0.3589693702992305;0.002450250301225951;0.059013969613541356;0.016572292615633578;-1.5310066345714097;0.00027464088253818325;0.02804119506474967;0.03244407100199466;0.22926024977690848;0.03390435403283366;0.1085959008871213;0.041257187799234096;0.0017021555451012707;0.04331457123580046;0.4334135996192344;0.36709101394566723;30.0
0.052331097542069105;-0.0332118885760508;0.002738543769957551;0.06181808912001633;0.015956750206153454;-1.2942199703436137;0.00025461787714157834;0.023452635872336064;0.03092307153123125;0.3567710660500495;0.02957071479555423;0.1085959008871213;0.044935087524565896;0.0020191620908403974;0.059161817084335044;-0.21840249183269092;0.4168949636845931;30.0
0.05313212971960361;0.11759858495720689;0.002823023208540786;0.07660344651779344;0.014772499259342067;-1.0240513222372138;0.0002182267343672619;0.022942795962067858;0.02874145201805668;1.5234365055870291;0.028296115019883807;0.1085959008871213;0.047417593358366504;0.002248428159899403;0.0711393750671015;-0.5155663953811112;0.4609227255268844;0.0
0.0537406238639889;0.031459318363935534;0.0028880546532907333;0.07915264606913427;0.0130603088190331;-0.7904314442523931;0.00017057166644851376;0.022178036096665715;0.021167986875655295;-0.528310700751315;0.028296115019883807;0.0647496686040582;0.04650672183320861;0.002162875175671442;0.0711393750671015;-0.49088830430247615;0.44910583266930576;0.0
0.05301716671571348;0.5681991274931862;0.0028108199665617573;0.07915264606913427;0.011537299045048036;-1.616637215946148;0.0001331092692548663;0.01950137656775755;0.019972493272685684;-0.3377126880071387;0.023452635872336106;0.060670949321912804;0.04686144446619494;0.002195994977458272;0.0711393750671015;-0.3549378790552478;0.4655042862153074;0.0
0.05343862481615665;1.3380066385463503;0.002855686622241954;0.05289589069032322;0.010776211577367318;-1.639218897697463;0.00011612673596018542;0.019246456612623503;0.018459667804403192;0.18774283248358126;0.023452635872336106;0.060670949321912804;0.04479301461666389;0.0020064141584486654;0.044244988850548936;0.8421945632150382;0.46849542175656406;0.0
0.052556617211925435;3.0775514865218714;0.0027621980127608566;0.042061792597124496;0.010489520390126428;-1.4152433813011625;0.00011003003801487809;0.017334556949117896;0.01380424777773667;-0.720277069160691;0.0168247170388498;0.040787192821454;0.0412821498468713;0.0017042158959795363;0.03549003568192354;3.603687930173219;0.4687868770117139;0.0
0.03378108416055619;1.5475611651078167;0.0011411616470625803;0.0428265524625268;0.009877693481751215;-0.8320205119578096;9.756882851943044e-05;0.01402059753237489;0.013977482774999397;-0.9844176485982985;0.01911899663505663;0.040787192821454;0.023988378059315037;0.0005754422819166271;0.025622071255767896;1.1518636783824567;0.3091054951358323;0.0
0.02317083315252446;-1.768599318918202;0.0005368875089821266;0.041551952686856325;0.011232180076489122;-0.9129098369107731;0.00012616186927067916;0.016569797083715754;0.01394814791179984;-0.9678724934571297;0.01911899663505663;0.040787192821454;0.016813147733447466;0.00028268193670672966;0.019150876520245448;-0.8513014019671005;0.2294939845549855;0.0
0.02113707898047117;-1.5746512002641684;0.0004467761078266762;0.03747323340471095;0.011232180076489122;-0.9129098369107724;0.00012616186927067916;0.016569797083715754;0.013868861033442587;-0.7179466177059264;0.017079636993983925;0.040787192821454;0.01574305178633026;0.0002478436795470763;0.02429058058525959;-0.4073763769202123;0.22539200458762945;0.0
0.019382859086208185;-1.0181776094849182;0.00037569522635580324;0.023962475782604326;0.010022562706550971;0.03049975070707597;0.00010045176320674634;0.013255837666972747;0.01205587071583033;-0.12712519576631204;0.015550117263179432;0.040787192821454;0.012427018933023077;0.000154430799561714;0.024019422463641714;-1.4576829265437488;0.18415736584274364;0.0
0.019280995591271145;-1.389306428055124;0.0003717567909906173;0.03339451412256552;0.009723379564686739;0.20713651509392497;9.454411015896769e-05;0.0130009177118387;0.012534749317745484;0.017491701180411687;0.018609156724788446;0.040787192821454;0.012446667634268684;0.0001549195351979516;0.024019422463641714;-1.4582245597790522;0.18399914602428774;0.0
0.018258499388545516;-1.1598195177069752;0.000333372799921517;0.027786275109615594;0.009588782134241308;0.5202955574565686;9.194474281794528e-05;0.012236157846436502;0.012798418919463296;-0.4502676784848139;0.019373916590190755;0.040787192821454;0.01238060332356355;0.0001532793386554328;0.02342632351101214;-1.441383919028809;0.18320099110126012;0.0
0.019225150331823836;-1.2933640833316074;0.0003696064052812262;0.029315794840420118;0.01251139811559812;0.9536872809224374;0.00015653508280699218;0.00943203833996159;0.012407480064637667;-0.22138106168121238;0.016314877128581706;0.040787192821454;0.011349121850967597;0.00012880256678811017;0.017665955752094842;-1.0322794198684158;0.16546985369260853;0.0
0.01918269775188149;-1.2605726692755903;0.0003679758930400392;0.029315794840420118;0.012797111007468569;0.9046365585585072;0.0001637660501374732;0.011726317936168185;0.011478862904384506;0.3691679240195741;0.013510757622106712;0.040787192821454;0.010472162914751783;0.00010966619611310257;0.014432954172036452;-0.25765850235030774;0.15037249292983146;0.0
0.02071778076530902;-1.5128275152503312;0.0004292264398394084;0.03721831344957687;0.012813719255427491;1.0075866496112982;0.00016419140115691324;0.011726317936168185;0.01047420906477498;0.5627585340004063;0.011216478025899895;0.0397675130009177;0.008340420558084274;6.95626150857148e-05;0.012289076378195582;-0.30964311325789584;0.11683787456029876;0.0
0.018580086477193686;-1.1637674669006117;0.0003452196134999957;0.026511675333945127;0.011931333349308602;1.0294890270160926;0.0001423567154923236;0.012491077801570494;0.010529337848600882;0.5145808252564722;0.01121647802589993;0.0397675130009177;0.008019685524643227;6.431535591417211e-05;0.009085119421771218;0.11432904380529799;0.1129884115333044;0.0
0.018659828342333314;-1.3420286318888375;0.00034818919376534567;0.026511675333945127;0.01204238754563185;0.7797188889746243;0.0001450190977991891;0.013000917711838644;0.008889362584971265;0.6064215562864667;0.010961558070765855;0.030590394616090602;0.0070098242499913735;4.913763601576712e-05;0.00863970637184043;0.2439971095626441;0.09971231965593766;0.0
0.018737129057659604;-1.3588482278974907;0.0003510800053233919;0.027276435199347353;0.012060769949624796;0.5656383733342453;0.0001454621717777725;0.013000917711838644;0.009187412407564013;0.41828881846922994;0.01121647802589993;0.030590394616090602;0.0068000232031824705;4.6240315563819986e-05;0.00623903941106127;1.0267896452755976;0.0960336991103328;0.0
0.017992540402831998;-1.2833485529730893;0.0003237315101475419;0.02498215560314055;0.012347341130232944;0.3945295719797223;0.00015245683298634215;0.015550117263179342;0.010725014838013757;0.2881591380463798;0.011981237891302156;0.0397675130009177;0.00773479684237768;5.982708219285573e-05;0.008075045746536114;0.5090629042929329;0.10744192474699577;0.0
0.017125865865566806;-0.65677540488481;0.0002932952816453863;0.024217395737738276;0.011839295361083045;2.194146860521058;0.0001401689146469625;0.015040277352911191;0.015473121399693184;1.791557069512065;0.012745997756704423;0.06016110941164479;0.011889687000930488;0.0001413646569800954;0.008075045746536114;3.2983692791546764;0.16077639302764138;0.0
0.020898725517543962;-0.26269975822232067;0.0004367567282576432;0.027021515244213274;0.011419696660245922;2.5829306216373866;0.00013040947181203186;0.013765677577240676;0.018462707841939884;0.6108799862226609;0.011981237891302121;0.06525950851432649;0.014405745087451287;0.0002075254915246269;0.009610655982838778;1.44359618705249;0.1835602057502698;0.0
0.024049591763473314;-0.2952465804524479;0.0005783828639897234;0.02804119506474965;0.014003662867383328;0.1389942985441495;0.00019610257370333066;0.015550117263179342;0.02030456633439008;-0.6359874948333116;0.023962475782604215;0.06525950851432649;0.016896453558475518;0.00028549014285371996;0.018470558320770297;-0.5790429990502944;0.20700337958933263;0.0
0.02295000468687873;-0.6146725684946842;0.0005267027151277557;0.020393596410726997;0.013693101579472946;-0.4476670380504244;0.00018750103086576447;0.01656979708371567;0.026455759781527633;1.5849530276507355;0.03466911389823593;0.0907515040277353;0.025557680535930757;0.000653195034376694;0.03451534772198517;1.9367187751341601;0.28935658804724074;0.0
0.024923914886711175;-0.25103945286611834;0.0006212015332800229;0.03288467421229728;0.01368389458459808;-0.6138840607850985;0.00018724897100239266;0.01656979708371567;0.0289949355909491;-0.3033156821323271;0.034159273987967795;0.0907515040277353;0.029503367334330944;0.0008704486840644662;0.039280992467768616;-0.31119090764049384;0.31536451400508114;0.0
0.027149764015133544;-1.097494883287896;0.0007371096860774403;0.03849291322524717;0.011884450726318515;0.4018051276010706;0.00014124016906629267;0.015295197308045405;0.028273105105918187;-0.9209541867786426;0.04104211277658813;0.08769246456612631;0.029361941673955647;0.0008621236188647735;0.04100375498264422;-1.0897925753121627;0.2966436785475206;0.0
0.02559745328807592;-1.178881053405117;0.0006552296148352286;0.03849291322524723;0.011629864457989633;0.12184400862692668;0.0001352537473112105;0.015040277352911219;0.027014809827937997;-1.2772205458866082;0.04945447129601305;0.0774956663607627;0.0287173199313687;0.0008246844640405859;0.05215511872302343;-1.4408789951502112;0.2756711489058429;0.0
0.02553506377884003;-1.0688061088912206;0.0006520394821894281;0.03849291322524723;0.012376969821578578;-0.289619377162646;0.00015318938196426686;0.016824717038849996;0.02679699920500171;-1.3536762120118955;0.04588559192413588;0.0774956663607627;0.02798169247319358;0.0007829751136643782;0.049155501285446795;-1.493540372090023;0.25512932029405827;0.0
0.02506113162785142;-0.46266362323992527;0.0006280603184684948;0.03913021311308243;0.012396047523629822;-0.19771256233255297;0.00015366199420808904;0.016824717038849996;0.025918394365744914;-0.9765034903651162;0.03415927398796777;0.0774956663607627;0.02687722681518817;0.0007223853212750701;0.03855292510451801;-1.1374445019408426;0.23348050912589352;0.0
0.019667422854524587;-0.6221310177737046;0.000386807521738676;0.020266136433159977;0.012207800547954185;0.1806548994542431;0.0001490303942186305;0.016059957173447686;0.022457521660330878;-0.1688193663664025;0.029060874885285998;0.0764759865402264;0.024116592641937502;0.0005816100406571541;0.028829273883866066;-0.27505246861101995;0.2044075771343149;0.0
0.017469613253605996;0.3204259147470124;0.0003051873872305663;0.0159324971958805;0.012724349801179945;0.1049515970732058;0.0001619090778627881;0.019373916590190693;0.027810891585072283;2.3612634482606722;0.029060874885285998;0.10298766187417151;0.02882518567382566;0.0008308913291305242;0.028829273883866066;1.8461278743210832;0.24847586886889167;0.0
0.02133528798539554;2.768483111508004;0.0004551945134197634;0.017716936881819103;0.01484676229077296;0.1601367897558545;0.000220426350518718;0.020393596410727105;0.035313266482708355;1.2408522482154;0.029060874885285998;0.11420413990007142;0.027945379136291543;0.0007809442150710788;0.028829273883866066;2.6337423912801583;0.23918808782557485;0.0
0.025979977036116327;1.553185409680076;0.0006749592067971317;0.01886407667992253;0.019942892390972813;1.1817473098694373;0.0003977189569179213;0.020393596410727105;0.03651829297947573;0.22868694934528044;0.03594371367390636;0.11420413990007142;0.02798096946961251;0.0007829346524593873;0.02710609573503789;3.3656813100295344;0.23459528519137726;0.0
0.02938992681522255;1.0630800480682738;0.0008637677982041374;0.01886407667992253;0.019940522422172317;1.2234415927225357;0.00039762443446915685;0.020393596410727105;0.0367431117195051;-0.10435919682140277;0.04512083205873352;0.11420413990007142;0.02904246150815915;0.0008434645704529058;0.03120729330138286;2.0158133403927674;0.24672323676725433;0.0
0.033250616285536785;0.3781510473402098;0.001105603483368004;0.02370755582747018;0.017340008925019138;1.9816359466671114;0.0003006759095197434;0.015805037218313445;0.03688432903274945;-0.004120615590411742;0.04512083205873352;0.11420413990007142;0.028952906984925114;0.0008382708228777254;0.030480754326395243;2.2388740401311416;0.2448758750608647;0.0
0.03655696307831588;-0.18684260764820554;0.0013364115495093506;0.03517895380850408;0.016403472319892892;1.6471841341750455;0.00026907390414949235;0.014275517487509048;0.03593678255768133;0.08065521009703881;0.04512083205873352;0.1040073416947079;0.02799774106388893;0.0007838735046805724;0.030315166753447004;2.599404573752453;0.23865962483658312;0.0
0.04776400036671996;0.8526565111788967;0.0022813997310320248;0.05060161109411635;0.016213171497703953;1.7588448661688378;0.00026286693001395983;0.014275517487509048;0.03666424360116012;-0.002477641975035441;0.04690527174467213;0.1080860609768533;0.030197493315779964;0.0009118886025565755;0.030315166753447004;1.9413317217100143;0.25363920689785524;0.0
0.048149821076752815;0.6227516968084015;0.0023184052697233096;0.04958193127358005;0.016831036181622426;1.457092193962396;0.00028328377894708327;0.01809931681452026;0.037699644165888266;-0.1100189428647228;0.048179871520342615;0.1080860609768533;0.03068703200616263;0.0009416939333472496;0.032483234696550206;1.8073481045676278;0.2557018851704878;30.0
0.047845233049617075;0.757953564385553;0.0022891663255721704;0.043463852350361876;0.018597036407944825;1.208535286447623;0.00034584976315842536;0.01809931681452026;0.038190069186054096;-0.154901582866649;0.048179871520342615;0.1080860609768533;0.030927892046052678;0.0009565345064122884;0.032483234696550206;1.7606851850670207;0.25653846278299086;0.0
0.04794785355199619;0.8017205407486295;0.0022989966602436737;0.04040481288875282;0.01859703640794482;1.3927123028501172;0.00034584976315842525;0.017334556949117952;0.037443557189993246;-0.10729501147985161;0.048179871520342615;0.1080860609768533;0.0305225632441583;0.0009316268669936433;0.032483234696550206;1.7008017546065073;0.25654356943960094;0.0
0.047139371772785967;1.308354728955585;0.0022221203711329305;0.030845314571224573;0.01854614014244301;1.2647142488900505;0.00034395931418313607;0.017334556949117952;0.03632137030089613;-0.10877010180245494;0.047415111654940306;0.1080860609768533;0.030056547956273497;0.0009033960750477685;0.03574609698002698;1.4335874056041507;0.2592355046206275;0.0
0.046905271744672176;1.5012608458504555;0.002200104517441542;0.0244723156928724;0.01872556480945827;1.140946380846561;0.00035064677743322194;0.01962883654532488;0.03659715277872663;-0.47386335653936273;0.05123891098195166;0.1080860609768533;0.031249056857658632;0.0009765035544931819;0.04371519002704238;0.49089720768823025;0.2744402159916791;0.0
0.04704712725254679;1.3949835983251389;0.002213432182717331;0.026001835423676924;0.01872556480945827;1.140946380846561;0.00035064677743322194;0.01962883654532488;0.0337782859565883;-0.06672503199398723;0.05123891098195166;0.1080860609768533;0.027121269472008144;0.000735563257773281;0.04371519002704238;-0.8543243113288282;0.23410931099577711;0.0
0.04053108254220916;4.02710457153347;0.0016427686520433722;0.02549199551340875;0.017679871639617085;2.8247303709227003;0.00031257786119333645;0.01733455694911812;0.026237361099790926;-1.5419621097058105;0.04716019169980626;0.07341694707861729;0.027448129549844533;0.0007533998157850486;0.045896771837840036;-0.9406327867639068;0.2376281917549435;0.0
0.02691271107486435;5.2403404213678195;0.0007242940173991263;0.024727235648006475;0.01149120798366953;1.5068555228019231;0.00013204786092395034;0.014275517487509048;0.02512360071763563;-1.4272322116238876;0.04677781176710513;0.07341694707861729;0.027855074141242157;0.0007759051554140975;0.04744377636484158;-0.9249098753291966;0.24912835983837614;0.0
0.02693772377714977;5.537086968565543;0.00072564096229402;0.024727235648006475;0.012234870304174967;0.23241987274409692;0.00014969205135998245;0.014275517487509048;0.025336211456213176;-1.4830618615325966;0.04677781176710513;0.07341694707861729;0.02803437463951803;0.0007859261614288516;0.04803737776049247;-0.9622050754661953;0.2512091525154609;0.0
0.026903929176893552;6.4226141555680565;0.0007238214051553042;0.018864076679922424;0.01259024013186398;-0.24809529752743187;0.00015851414657799834;0.015295197308045488;0.025813904469482337;-1.6137267908177946;0.04677781176710513;0.07341694707861729;0.02837723244560177;0.0008052673212717138;0.04803737776049247;-1.147635128925696;0.25225431957880984;0.0
0.02725126368555101;5.6972253101414605;0.0007426313724594312;0.018864076679922424;0.010529337848600972;0.010214151163060908;0.00011086695552998096;0.010961558070765848;0.024602767365841584;-1.403970185993863;0.040659732843886964;0.07341694707861729;0.027309013120552488;0.000745782197618508;0.04070929789633568;-0.7300478140313348;0.2459315730291828;0.0
0.01910534453092693;1.3508976279917868;0.0003650141896454195;0.018864076679922424;0.0110005620324918;-0.21124953435968905;0.00012101236503070011;0.01453043744264329;0.023022951436364767;-1.312244053975395;0.0373457734271439;0.0713775874375446;0.023313717738243037;0.0005435294347784681;0.03991168062704348;-1.5519444020255153;0.21470241759723324;0.0
0.019197474514441374;2.198723750593749;0.00036854302773262613;0.0170796369939838;0.010967933706684963;0.040222666693382;0.00012029556979423617;0.01453043744264329;0.020923210113474217;-1.1708385032564896;0.0330121341898644;0.06627918833486279;0.02136201437926038;0.0004563356583397271;0.03443898516919883;-1.3693815569589476;0.20041654625278493;0.0
0.0191720185625317;2.1564234793970805;0.0003675662957620601;0.0170796369939838;0.008744185735659877;-1.1976800888257808;7.646078417971766e-05;0.013510757622106961;0.01882394830543698;-1.0054692654210498;0.030208014683389434;0.0591414295911083;0.01927675875081101;0.0003715934279369688;0.029804265274959996;-1.1198369686069403;0.18602396272925667;0.0
0.0191720185625317;2.156423479397084;0.0003675662957620601;0.0170796369939838;0.008722990958116957;-1.1793944163677295;7.60905712553902e-05;0.013510757622106961;0.018280487978607478;-0.7784922298390123;0.028296115019883744;0.0591414295911083;0.018829988968527337;0.00035456848455486117;0.02838791531409615;-0.8711746634704487;0.18321291620210023;0.0
0.019167704126387238;2.199463849154285;0.00036740088147672233;0.0170796369939838;0.007967909266978112;-0.8839023453134183;6.348757808679566e-05;0.00917711838482721;0.018293625388385023;-0.7829584056706286;0.028296115019883744;0.0591414295911083;0.01883323131862075;0.00035469060190067753;0.02838791531409615;-0.8751148502236131;0.18314901003117623;0.0
0.019299778835463684;2.152792168591337;0.0003724814630978119;0.0170796369939838;0.009736433599630955;-0.5168481721968508;9.479813924002261e-05;0.0124910778015703;0.018762125491007264;-0.5668216446037705;0.03288467421229735;0.0591414295911083;0.019232439331515645;0.0003698867226404299;0.033698752319662156;-0.8888076723435714;0.18108219544131007;0.0
0.018294055963400474;2.342158477052333;0.0003346724835920284;0.016824717038849725;0.008967000413495796;-0.39465192952114747;8.040709641563377e-05;0.011981237891302093;0.01571432141064795;-1.5497057802391754;0.027531355154481546;0.03925767309064951;0.01649742755058227;0.0002721651157867109;0.028898589786566106;-1.6034292996871804;0.14885457192183787;0.0
0.017210515592070263;2.7478885077881956;0.00029620184694489367;0.011471397981033873;0.009678009601919668;-1.190681592768603;9.36638698548493e-05;0.01504027735291108;0.014300050385616702;-1.0410782692995915;0.02141327623126346;0.03925767309064951;0.015184433481523292;0.00023056702015480555;0.023389074354748407;-1.1820311475024723;0.13527345415373104;0.0
0.016238415087991807;2.9767644708869145;0.0002636861245699199;0.010451718160497525;0.009238710474644543;-1.029963122800937;8.53537712343068e-05;0.014275517487508771;0.01341612476991915;-1.1761829067213885;0.02141327623126346;0.0387478331803813;0.014465418083434798;0.00020924832032856246;0.023389074354748407;-1.2802953868740559;0.12833633930172608;0.0
0.01795923789576065;0.4334452694785139;0.00032253422579652544;0.015805037218313375;0.009031334143580224;-0.491431209913824;8.156499641299795e-05;0.011216478025899784;0.012280735916741394;-1.6707193826295321;0.02141327623126346;0.032629754257163204;0.012962998689290395;0.00016803933501854452;0.023184931348199628;-1.5834863659796359;0.11395800671314174;0.0
0.020161105135864072;-0.7991584753559096;0.0004064701602993647;0.027021515244213274;0.008666824059874737;0.6173657718120518;7.511383928482362e-05;0.0071377587437543855;0.013603284708148132;-1.0596611844184105;0.02166819618639751;0.0418068726419904;0.013208311267209142;0.00017445948653148398;0.0219714515440039;-1.3296616889447241;0.11890124788793914;0.0
0.022013069782382603;-1.3241269358690757;0.000484575241244046;0.03594371367390635;0.008700839303745444;0.3740701034252469;7.570460458960149e-05;0.007902518609156695;0.013805032347070298;-1.0817327923934;0.021795656163964533;0.0418068726419904;0.0129268531704099;0.0001671035328893365;0.017287059291151874;-0.7691830252848907;0.11802957532278054;0.0
0.020198528418226735;-0.4003285616346766;0.000407980550261913;0.018354236769654246;0.007866428443569457;0.6087891621487864;6.188069645779859e-05;0.007902518609156695;0.013440761175744047;-0.56326637111561;0.015422657285612332;0.0418068726419904;0.012007297385404507;0.00014417519050154192;0.010220050422577065;-0.10279642481558035;0.11348715958188464;0.0
0.019297074766933806;-0.940732652147788;0.00037237709456063343;0.0285510349750178;0.008390090851692135;0.31892759915859237;7.039362449964805e-05;0.007902518609156695;0.012930674189445667;0.26802772355005305;0.011981237891302163;0.0418068726419904;0.011604731356771534;0.0001346697898628365;0.00765139401841404;0.7718514253214468;0.11064617391622075;0.0
0.023523521769957183;-0.7028844326910928;0.0005533560764616495;0.03237483430202912;0.008256296948428846;1.002339276082242;6.816643930063547e-05;0.006372998878352132;0.012930674189445667;0.26802772355005305;0.011981237891302163;0.0418068726419904;0.012116536025080015;0.0001468104452470618;0.010280990796062942;-0.31269812246708284;0.11391000564162058;0.0
0.023468206346472807;-0.9124632160509918;0.0005507567091206265;0.03237483430202912;0.009874204064153201;0.696302917933198;9.74999059005396e-05;0.007137758743754441;0.012927323366248796;0.6796069558991152;0.010706638115631675;0.0418068726419904;0.012196019437501397;0.0001487428901199119;0.009786021310757745;-0.2595057694693651;0.11519353575687322;0.0
0.023058847232561044;-0.8051229904529091;0.0005317104356945881;0.03135515448149277;0.009854640492415304;0.7522241724821147;9.711393923475136e-05;0.007137758743754441;0.013387986908777738;-0.1457304504907711;0.013510757622106684;0.0418068726419904;0.012371137727655211;0.00015304504867661415;0.01489085367516714;-0.653871847536303;0.11600013933822301;0.0
0.024632204657157826;-0.5316284989453152;0.0006067455062721077;0.03135515448149277;0.01041311684724108;1.1277547499098135;0.000108433002474296;0.007137758743754441;0.011333495974330593;2.0239933724982038;0.008412358519424928;0.0418068726419904;0.0106161486509892;0.00011270261217989981;0.008575585958469092;0.46163851452188537;0.10139121050197011;0.0
0.024293508175500064;-0.3409901211722355;0.0005901745394730884;0.029825634750688244;0.011523038223570845;0.42843640521138016;0.00013278040990187474;0.007775058631589671;0.010079868826084073;0.6994720610510089;0.008412358519424928;0.0356887937187723;0.010310044060586413;0.00010629700853123318;0.008575585958469092;0.19306427902715453;0.09859886258104196;0.0
0.025590836434040618;-0.34410116930699247;0.0006548909093938208;0.03556133374120527;0.010717300452552413;1.788523140745297;0.00011486052899028015;0.011343938003467058;0.012084258623116137;0.8754258960129063;0.008667278474558948;0.0458855919241358;0.010707487677422599;0.00011465029236215682;0.011712620453244768;0.05071316062063084;0.10343291958442496;0.0
0.025464944195458927;0.13126872198976433;0.0006484633828778373;0.022560416029366773;0.010745192932925328;1.7988888700856327;0.00011545917116578842;0.011343938003467058;0.012820556209878787;0.24273857936562296;0.01325583766697258;0.0458855919241358;0.01084401929261555;0.00011759275441861826;0.01174960252459821;-0.026766351832808746;0.10488839055763371;0.0
0.02633131055281458;-0.6134537046931705;0.0006933379154287644;0.03811053329254612;0.011920848327473818;0.09858399476551086;0.00014210662484663534;0.01236361782400347;0.013713794717668388;-0.21384660641675232;0.01631487712858165;0.0458855919241358;0.012675749045097327;0.00016067461385428582;0.013023535425779012;-0.23106495020768042;0.1246687478134737;0.0
0.02793593960032527;-1.1798132320326298;0.0007804167213530216;0.04193433261955745;0.011931745956930931;0.1049998304708317;0.0001423665615807376;0.01236361782400347;0.015883089714586626;-0.3131699472961101;0.019373916590190665;0.0550627103089629;0.016242068770931987;0.0002638047979596841;0.015242618872332872;0.2830852037134005;0.16362289407276884;0.0
0.027462998381206;-1.0524525899506891;0.0007542162800861234;0.036453553584174556;0.011822650764969979;0.4363027133475024;0.00013977507111044522;0.011343938003467058;0.016375356798373472;-0.6071860240304002;0.021668196186397495;0.0550627103089629;0.01657897448397709;0.00027486239494036347;0.018967987977489928;-0.14964401791684925;0.16934856659332345;0.0
0.02701768898770913;-0.6823645897783757;0.0007299555182365792;0.03951259304578362;0.011947579310295272;0.7237830727080399;0.00014274465137579566;0.011089018048333205;0.016397708963509533;-0.6173497493241377;0.021668196186397495;0.0550627103089629;0.016299731600510535;0.0002656812502486818;0.015617848749370139;0.1936453223998721;0.16479251375543733;0.0
0.028958203770406803;-0.8972801075759561;0.0008385775656084029;0.04588559192413579;0.011848523022289817;0.5222358970057251;0.00014038749780973184;0.011471397981034193;0.016653903304844477;-0.4398760217461687;0.020648516365861125;0.0550627103089629;0.016203816587773895;0.00026256367201021646;0.014866243478086003;0.23036575837128276;0.16474972382596853;0.0
0.026981805129325725;-0.7978698147928772;0.0007280178080369081;0.03951259304578362;0.012590240131864022;0.3362039078642643;0.0001585141465779994;0.013255837666972747;0.016452080102226336;0.1676224358957509;0.018609156724788425;0.0550627103089629;0.015411508123966345;0.00023751458265508063;0.016049029579048593;0.5691577288868725;0.1614667132222139;0.0
0.02797506965493353;-1.2629851905687373;0.0007826045221983827;0.04180687264199042;0.012544799732243463;-0.44617306553181685;0.00015737200032209565;0.014785357397777393;0.016889142978294032;0.6106235079248443;0.014275517487508882;0.0550627103089629;0.01667316912701669;0.00027799456873810256;0.01838781301810194;-0.04925568096906545;0.17929010528035697;0.0
0.028939429114058408;-1.4833015983688937;0.0008374905574476115;0.04792495156520844;0.013540385634099561;-0.5657027968154631;0.0001833420431201298;0.01580503721831364;0.014417377448277053;4.087918522977795;0.007647598654022619;0.0550627103089629;0.01557644398048675;0.0002426256070772419;0.016374155637171317;1.0987458393866645;0.17226523656993822;0.0
0.028593214589971938;-1.5458282796373057;0.0008175719205881841;0.04792495156520844;0.011325152807032685;-0.266696407368387;0.0001282590861026403;0.013765677577240787;0.013575462248513519;7.312083304451921;0.006372998878352201;0.0550627103089629;0.015070887473743664;0.00022713164924624367;0.012946931688777572;2.230213601668768;0.16958783465178842;0.0
0.03113665295350767;-1.6929304997078103;0.0009694911571471779;0.05378811053329247;0.010952122510367484;-0.08211674276763638;0.00011994898748209818;0.01096155807076582;0.006645573336252139;0.5142628141345672;0.006372998878352201;0.024472315692872393;0.010151978941018268;0.0001030626764188784;0.011159935346666539;-0.14059686997618429;0.11775966573254412;0.0
0.029241340242477615;-1.254686112285392;0.0008550559791763408;0.047670031610074375;0.0108944338157262;-0.2543892375976586;0.00011868868816523854;0.011726317936168129;0.0066562323157062534;0.8511872019530428;0.00433363923727953;0.024472315692872393;0.009851526078027681;9.705256606605946e-05;0.010623873430760003;0.032208730576426585;0.11540085918501734;0.0
0.027743507491700372;-0.6576363407167877;0.0007697022079420346;0.035178953808504075;0.011157332343476737;-0.3329612352687478;0.0001244860650227921;0.012491077801570438;0.007085007265131771;-0.26586574707849625;0.007902518609156722;0.024472315692872393;0.010016684740718382;0.00010033397319494049;0.009058737642472517;-0.2855785440785875;0.1194400828391326;0.0
0.028350137380570833;-0.7158336311552477;0.0008037302894972396;0.0367084735393086;0.010820434674089724;-0.5335345597718073;0.00011708180653624319;0.012491077801570438;0.008326951652421954;-0.845067623786632;0.011726317936168074;0.026511675333945203;0.011259731768090362;0.00012678155948934333;0.014320484839079259;-0.8325599409286282;0.13625479510710775;0.0
0.030664816674869318;-0.7777895528953795;0.0009403309817033434;0.03862037320281425;0.011113475291385061;-0.43920512286548313;0.0001235093330522263;0.01402059753237489;0.01435056849145272;4.904087820880675;0.011726317936168074;0.0540430304884266;0.013657660106823972;0.00018653167959353098;0.014320484839079259;0.6579326889812206;0.1677060560669574;0.0
0.02938108106819638;-0.11877066623737026;0.0008632479247359277;0.031992454369327974;0.011299040702549147;-0.13860933238091774;0.00012766832079786234;0.01402059753237489;0.015041979341570508;2.504753221682419;0.013510757622106698;0.0540430304884266;0.01468736438132032;0.00021571867246967686;0.016455261641897104;-0.4967278185144298;0.18513892710133661;0.0
0.02632244690065859;1.1184726705614056;0.000692871210837991;0.0312276945039257;0.011391727054440493;-0.11488158349087346;0.00012977144528287146;0.01402059753237489;0.017104637976890977;0.1529563653086522;0.018864076679922535;0.0540430304884266;0.01603568714719491;0.00025714326228271203;0.019379113644281645;-0.5433623771069784;0.21449436494311686;0.0
0.0215622430568459;-0.9513894882688861;0.0004649303256424993;0.0312276945039257;0.011391727054440493;-0.11488158349087409;0.00012977144528287146;0.01402059753237489;0.017114305971647707;-0.21635836566039315;0.02039359641072705;0.0540430304884266;0.014299297822933129;0.00020446991822894013;0.018703671052975712;-0.37736081547631795;0.19718783146273094;0.0
0.022564070851666528;-1.1418591701295686;0.0005091372933990271;0.0327572142347302;0.015264008625969164;1.3746714834712286;0.00023298995933366106;0.01402059753237489;0.017141726451141752;-0.6846489874774642;0.023962475782604256;0.0540430304884266;0.013889413504192406;0.0001929158074904424;0.018069128287114475;-0.19421196443956887;0.19382966883039984;0.0
0.027482244267557136;-0.8049859905742336;0.0007552737499816771;0.0367084735393086;0.01397748277499946;2.3129954680304006;0.0001953700247254066;0.013765677577240842;0.017432205709748735;-0.9965200136788843;0.027786275109615607;0.0540430304884266;0.013982783110421304;0.00019551822351308328;0.018069128287114475;-0.1984779508972047;0.1939407453234131;0.0
0.03561555322898754;0.15691425153318367;0.0012684676318068446;0.0446109921484653;0.014469255238005418;2.279640341551511;0.0002093593471425472;0.015550117263179342;0.02154511241584777;0.03882140000291277;0.023452635872336113;0.0744366268991537;0.013621676818404422;0.00018555007934505641;0.014070263067502226;0.004317692141073495;0.19072886583415002;0.0
0.0450724931385338;0.7345137251204569;0.0020315296377231766;0.04397369226063012;0.016610332659905584;0.3418069268008954;0.0002759031510727261;0.015550117263179342;0.024662604909630927;-0.24638312262188403;0.02625675537881097;0.0815743856429081;0.016772946679418633;0.00028133174031062054;0.014070263067502226;0.5577971803779014;0.228909070664779;0.0
0.044142793170939734;1.0743364969153877;0.0019485861889323637;0.03938513306821655;0.016617844307069276;0.4082075154407612;0.0002761527494139948;0.015550117263179342;0.025100075346691984;-0.8476411516566417;0.03110023452635865;0.0780055062710309;0.023774643527473653;0.0005652336748584449;0.016202138159101757;2.7275490465661796;0.3585991193858345;0.0
0.04367133334778697;1.2917382247954101;0.0019071853563735308;0.03632609360660743;0.01653504339167151;0.14843864797196665;0.00027340765996445974;0.016569797083715643;0.0221642691651087;-1.0624371416374723;0.029060874885286025;0.0647496686040583;0.024039496264055254;0.0005778973806295264;0.024084421001458037;1.846220345603778;0.3829287066663434;0.0
0.043668266999832936;1.287711761062056;0.0019069175427686982;0.03632609360660743;0.01653504339167151;0.14843864797196854;0.00027340765996445974;0.016569797083715643;0.02371826851763658;-1.3388820449501315;0.04078719282145405;0.0672988681553991;0.02769307755467155;0.0007669065444490534;0.028892488825517863;0.2720512207069621;0.4808438614407541;0.0
0.047959187528610864;0.2941151230995824;0.002300083668404464;0.04269909248495963;0.023585293890305933;3.327172583964797;0.0005562660878921024;0.016569797083715643;0.022045250689785745;-1.1733707198921226;0.0395125930457836;0.06525950851432641;0.02884081653966347;0.0008317926986745258;0.030574699298642434;-0.11355603994324623;0.48655475918048324;30.0
0.050608318813375734;-0.09523345672059426;0.0025612019331162804;0.048307331497909556;0.023641584798054525;2.912086596156837;0.0005589245317636029;0.016569797083715643;0.02417939219671729;-1.307081068787196;0.04078719282145405;0.0713775874375446;0.030115292207481246;0.0009069308247419806;0.03493182324403959;-0.2677433286461678;0.48165595871513867;30.0
0.050758448039389045;-0.13364199691051795;0.0025764200473673577;0.048307331497909556;0.02570419259393492;0.8790280407250483;0.0006607055169060987;0.016824717038849746;0.032905835879833145;1.095075700413814;0.0415519526868563;0.1187926990924849;0.034508163293576345;0.00119081333389613;0.042860071266317544;-0.4214875201690164;0.5112922142204491;0.0
0.050986984317209966;-0.1892018536982827;0.0025996725697634148;0.048307331497909556;0.025582707287509165;0.8300395679177465;0.0006544749121583745;0.016824717038849746;0.03380800503137214;0.36632882155314267;0.04919955134087896;0.1187926990924849;0.03381735612561983;0.001143613575326997;0.023761960182812847;0.06114895867863576;0.4846921371686064;0.0
0.05029058628852589;-0.011544354800117338;0.002529143069243668;0.045503211991434526;0.025673606704072365;0.8902736293494848;0.0006591340811953894;0.016824717038849746;0.03330520514863063;0.7946011770100729;0.043081472417660846;0.1187926990924849;0.03450872011491634;0.0011908517639696314;0.04259184458838347;-0.4101308096925436;0.5098912660899594;0.0
0.04987816006510817;0.11354655429397174;0.0024878308514805513;0.0412970327317221;0.02355831006819345;1.3505712808295143;0.0005549939732691448;0.016824717038849746;0.03398542607952063;0.9380507359336371;0.044610992148465374;0.1187926990924849;0.03606152585375477;0.001300433646901024;0.04846583747907883;-0.9984001098253107;0.5623791160172401;0.0
0.047729211818355925;0.7103604987145591;0.002278077660801487;0.04053227286631985;0.023611663081356607;1.4923332465275456;0.0005575106334674986;0.016824717038849746;0.03448790160558951;1.3435446168405816;0.0392576730906495;0.1187926990924849;0.03727367761819645;0.001389327043185239;0.05774938466349485;-1.2500218651259176;0.621635506534382;30.0
0.0421953608295928;1.7293625574178262;0.001780448475539534;0.0224329560517997;0.023458040543425988;1.8388149236396405;0.0005502796661370174;0.015040277352911191;0.03477278991303982;1.2773287654120502;0.0392576730906495;0.1187926990924849;0.03751287638742344;0.0014072158948581113;0.05774938466349485;-1.1679848516827178;0.6598153963372845;0.0
0.03155308346208516;1.0500760386119106;0.000995597075965312;0.02778627510961545;0.022288031082267963;2.2070873912895244;0.0004967563295241429;0.015040277352911191;0.034254146331019045;1.399227038314253;0.03874783318038133;0.1187926990924849;0.03455228867704768;0.0011938606528220375;0.046507288702586434;-0.17602949368518794;0.6840146693122291;0.0
0.03183602849945903;1.4019454210211089;0.001013532710618368;0.0209034363209952;0.02226284725163171;1.8940670148338894;0.0004956343677494856;0.016059957173447437;0.03351159681996025;1.5952050272302516;0.036453553584174576;0.1187926990924849;0.03301188529694597;0.0010897845708587178;0.046507288702586434;-0.006087560707405576;0.6355355737811402;0.0
0.0330499836296795;1.2031814616284204;0.0010923014179220832;0.023197715917201975;0.02174557912171374;2.095924148232743;0.0004728702113387126;0.013765677577240676;0.03457728813241073;1.5019738945730492;0.03874783318038133;0.1187926990924849;0.033143945378615064;0.0010985211152606186;0.046507288702586434;-0.009365292755462128;0.6421996115986218;0.0
0.03333853577376107;1.3886837697900476;0.0011114579675383467;0.017079636993983877;0.02161369017980184;2.1429105157985116;0.00046715160318846257;0.011981237891301955;0.03327524413854698;1.8282718896943682;0.0372183134495768;0.1085959008871214;0.03190452534108269;0.0010178987372397876;0.046507288702586434;0.11891623710012722;0.6050972814309067;0.0
0.026171982705043752;6.725986558550528;0.0006849726787131093;0.010451718160497624;0.014435941247308976;2.3331385073865096;0.00020839639969575665;0.010961558070765709;0.03498966158441325;1.6716901425422293;0.03874783318038133;0.1177730192719485;0.03167058168100946;0.001003025744013492;0.02550205777091584;1.6211291897252502;0.6759918860858144;0.0
0.011556825693250727;2.003364371579399;0.00013356022010418015;0.010196798205363525;0.01618229178550434;1.4969626490196277;0.0002618665674312013;0.01504027735291108;0.0340101876931777;3.856249728399915;0.01453043744264295;0.1177730192719485;0.02860758310969723;0.0008183938113782342;0.012711810122321782;5.513290019203404;0.6812929973491736;0.0
0.011556825693250727;2.003364371579385;0.00013356022010418015;0.010196798205363525;0.012280495389180896;-0.7213568055434286;0.00015081056700369324;0.01504027735291108;0.01937066374990708;3.25278734182336;0.009686958295095274;0.0703579076170082;0.014119774866635024;0.00019936804228445809;0.010217830129738856;4.974332362716053;0.4070412003530975;0.0
0.011666718742680854;1.3766126543208934;0.00013611232622082073;0.008922198429693075;0.012930274420938002;-1.3545784766927773;0.00016719199660076358;0.023070255939634687;0.01202405892526608;2.842725426726555;0.011853777913735049;0.0458855919241357;0.007465263432585548;5.573015811789895e-05;0.007256299044013675;1.4518965125919598;0.24064484997272342;0.0
0.011892401522140994;1.3657270997040618;0.00014142921396382145;0.010451718160497624;0.01496018064647982;-1.1935212508922752;0.00022380700497530933;0.02574691546854263;0.0075468989017752975;-0.31683818119472185;0.008794738452126;0.026511675333945002;0.0059243375438223;3.5097775333142435e-05;0.006254580148994333;2.2036612602334418;0.19762082497749658;0.0
0.01181531971443749;1.6300366085859612;0.0001396017799543752;0.010451718160497624;0.014262044376022949;-0.6081153896368878;0.0002034059097836478;0.014275517487508826;0.007485065950773802;-0.1855916546469416;0.008029978586723774;0.026511675333945002;0.006298669980839403;3.9673243527527446e-05;0.0070558828114930215;0.6030961000704766;0.21484534876310024;0.0
0.014714598962814214;0.23098582291721514;0.00021651942263645316;0.010961558070765775;0.014345335938192082;-0.7531768047787983;0.0002057886631795853;0.017334556949118063;0.007881808817317305;-0.5895926962130122;0.010579178138064724;0.026511675333945002;0.007362210680192373;5.420214609953865e-05;0.008373983705689286;-0.5430941164437589;0.2593542132644166;0.0
0.018902869807038408;1.6025571757587462;0.0003573184869418442;0.010961558070765775;0.01443660623443627;-0.9260832615351281;0.00020841559956816418;0.020393596410726966;0.00797717176779917;-0.7889794229982714;0.011343938003466949;0.026511675333945002;0.01265844613406716;0.00016023625852907986;0.008373983705689286;4.653669062260893;0.4127421397956611;0.0
0.017712142937805066;1.8009210742075008;0.00031372000744923787;0.015550117263179373;0.015762914934494297;-0.7921047344969414;0.0002484694872321033;0.020967166309778684;0.007803089820433626;-0.22829192223422234;0.011089018048332825;0.026511675333945002;0.014108749193410083;0.00019905680380254967;0.009535535895969414;1.4398265867509425;0.4350306863502129;0.0
0.018468893039595237;0.919635939493165;0.0003411000101080094;0.022178036096665656;0.016797116109750564;-0.9406300533633226;0.0002821431096044419;0.021731926175180993;0.0073642552222604905;0.55565796630779;0.01083409809319875;0.026511675333945002;0.014483476787930083;0.0002097710998665095;0.014892314927913507;0.37196086255091815;0.42513844465716333;0.0
0.018086201582722384;1.3735880503283322;0.0003271106876908696;0.01605995717344755;0.016822302850916605;-0.9761954336767656;0.00028298987320795693;0.021731926175180993;0.0074788808692444935;0.06694135619382564;0.01083409809319875;0.026511675333945002;0.014483703709133324;0.0002097776731339624;0.011611117251666768;0.6030048866780778;0.4337142153375168;0.0
0.01900960886708543;0.7036664436034427;0.0003613652292795729;0.018099316814520226;0.01790865946983292;-1.3142243630575672;0.00032072008400643633;0.027595085143265058;0.008632674787111334;0.11332040397720927;0.0112164780258999;0.0316100744366268;0.015235803130540794;0.00023212969703259668;0.015649643590228954;0.267681429375183;0.4679672073748476;0.0
0.018886142222956287;0.7731987910889182;0.0003566863680657322;0.018099316814520226;0.01813223987166523;-1.4482859495202651;0.0003287781227636064;0.03141888447027644;0.012198118219491915;2.1517875762856735;0.0112164780258999;0.0479249515652084;0.014338163767855952;0.0002055829402338572;0.013194381446571205;0.41261877280863046;0.416059091768581;0.0
0.018733292621228147;0.8907310881247616;0.00035093625243256095;0.014275517487508951;0.019617584638730555;-1.2004351857276394;0.00038484962705775705;0.03141888447027644;0.019806307676268;2.9702024329613224;0.013510757622106675;0.072907107168349;0.017130260293962304;0.00029344581773890153;0.020372830933130626;-0.6111168615595716;0.4588174827772623;0.0
0.019016237512792713;0.5811007403087041;0.0003616172891429447;0.01886407667992252;0.01932724447830855;-1.046037086868923;0.00037354237912430826;0.027595085143265058;0.02594721184866199;1.281964095318859;0.023707555827470098;0.078515346181299;0.020714839211489363;0.0004291045635578573;0.028061240334158532;-0.9025898729529994;0.5043088569352928;0.0
0.01841352577240873;1.155163983165315;0.0003390579313711605;0.016314877128581647;0.018846322054287285;-0.8790082106126578;0.0003551838549739153;0.023452635872336064;0.025786007171207496;1.2527789662746576;0.023707555827470098;0.078515346181299;0.02088464236120091;0.00043616828655526754;0.030206979146165054;-0.9456778895276854;0.5114111450502927;0.0
0.018393409295791405;1.1702173433598968;0.0003383175055225056;0.016314877128581647;0.01703634604556736;-0.35371482087995093;0.0002902370865843186;0.018099316814520316;0.025457055259211915;1.2287710226225683;0.023707555827470098;0.078515346181299;0.021142258368635154;0.00044699508892612325;0.030206979146165054;-1.0018841057739072;0.5239550401048797;0.0
0.018322612755321845;1.3045898766776391;0.00033571813818148284;0.014785357397777123;0.01703634604556736;-0.3537148208799522;0.0002902370865843186;0.018099316814520316;0.025138684568349227;1.3128320819205044;0.019883756500458823;0.078515346181299;0.020659204642417776;0.00042680273645729624;0.02820666762192313;-0.8961124866042629;0.5038889242204885;0.0
0.014008935185428074;2.101491968546668;0.00019625026502952472;0.011981237891302121;0.01709081706872688;-0.39112556958935824;0.0002920960280766861;0.018099316814520316;0.025138684568349227;1.3128320819205068;0.019883756500458823;0.078515346181299;0.019521996995595273;0.0003811083666960309;0.02628495918754785;-0.7430164897959773;0.46351755081622015;0.0
0.009989499790549822;1.6204857337438492;9.979010606539496e-05;0.00943203833996125;0.017058986485600336;-0.3362958494275277;0.0002910090199158949;0.018099316814520316;0.029359793451375998;1.0636655301637519;0.019883756500458823;0.1121647802589986;0.018548782329250276;0.0003440573258979073;0.023262858655270384;-0.10444530247169849;0.45120214775841555;0.0
0.009536889278266687;1.6377394392141007;9.09522571059181e-05;0.00790251860915675;0.015495440660279202;0.5888542441359473;0.00024010868125623396;0.01376567757724062;0.02927149463590686;1.0749161122409672;0.019883756500458823;0.1121647802589986;0.018824944262508858;0.00035437852648656515;0.020569799817552782;0.3956455087861034;0.48607652365839216;0.0
0.01472550186305091;4.713826569803891;0.00021684040511871585;0.008412358519424925;0.013524888160489015;1.5578457670848114;0.00018292259975373595;0.012491077801569994;0.033536502769644906;0.35862618069847685;0.019883756500458823;0.1172631793616804;0.019396246744827234;0.0003762143877862211;0.026262585410840623;-0.2517754000095187;0.4902240517918811;0.0
0.016569915927091436;1.0532931395420677;0.0002745621138308785;0.013893137554807776;0.013528382098480972;1.5306536749489996;0.00018301712220250042;0.012491077801569994;0.034379214079808165;0.051040006399814625;0.02345263587233605;0.1172631793616804;0.019362534035714297;0.0003749077242841946;0.026262585410840623;-0.24539820268757037;0.48859615869619544;0.0
0.0168777709752549;2.1298199145161623;0.00028485915309315674;0.010196798205363525;0.012892774480512277;1.5039158714758545;0.00016622363380534863;0.012491077801569994;0.03605710650043588;-0.31814999906216285;0.038237993270113124;0.1172631793616804;0.0180774490519488;0.0003267941642258045;0.024340876976465343;-0.5553240056657986;0.423862520226569;0.0
0.018325030776978248;1.6199219486868697;0.00033580675297720003;0.0122361578464362;0.012611727932393346;2.2491429352396053;0.00015905568144071057;0.009177118384826988;0.03516526473118124;0.16610913421711693;0.0331395941674313;0.1172631793616804;0.01805167785818294;0.0003258630734956122;0.024340876976465343;-0.6823475159857335;0.41718522858168855;0.0
0.019988459521850004;1.2602502368518085;0.0003995385140566361;0.014785357397777126;0.008454621970285793;1.7604786025439074;7.148063266043923e-05;0.0076475986540224805;0.03314173328682708;0.5996075153295332;0.0331395941674313;0.1172631793616804;0.017219568802355863;0.00029651354973906735;0.024340876976465343;-0.3111313827673087;0.4041666940853955;0.0
0.019815899746914147;1.3123134729904424;0.0003926698827797521;0.011726317936168077;0.006584846555008908;2.539207638347808;4.3360204153012676e-05;0.006627918833486235;0.03020937546441665;-0.29863657628490614;0.0331395941674313;0.1009483022330987;0.014213729086366833;0.00020203009454063055;0.024340876976465343;-2.0495510506780477;0.34678377609362016;0.0
0.020534282725907894;1.1347210126069545;0.0004216567670675194;0.01707963699398395;0.01557453899555653;7.065426220746585;0.00024256626492411102;0.0071377587437543855;0.030333235021761405;-0.3623683633777843;0.033649434077699554;0.1009483022330987;0.014258739137729692;0.00020331164179782449;0.026707699260138613;-1.9793733264401607;0.32583599662741747;0.0
0.026158134616327586;1.0802759705857865;0.0006842480066059156;0.022178036096665705;0.015683463976345086;6.056182596774235;0.00024597104229731403;0.01096155807076582;0.031248678543302936;-0.700062150700075;0.03900275313551538;0.1009483022330987;0.017278984651771464;0.00029856331059615384;0.02853252117174497;-0.032821672530159024;0.3568223027612255;0.0
0.027130028228111166;0.46285317095017087;0.0007360384316581086;0.02906087488528603;0.015942490014326502;6.135252799343828;0.0002541629878569003;0.009432038339961035;0.031471095449096924;-0.7849097530005735;0.03900275313551538;0.1009483022330987;0.018238549700161567;0.0003326446951652636;0.028723743933972406;-0.22968155639003954;0.3822334239517692;0.0
0.027262245223659366;0.4018053280448713;0.000743230014634938;0.02906087488528603;0.015913065079989647;5.71321562744318;0.0002532256402399859;0.01325583766697258;0.033853756281959475;-1.256574425805145;0.053278270623024246;0.1009483022330987;0.017462937067203754;0.00030495417101311884;0.02018475268686544;0.24873037220173727;0.35846727369339426;0.0
0.027684851987107916;0.13368450724975547;0.0007664510295480732;0.03059039461609055;0.0168476418756139;4.718531781873732;0.00028384303676893906;0.013510757622106684;0.03081778650966657;-0.722447135045639;0.043846232283062975;0.1009483022330987;0.017426905623710836;0.0003036970396177243;0.02018475268686544;0.29232297508314103;0.3595149083783179;60.0
0.03191843641840128;-0.5026069395206795;0.0010187865833955253;0.04282655246252675;0.02439623643898533;2.1215198285131893;0.0005951763523868756;0.017589476904251944;0.03107258374447787;-0.7875043832683698;0.043846232283062975;0.1009483022330987;0.01632096448394022;0.00026637388168603807;0.0143082087295337;0.6517742068371004;0.31302610371754247;60.0
0.030379649395429507;-0.2864600592783612;0.0009229230973892205;0.0424441725298256;0.024966030692670192;1.9882323181949548;0.0006233026885473502;0.017844396859386047;0.02713278629632358;-0.942937862821468;0.040277352911185775;0.0856531049250534;0.016642910657818533;0.0002769864751641297;0.018124437376258032;0.34963512304329547;0.32781155436818454;60.0
0.031155620484219736;-0.4196461521680116;0.0009706726877567324;0.0424441725298256;0.02642011893038437;1.5417940853654835;0.0006980226842956545;0.01950137656775769;0.025168746909752758;-0.42737786489694257;0.037218313449576726;0.0856531049250534;0.01619611516114063;0.0002623141463129293;0.018124437376258032;0.5789802225126727;0.3167196114892487;60.0
0.03104011890522705;-0.38436022047191043;0.0009634889816506338;0.0424441725298256;0.026521589509940165;2.072378300150533;0.0007033947101337682;0.015167737330478326;0.020889112184350276;-1.190750873618089;0.03696339349444265;0.0662791883348627;0.01829105022406748;0.000334562518299359;0.020709912158351475;-0.18541026978009162;0.3763020587393079;60.0
0.03178858128182118;-0.6124844645253328;0.001010513899910952;0.04371877230549603;0.026390288178600486;1.5924154544403166;0.0006964473101495806;0.01924645661262364;0.02195973367288535;-1.391156130116447;0.037600693382277874;0.0662791883348627;0.01838099946942934;0.00033786114149516173;0.020709912158351475;-0.28250495169233497;0.37193366738228345;60.0
0.031939128486239955;-0.6552423253320822;0.0010201079284605445;0.0442286122157642;0.02715059811650822;1.4466595584523512;0.0007371549780841397;0.023325175894769012;0.021145648343814147;-0.8447469137920469;0.02918833486285295;0.0662791883348627;0.018252221019766146;0.0003331435721543931;0.020472065610469735;-0.18263767508255455;0.3712790494326086;60.0
0.03600267000598799;-1.0791529875935106;0.0012961922475600673;0.050346691138982276;0.026970709405972255;1.2893722400980114;0.0007274191658614002;0.023325175894769012;0.01747417791665269;-0.4553347761897423;0.0211583562761292;0.0550627103089629;0.020402316447321264;0.0004162545164166358;0.022850796126621012;-0.7320319092061298;0.39961983014747005;60.0
0.036671842705942405;-1.1535233999631576;0.0013448240474493813;0.05417049046599355;0.02409421674347249;5.021484771403382;0.0005805312804814301;0.024217395737738123;0.01952981911093983;-0.6184950251190862;0.02345263587233595;0.061180789232181;0.02086944425616028;0.00043553370356098133;0.02464384454204556;-0.7815722406482772;0.4272810745942769;60.0
0.03368835766974965;-1.0445672350340525;0.00113490544248498;0.05417049046599355;0.025159317151816844;5.138174904606839;0.0006329912395457052;0.022687876006933616;0.01879735798517938;0.2368945537059416;0.014275517487508799;0.061180789232181;0.01855394701640157;0.0003442489498874367;0.023693217254653592;-0.6051528354031518;0.39301952608099255;60.0
0.033368853053384516;-0.982514716580772;0.001113480354098369;0.05417049046599355;0.02748421468687471;3.8856165485691374;0.0007553820569542194;0.024727235648006385;0.01955219085312697;-0.7534343335140793;0.023962475782604173;0.061180789232181;0.017577677826988578;0.00030897475778940593;0.02630696437507052;-0.7040595655629703;0.34418291415458;60.0
0.03327619099965856;-0.9401849284849783;0.0011073048874457576;0.05417049046599355;0.028185733661471396;4.29730697559973;0.0007944355820354018;0.021668196186397426;0.02016930809100843;-0.6250640149930127;0.023962475782604173;0.06525950851432641;0.017541150529452963;0.0003076919618969279;0.02630696437507052;-0.6173828273024349;0.3325769041723532;0.0
0.032858135540260854;-0.8004280036932945;0.0010796570711821536;0.05417049046599355;0.028372633690857126;3.440694299919133;0.0008050063425555608;0.031610074436626945;0.019985651569281088;-0.7178286698660398;0.023962475782604173;0.06525950851432641;0.019610695405292353;0.00038457937427915456;0.030475658716018775;-1.2056054003809178;0.38842332072333835;0.0
0.02864440811921032;-0.49263966358331823;0.0008205021164998821;0.039767513000917645;0.017239325179859002;-1.0344417191661794;0.0002971943326569206;0.02867849495258501;0.023079718003939185;-1.1419502523607776;0.037600693382277874;0.0718874273478126;0.018913314397539713;0.00035771346150018297;0.027842588647429667;-0.9294208321615897;0.383121211396583;0.0
0.026658745139824008;0.009311604768658475;0.0007106886924300901;0.034669113898235945;0.021031867734174117;-0.7461894596941546;0.0004423394603877943;0.031610074436626945;0.022257893327289873;-0.8001549879708124;0.030845314571224573;0.0718874273478126;0.01869241944119689;0.00034940654456563545;0.027842588647429667;-0.7326580451732582;0.36990280689583377;30.0
0.027799099648519916;-0.06984767139487834;0.0007727899412683401;0.03173753441419397;0.03431307878275509;3.2711587736782777;0.0011773873755515573;0.028041195064749558;0.021766216359348126;-0.6511194152568174;0.028296115019883675;0.0718874273478126;0.02783490745105746;0.0007747820728089342;0.01646909897973401;2.445702550530646;0.4792409052832987;30.0
0.04111579254158273;2.17394025331917;0.0016905083963224701;0.03658101356174163;0.034261044250149454;3.2505202844457575;0.001173819153110699;0.028041195064749558;0.024401724651993067;-0.7771122424922339;0.030080554705822275;0.0774956663607626;0.03706226379164299;0.0013736113973613314;0.017435323966276096;1.899798865911488;0.5355730030446452;0.0
0.04208767457629923;1.2753391933418836;0.0017713723512404642;0.05773936983787093;0.03401195362227561;3.8540762579531322;0.0011568129892038268;0.02549199551340864;0.029935133182277623;-0.1551009292351239;0.03313959416743133;0.10145814214336679;0.03776155939872691;0.0014259353682235807;0.03199847119218013;0.8652881473947092;0.5183910925872651;0.0
0.04264211542919042;0.7214374127915208;0.0018183500082764;0.05773936983787093;0.035095112077817195;3.403400191739548;0.0012316668917545504;0.03492403385337006;0.0341215512932252;-0.9904551393172363;0.0513663709595186;0.10145814214336679;0.038268790330219855;0.0014645003133383287;0.04619673724785094;0.15639954472719006;0.4987846360909876;0.0
0.04244873064081226;1.3477193152192324;0.0018018947330162335;0.05620985010706641;0.03702349189571816;1.639529983736849;0.001370738952152308;0.04053227286631997;0.03478671834818902;-1.2620064427039202;0.0513663709595186;0.10145814214336679;0.038896281992232926;0.0015129207528193035;0.04708477616188061;0.1927115444329148;0.5240283873536427;30.0
0.03938734546229329;1.9551636738605995;0.001551362982566036;0.04977312123993068;0.03664949738178505;1.5141214273284238;0.0013431856583374694;0.04053227286631997;0.034185551420323104;-1.0549098949860758;0.05060161109411637;0.10145814214336679;0.03850817436092193;0.0014828794926111653;0.04708477616188061;0.24525507123636253;0.5163826886486201;30.0
0.039427122353992865;2.0030118083215283;0.0015544979771167236;0.04977312123993068;0.03542236798658241;1.7865882234421975;0.0012547441537768581;0.022942795962068024;0.03420731872683966;-1.0722806991838039;0.05060161109411637;0.10145814214336679;0.03903920583975943;0.0015240595925991066;0.04894544935562626;0.18392248190040733;0.5314691067752622;30.0
0.03905784212247678;2.022190080422073;0.0015255150312643217;0.04977312123993068;0.03237976079819656;2.67123234541406;0.0010484489093484266;0.015295197308045377;0.03264773371340907;-0.720005763688712;0.04091465279902105;0.10145814214336679;0.03971792790478767;0.001577513797049911;0.0504473791539433;0.15626354998629433;0.553372515261717;0.0
0.042511080068405795;1.4214066329740243;0.0018071919285824085;0.049900581217497735;0.032265223552020814;2.7097927709624474;0.0010410446508618788;0.015295197308045377;0.03101260501666713;-0.560723778958556;0.04091465279902105;0.10145814214336679;0.040317592280647824;0.001625508247308553;0.05272242995511274;0.11844960654410859;0.5719102255774811;0.0
0.045990032090564695;0.9031403175892794;0.0021150830516911707;0.049900581217497735;0.03226952603548934;2.7159255210896;0.0010413223105551243;0.015295197308045377;0.03077484859439059;-0.47829105146269374;0.0370908534720097;0.10145814214336679;0.04083469358271629;0.0016674721999943311;0.05272242995511274;0.09803477480337443;0.5824140118541364;0.0
0.0451957870134017;0.9995326779607;0.0020426591637607693;0.045566941980218205;0.04530224132389528;2.3248883633661284;0.0020522930689684453;0.022687876006933977;0.026560171244245475;-0.6144713152267596;0.03377689405526655;0.07953502600183529;0.043218618175941574;0.0018678489570378273;0.06033350842003356;-0.9930389241096969;0.5694372005451547;0.0
0.054383070111384615;0.3298661820748698;0.0029575183147397747;0.05793055980422148;0.044349123726240336;2.7378038075341755;0.001966844775285374;0.01644233710614873;0.02461237035113691;-0.42133676887166305;0.03173753441419385;0.07953502600183529;0.04325981789727029;0.001871411844504987;0.06033350842003356;-0.9974098383412721;0.5705230558359775;0.0
0.05360800953550549;0.691699716367919;0.0028738186863588476;0.06627918833486285;0.044826656217829226;2.7678492460582107;0.002009429107671448;0.01644233710614873;0.0288317498391666;-0.7128247214571489;0.03760069338227788;0.0943203833996124;0.04172388669248634;0.0017408827207274387;0.056489935806705985;-0.6723473848770002;0.5608760701962692;0.0
0.052000504131618906;-0.1278635309543707;0.002704052429942515;0.062455389007851476;0.04483790078856207;2.757611963969632;0.002010437347124935;0.01797185683695318;0.0346380585997796;-0.8607015256748727;0.05455287039869468;0.1101254206179259;0.03650313024014819;0.0013324785173292211;0.056489935806705985;-1.6072883670247065;0.5105346634568956;60.0
0.0549064314224515;-0.9264796973497735;0.00301471621154837;0.07239726725808088;0.0449621062237874;2.7081333908163403;0.0020215909960791417;0.019118996635056673;0.04014549688709102;-0.8199437079664158;0.05824920974813895;0.12338125828489849;0.03898861621975054;0.001520112194730995;0.06371944461214418;-1.7490541782777476;0.5293148631339929;60.0
0.04977363927675875;-0.862156204198649;0.002477415166852901;0.06271030896298554;0.043833744996164936;3.5371538444102497;0.0019213972003888143;0.011471397981034082;0.04393782426586844;-1.3451581815245068;0.07481900683185468;0.12338125828489849;0.03834431648520777;0.0014702866067177766;0.06371944461214418;-1.5965698162670627;0.527482119156678;60.0
0.049353227912068816;-0.8150339718764535;0.002435741105340608;0.06271030896298554;0.042260250926256945;4.43813054056927;0.0017859288083502012;0.010196798205363622;0.04654694373156022;-1.9058797335601223;0.0859080248801875;0.12338125828489849;0.03791950556774447;0.0014378889025022038;0.06371944461214418;-1.592848076009155;0.5015882672494703;60.0
0.05196116681830953;-0.9478419613128021;0.002699962857120191;0.07239726725808088;0.04229546388782468;4.418722871049251;0.0017889062654862819;0.011216478025899979;0.045939698327715266;-1.8713698061406132;0.0859080248801875;0.12338125828489849;0.035913011070117115;0.0012897443641223545;0.061444393810974746;-1.246323796504201;0.4553398422953291;60.0
0.05196116681830952;-0.9478419613128027;0.0026999628571201906;0.07239726725808088;0.04229583635500312;4.401659838167793;0.0017889377729692034;0.011216478025899979;0.04788226098881318;-1.943178311556369;0.09253594371367378;0.12338125828489849;0.03564244927450823;0.0012703841902858921;0.05964371948176547;-1.1843554362722204;0.4500072342873678;0.0
0.05052305146053837;-0.7920382368656905;0.0025525787288842084;0.05633731008463332;0.042251862562311594;4.407090877659629;0.0017852198899844678;0.011216478025899979;0.04873244222668442;-1.9903528927821754;0.0943203833996124;0.12338125828489849;0.03732591119296604;0.0013932236463851874;0.06006863032895885;-1.3390945399981484;0.47997498995097304;0.0
0.050760019247431835;-0.8901345463098664;0.0025765795539996503;0.05939634954624237;0.0413101676514155;5.347007335596677;0.0017065299513880556;0.010451718160497725;0.05073563094485584;-1.8091288262504488;0.0943203833996124;0.13969613541348008;0.037268493728722166;0.0013889406248078036;0.0598796661367518;-1.3285576316349588;0.47884880613957964;0.0
0.05060530312502318;-0.8115318825059009;0.0025608967043754807;0.05939634954624237;0.04142878868996894;5.287886993866326;0.0017163445323180983;0.01147139798103397;0.054925261787446174;-1.759158417494534;0.0968695829509533;0.14683389415723458;0.03349076833894028;0.001121631563932565;0.0590003555079066;-1.5426822236567883;0.41576578416308463;0.0
0.04778735036247984;-0.5947898411155967;0.0022836308546664015;0.053788110533292424;0.026560171244245895;9.874275054490308;0.0007054426965236666;0.01147139798103397;0.056183196568540025;-1.855088451271347;0.1042622616498418;0.14683389415723458;0.032187326938132935;0.0010360240154222583;0.045681067312565805;-1.263244544094153;0.4362556685637287;0.0
0.04557062463876647;0.27960104266622793;0.002076681829967349;0.03696339349444262;0.02681841196457794;9.63791576175924;0.0007192272203018172;0.012236157846436224;0.060304355897334905;-2.0508230305769706;0.11420413990007122;0.14683389415723458;0.03229221021550468;0.0010427868406023449;0.045681067312565805;-1.2782499394878926;0.43852452265839664;0.0
0.046176412050319054;0.27948264172505777;0.0021322610298408506;0.03696339349444262;0.008698915328303771;-1.50541523919829;7.56711278889983e-05;0.014020597532374945;0.06380867185311342;-1.808459287549965;0.12720505761190973;0.1672274905679616;0.030466006435412932;0.0009281775481226221;0.0379631377066774;-0.577075835809684;0.42868391314882903;0.0
0.0375348239170947;1.7688367257465403;0.0014088630064873044;0.03479657387580287;0.011026220136819496;0.07912474610462507;0.00012157753050560374;0.01274599775670443;0.06310111153800757;-1.2220687515121411;0.1004384623228305;0.1672274905679616;0.02627549354349213;0.0006904015609540965;0.030002904383216643;0.7525742511293465;0.3915989581508941;0.0
0.027018563608396384;-0.7557673612911515;0.0007300027794609615;0.03479657387580287;0.011567981138496082;-0.4836654382914718;0.00013381818762060111;0.01363821759967368;0.057288816238420505;-0.15656487585657336;0.055827470174365235;0.16110941164474352;0.0190215655709958;0.00036181995677169284;0.02678183178157286;-1.1644446731477773;0.30373821628176817;0.0
0.026821055236044687;-0.714600971117544;0.0007193690039749601;0.032502294279596125;0.012207397270926257;-1.023147178374461;0.00014902054813021782;0.0179718568369531;0.04723226998838621;1.8737336725790088;0.04333639237279498;0.1529519730804526;0.016787632883030403;0.00028182461781540367;0.023908974890954927;-0.9142663074788238;0.2798944573580982;0.0
0.030463023522618052;-1.2547229089571448;0.0009279958021395807;0.0388752931579483;0.012660350440436048;-1.2495347917104804;0.00016028447327464922;0.02103089629856217;0.032778600871690315;2.648334701391467;0.04308147241766091;0.11114510043846221;0.01809518160736155;0.0003274355974033957;0.023908974890954927;-0.3662923126374564;0.2982624876185642;0.0
0.028212270158109787;-0.5915617823608437;0.0007959321874741721;0.038620373202814175;0.012797111007468585;-1.1338488546466294;0.00016376605013747363;0.02103089629856217;0.020335383853612186;-0.6871161626521598;0.02957071479555423;0.05812174977057201;0.017456795869597332;0.00030473972203279043;0.022296029079137795;0.21945681374851725;0.29315590672127234;30.0
0.03331593486623427;0.23987532165565173;0.0011099515160111644;0.038620373202814175;0.012692041368083676;-1.1251956868726873;0.00016108791408914736;0.02103089629856217;0.018464414310306362;0.13120505617151884;0.027021515244213333;0.05812174977057201;0.019423152510739755;0.00037725885345545605;0.02422497916948429;-0.7047411358788855;0.31069124776464413;30.0
0.04782796412075757;1.1482900574585213;0.0022875141519364734;0.048562251453043576;0.012692041368083676;-1.1251956868726867;0.00016108791408914736;0.02103089629856217;0.01734523212720187;-0.5495349506677882;0.027021515244213333;0.052003670847353904;0.0255662535258811;0.0006536333193496278;0.029578017844346202;1.9592202335805837;0.36002967617445003;30.0
0.05836558739742716;-0.17714446387352167;0.003406541792246708;0.07430916692158654;0.013398499602500887;-1.037720658344293;0.00017951979159821642;0.022305496074232573;0.017957702740088604;-1.0011048518105397;0.03186499439176096;0.052003670847353904;0.03375196625149295;0.0011391952258419193;0.03398149754507323;0.9985004346031202;0.42233065354553134;30.0
0.057552336211014236;-0.5326159654647218;0.0033122714033456207;0.07507392678698885;0.012886739913896949;-0.20265124556352135;0.00016606806560842476;0.013510757622106517;0.0282083959896939;2.169526229500241;0.036453553584174556;0.09483022330988061;0.03265794449163176;0.001066541338418501;0.02939986357212765;1.2130824439576107;0.40047098190983615;30.0
0.059135968671191454;-0.6134656223952245;0.0034970627906801372;0.07736820638319561;0.012522174956033333;-0.3448830773853097;0.0001568048656295084;0.01453043744264304;0.037771971641029196;0.9393073602558887;0.03874783318038133;0.11318446007953491;0.03253426835139843;0.0010584786171608056;0.02939986357212765;1.2341279536400678;0.3984876559237298;30.0
0.06142633287934453;-0.7233650370595089;0.0037731943710040423;0.0811920057102069;0.013644695547466935;-0.48407385654843693;0.000186177716583064;0.015805037218313445;0.03786309685617104;0.4857602502787965;0.04639543183440403;0.11318446007953491;0.032963520407216534;0.001086593677636981;0.02939986357212765;1.139332324656605;0.40570340066853866;30.0
0.06268920338995947;-0.747846232473572;0.003929936221667706;0.0811920057102069;0.015588756810685533;-0.26809556255703154;0.00024300933890269457;0.015805037218313445;0.03668142661023485;0.17763327575449164;0.04282655246252676;0.1121647802589986;0.03511700903998775;0.0012332043239145813;0.035163687161483624;0.8198526167504263;0.44970340070133186;30.0
0.0631159488825783;-1.3029966345375703;0.003983623003348236;0.0938105434893443;0.01493160596873241;-0.5799438462983927;0.00022295285680548537;0.01656979708371553;0.035244609718077045;0.4173818483438784;0.04027735291118588;0.1121647802589986;0.03613888705324457;0.0013060191574471682;0.042190050339439004;-0.097407459746066;0.44566269333024466;30.0
0.060557485962589384;-1.1663041601668895;0.0036672091061092107;0.0912613439380034;0.013485811027738237;-0.19241106904119773;0.00018186709907586624;0.0165697970837152;0.03501759344887322;-0.48116226078566343;0.04231671255225852;0.11114510043846221;0.03670904758330144;0.0013475541744730893;0.04361524504711899;-0.15416927913047845;0.4594521962108592;0.0
0.0588743693390437;-0.9810621402966212;0.0034661913650701286;0.0912613439380034;0.011504481286209773;-0.9657947622948907;0.0001323530896647509;0.0165697970837152;0.033344560095247534;-0.22630716647671914;0.031610074436626875;0.11114510043846221;0.038307418209094626;0.0014674582898464748;0.05258676432684789;-0.34309686128423145;0.49051119874543936;0.0
0.0613760931634173;-1.1053184969207388;0.0037670248120044796;0.09355562353421022;0.012706927397455471;-1.0675254687977087;0.00016146600388420448;0.018609156724788023;0.02992921214228386;-0.09682209730993097;0.03186499439176098;0.1009483022330987;0.04170211399148757;0.0017390663113590237;0.05223637870934722;-0.15902506288340418;0.582512397699591;30.0
0.06477957267161487;-1.0724988292372006;0.0041963930355170325;0.09355562353421022;0.013027170831990191;-1.4504653860154124;0.00016970717988585603;0.020521056388294046;0.026953070951575946;-0.01026569074788881;0.030080554705822327;0.0917711838482715;0.04184435498330702;0.001750950043969011;0.05223637870934722;-0.15364733642613324;0.5883834212898454;0.0
0.0662603340550665;-0.8506936615372398;0.004390431869089005;0.08973182420719891;0.012836213691658204;-1.364570103553822;0.0001647683819379135;0.018991536657489427;0.02613870483175625;0.19778725019354826;0.027786275109615552;0.0917711838482715;0.04224355642817956;0.001784518059700791;0.039432608220194496;0.2882614784642379;0.630518091420326;30.0
0.059804710778628714;0.4748848471551652;0.0035766034313154294;0.08029978586723757;0.012689015509468266;-1.2731733387029294;0.0001610111145995262;0.018991536657489427;0.02678170965111979;-0.45115410466811895;0.03925767309064945;0.0917711838482715;0.03770965884692693;0.0014220183703516145;0.021554052620127287;3.1699620537363367;0.6423688315373067;0.0
0.043821074400518994;-0.27601102390906046;0.0019202865616158213;0.05761190986030373;0.012829768807448386;-1.3679367050922921;0.0001646029676525756;0.018991536657489427;0.02622534971782783;-0.5151425777108494;0.03798307331497895;0.0917711838482715;0.023424836863358205;0.0005487229820749455;0.02055593199516613;3.5415271160409287;0.48200535778361564;0.0
0.03938497682099877;1.717027591910553;0.0015511763991906105;0.030590394616090477;0.013698277794632174;-1.5405662639895878;0.00018764281453891293;0.022305496074232767;0.025244682215907397;-0.14911144645441318;0.03670847353930855;0.0917711838482715;0.024493095822020413;0.0005999117429466739;0.016039403845527246;4.439258816921193;0.559185656158253;0.0
0.04178501126114673;0.10527181722478897;0.0017459871660941593;0.05684714999490147;0.013380630467259283;-1.133166386175282;0.00017904127170134738;0.019373916590190776;0.023174232379880724;-0.7175695429789622;0.03670847353930855;0.0785153461812989;0.025127964544790424;0.0006314146021642446;0.024093413274225164;3.1110324819249726;0.5528577434307002;0.0
0.04100868079973223;-0.21298181357874202;0.001681711900934327;0.0532782706230243;0.013196878867691289;-1.1538938415115443;0.00017415761184851693;0.018991536657489705;0.025863175799254297;-0.4668545293467345;0.03262975425716315;0.0887121443866625;0.025211483721924176;0.0006356189114608478;0.024093413274225164;2.86345518647547;0.5485012406598512;0.0
0.04213932074798206;-0.780969351004744;0.001775722353101311;0.06627918833486279;0.01206011683344372;-0.9333398021989;0.00014544641803631257;0.01695217701641688;0.03293634219197318;0.45107778620139116;0.0316100744366268;0.1223615784643621;0.028064941837525555;0.0007876409603436923;0.025856387639986496;0.47431909318313753;0.5594505756975132;0.0
0.0411382249652444;-1.0046888660107685;0.0016923535532910575;0.06627918833486279;0.01477409880810481;0.9756369141247092;0.00021827399559164399;0.01695217701641688;0.02926654956124119;0.1506685597484976;0.036453553584174445;0.1009483022330987;0.027807375781645764;0.0007732501478616593;0.025856387639986496;0.38248246264036034;0.5555772981669651;0.0
0.039320424941365006;-0.40984250476922424;0.0015460958175695192;0.0532782706230243;0.019698237480321717;1.284810174670989;0.00038802055983115126;0.022050576119098553;0.02939116634736314;0.13741594117426972;0.036453553584174445;0.1009483022330987;0.028308847802941992;0.0008013908639301337;0.02675639978129636;0.5189234586369492;0.5932850929782862;0.0
0.040297588882877336;-0.7533209826516756;0.0016238956697733988;0.06245538900785144;0.02849480202668111;1.7999486698391782;0.0008119537425397498;0.026129295401244035;0.02641285078986237;0.7163568311973828;0.029060874885285973;0.0999286224125624;0.029195011875501862;0.0008523487184106948;0.03456890682356323;-0.37891517040906897;0.5737738253685564;0.0
0.04169584539560214;-1.0965023881252585;0.0017385435232539562;0.06627918833486279;0.028281984068296195;2.256935387145423;0.0007998706228393598;0.01822677679208734;0.025588066080121423;1.08992649223163;0.027531355154481473;0.0999286224125624;0.027175024467964787;0.000738481954834485;0.033380821693947044;-0.10963490582727155;0.49934144394562174;0.0
0.03872099020301316;-1.356615026750897;0.0014993150823018409;0.0560823901294993;0.02934597338345168;0.7488316637037788;0.0008611861538222544;0.02804119506474964;0.027973661781952416;0.49495471213006176;0.027531355154481473;0.0999286224125624;0.02819013949032933;0.000794683964484225;0.04383826203734796;-0.6939114425555482;0.5001382229682809;0.0
0.034584036189874316;-0.8847463704590116;0.0011960555591825366;0.04639543183440398;0.02983787975111012;0.20346394501388987;0.0008902990680417072;0.03721831344957677;0.028267497736506227;0.49509582508166355;0.027531355154481473;0.10196798205363511;0.027791745955404668;0.0007723811432497517;0.04383826203734796;-0.5655715899188333;0.4845374295095699;0.0
0.029753415730718987;-0.2339935097070635;0.000885265747644996;0.026766595289079202;0.03179740755078147;-0.686737685892584;0.0010110751269504943;0.045885591924135855;0.031561039692544354;-0.4202845308719096;0.03594371367390643;0.10196798205363511;0.028255133348047787;0.0007983525605159621;0.03515018815949622;-0.6607649675616535;0.454187152493606;60.0
0.02431084870261086;0.5007564294336526;0.0005910173646412361;0.013765677577240697;0.03140407175710567;-0.5830032935018507;0.0009862157229254419;0.043336392372795046;0.03617357360178586;-0.8296267251729786;0.0441011522381972;0.11216478025899859;0.028484646208581384;0.0008113750696280498;0.037695238492174286;-0.28526066989720233;0.42022885115103564;0.0
0.01959384289511139;1.6611716168244028;0.00038391867939830716;0.011216478025899826;0.03159611679253152;-0.6936500695049599;0.0009983145963672925;0.043336392372795046;0.04548842527012561;-0.18950307986049905;0.06347506882838791;0.153971652900989;0.028402846092133855;0.0008067216661334435;0.03590110175907942;-0.02172941130410714;0.36511340223716016;0.0
0.024298371253954402;0.44668987365338225;0.0005904108455949976;0.014530437442642999;0.03008605324698885;-0.21768167070793096;0.0009051705999806485;0.04129703273172228;0.04958933287219334;-0.9543144992860916;0.07137758743754466;0.153971652900989;0.029096637375268474;0.0008466143065478702;0.04366873289030906;-0.33817763811808843;0.3576191071816525;30.0
0.03275540320396983;0.7881274792973891;0.0010729164390546372;0.020648516365861097;0.029387414089673467;0.1596685391785166;0.0008636201068779385;0.037473233404711065;0.05364429469015379;-1.3799585299280235;0.0846334251045172;0.153971652900989;0.02945352724904328;0.0008675102674101349;0.03488492524378549;-0.10068111757112269;0.3388745639085607;0.0
0.03650826171097301;-0.6700297061805335;0.001332853173156898;0.048689711430610724;0.028522742498661782;0.6290726083965776;0.0008135468396449669;0.032629754257163385;0.05513540463351616;-1.5450572123311344;0.09572244315285003;0.153971652900989;0.029709043851478413;0.0008826272865690674;0.03488492524378549;-0.14257005166736197;0.3383633853973344;30.0
0.03369984191408378;-1.1450877563189346;0.0011356793450342378;0.050729071071683375;0.022594421189889205;-0.13245413269734677;0.0005105078689061144;0.031864994391761076;0.05602709510025084;-1.5846787860782023;0.09572244315285003;0.153971652900989;0.0290699308597693;0.0008450608801917676;0.03035792102412206;0.013670544205275014;0.3372740722041245;0.0
0.035248967532937416;-1.500384294833446;0.0012424897121380762;0.054552870398694726;0.022805397249647866;0.4555382349043725;0.0005200861437142465;0.02472723564800644;0.055158900773781286;-1.0428878799835484;0.08463342510451718;0.153971652900989;0.02317068474740883;0.0005368806316638042;0.02500198851886884;-0.18403377661142284;0.2508463857134952;0.0
0.0354352908835141;-1.6533835627668465;0.0012556598399992578;0.054552870398694726;0.016783232624202324;0.21896875516117184;0.00028167689731808926;0.02217803609666552;0.054073119865462226;-0.309492117726447;0.05251351075762208;0.153971652900989;0.022636571199861823;0.0005124143556864138;0.01828773439400154;0.19664222409441423;0.2424305322023172;0.0
0.03343102502453309;-1.311208512704449;0.0011176334341909575;0.048689711430610745;0.01653428415260268;-0.17093851796128345;0.0002733825524390081;0.02141327623126338;0.05213293923881644;1.496373166431578;0.028805954930151895;0.153971652900989;0.021996542406281787;0.0004838478778313529;0.021446585639646396;0.7463789594256834;0.22176645203942583;0.0
0.028654580871719793;-1.4203570978832143;0.0008210850049339298;0.046140511879269853;0.015573843569575335;0.8780196170032847;0.00024254460352960303;0.02064851636586107;0.040686524877488243;6.735107885760158;0.024472315692872393;0.153971652900989;0.02159414840001923;0.0004663072451220531;0.021446585639646396;1.0969941374842915;0.216621686694267;0.0
0.035026702349489756;-0.10045802490346886;0.0012268698774797514;0.04410115223819712;0.01626137934099144;1.0575266435838961;0.00026443245807162316;0.019118996635056534;0.01917094004452371;-0.8741040591334506;0.024472315692872393;0.059141429591108394;0.015714436219595014;0.00024694350569971963;0.018866416148021745;-0.3915487586327332;0.15161451513262297;0.0
0.0342584864338305;-0.3604243251902087;0.0011736438927369482;0.043336392372794796;0.011355627746154427;-1.0937029690185398;0.00012895028150923226;0.017334556949117896;0.020220050746058888;-0.5227984485315397;0.024472315692872393;0.0660242683797288;0.01776854009258354;0.0003157210170217487;0.021446585639646396;-0.3581858828416071;0.17399193389057308;0.0
0.029698398560767756;0.14857532476131735;0.0008819948770742123;0.02676659528907917;0.010206353226862329;-1.1196252815116894;0.00010416964619148307;0.015805037218313445;0.020545152400920436;-0.6857596163147592;0.02574691546854284;0.0660242683797288;0.019021578223313795;0.00036182043810564557;0.022026981115164837;-0.7384948549623194;0.1894841202894461;0.0
0.026556612201599362;0.3339999385171129;0.0007052536516261361;0.02549199551340875;0.010378547009102472;-0.6621189135176268;0.00010771423802014989;0.014020597532374723;0.019138337594355934;-0.4699806329403228;0.025746915468542853;0.0660242683797288;0.01732644311053809;0.0003002056308627129;0.01977078287663714;-0.381575949842257;0.1812449609166185;0.0
0.030142257466504164;-0.8458990431833217;0.000908555685177026;0.037855613337412;0.014721221932537807;0.9451654049076031;0.00021671437518703217;0.017334556949117896;0.0203370663269864;-0.3448724567846979;0.026256755378811045;0.0660242683797288;0.01701855615678743;0.00028963125366172736;0.016862850151193834;0.12142699912726458;0.18017441553114708;0.0
0.03395780501379708;-0.5312358486347301;0.001153132521355062;0.040659732843886874;0.03581731893966581;7.344565776721399;0.0012828803360257434;0.019118996635056534;0.019276233071887038;0.09984067756722904;0.026256755378811045;0.0660242683797288;0.024818415186818876;0.0006159537323853218;0.016862850151193834;3.0172541502829606;0.25354254454157044;0.0
0.040314859626135284;-0.34682370854695754;0.001625287906674993;0.04193433261955733;0.03544926454094084;7.171535191313442;0.0012566503564936057;0.02141327623126338;0.019165790568563584;0.5907156521277601;0.01822677679208727;0.0660242683797288;0.024823612701901462;0.0006162117475740036;0.01723807177292569;2.995071686056307;0.25348767784819853;0.0
0.044072788909708796;-0.8308657246080163;0.0019424107222797506;0.050601611094116344;0.03878631125750157;5.30324894064885;0.0015043779409637933;0.024854695625573686;0.019186226224969644;0.5506385590824329;0.018991536657489497;0.0660242683797288;0.025138573609360282;0.0006319478831132252;0.022320170996323913;1.8807644457868429;0.2506665578496324;0.0
0.04406260045681017;-0.6762671329383528;0.001941512759016488;0.0414244927092892;0.038336101716062825;5.280755995928262;0.001469656694784315;0.020266136433159998;0.02024982995965501;-0.048356316828212204;0.019501376567757675;0.0660242683797288;0.025496165905569187;0.0006500544758843087;0.0310569171607325;1.305042140913387;0.25179494504144273;30.0
0.044822944011779005;-0.6261994692600593;0.0020090963098830755;0.050601611094116344;0.03907302128852678;5.008125665361754;0.0015267009926136666;0.0286784949525849;0.020647073867169005;-0.4852345456052193;0.027148975221780378;0.0660242683797288;0.02517569125574812;0.0006338154302047524;0.0310569171607325;1.1569383643271256;0.24468250044421613;30.0
0.047475356261780954;-0.8179326783020473;0.002253909452183024;0.05926888956867532;0.039601652365400454;5.311700482699845;0.0015682908700700273;0.02625675537881081;0.01652718134560013;-0.6228707839695814;0.018226776792087243;0.052768430712756206;0.0239802342811614;0.0005750516361793884;0.02732988125718598;2.4665390434532695;0.23657963779769;0.0
0.04793010803415646;-0.8090785764548507;0.0022972952561659096;0.05926888956867532;0.04034942773960427;5.378669023399461;0.0016280763189135462;0.026511675333944967;0.016960219404387633;-0.7486864727724556;0.020011216478025923;0.052768430712756206;0.024298383686438246;0.0005904114497733683;0.03098961447734007;2.2951691674124164;0.24068393282817993;0.0
0.04327090889920117;0.2430314840543733;0.0018723715569629671;0.050983991026817554;0.04055818411833973;5.306103903416579;0.0016449662989771454;0.027786275109615594;0.01746813370873922;-0.9042057021093052;0.022942795962067913;0.052768430712756206;0.02429684774847721;0.0005903368105126822;0.03098961447734007;2.26690469314608;0.24042001505121238;0.0
0.0375337746273939;3.050117150819839;0.0014087842377799983;0.039512593045783626;0.04063744212378356;4.783512218016364;0.0016514017023638585;0.03084531457122469;0.016116873048385556;-0.6865064895860712;0.020011216478025923;0.052003670847353904;0.02278574810704466;0.0005191903167976893;0.022037513106579518;3.064931283921241;0.22151406280814198;0.0
0.0407213577876451;1.4355194898268944;0.0016582289800694046;0.039512593045783626;0.04068151519481763;4.907125435656293;0.0016549856785461779;0.03084531457122469;0.022701498894529697;1.1836535443113336;0.022942795962067913;0.08463342510451721;0.028439609841882187;0.0008088114079584821;0.022037513106579518;2.3423548447757536;0.2853074423811343;0.0
0.04094416382656462;1.2475107837509818;0.001676424551456563;0.04078719282145408;0.040224417590153924;4.9508188030742994;0.0016180037704670842;0.03084531457122469;0.022901903661557203;1.3551415481441647;0.025237075558274744;0.08463342510451721;0.02751253954381892;0.0007569398321501998;0.01932954195137916;3.145883308286554;0.272120013795333;0.0
0.030258843461209405;1.7063606715168096;0.0009155976076099751;0.032374834302029205;0.04377179498781812;4.875831523568478;0.0019159700364555798;0.02982563475068814;0.02202187950942228;2.6838633266841536;0.02115835627612929;0.08463342510451721;0.02829627158854806;0.0008006789858128722;0.021350561766544568;2.5915314695968266;0.27218773549802855;0.0
0.030542817621348393;1.2111867085036123;0.0009328637082509499;0.039257673090649606;0.023511505927667584;0.905646878407258;0.000552790910986748;0.021413276231263267;0.029420096249607047;1.450519937339292;0.021158356276129303;0.10400734169470781;0.029485486983211715;0.0008693939426371475;0.022181087015971643;1.1067182865242033;0.31645511802766313;0.0
0.03055802969756287;0.3833343370638627;0.0009337931789971342;0.04078719282145408;0.032606933837986456;2.3783825373124867;0.001063212134314826;0.021413276231263267;0.04769751505519985;2.72190597788853;0.033649434077699554;0.1682471703884979;0.02941397599020943;0.0008651819835526168;0.02554837492532118;0.8735486259225758;0.3194722185516602;0.0
0.030158193967910776;0.1787933756790791;0.0009095166634061298;0.0369633934944428;0.030915683631828134;3.28261705238705;0.0009557794944232861;0.021413276231263267;0.04940849903363532;0.9400420112746095;0.0660242683797288;0.1682471703884979;0.03375145005147389;0.0011391603805771368;0.03695903339880481;-0.6175508806278951;0.3989338221178851;0.0
0.03262791351901349;-0.23701604192863468;0.0010645807406042236;0.05455287039869488;0.03198019536574855;3.1901054595276275;0.001022732895631445;0.01962883654532438;0.04832921191097164;0.010664112797818209;0.07571122667482405;0.1549913327215254;0.0323909552746049;0.001049173983601455;0.03163745193741542;-0.5084482954948019;0.3936386588648016;0.0
0.03400578694630422;-0.47260437695460444;0.0011563935458374344;0.057611909860303935;0.03193915931389289;3.1790962080827323;0.0010201098976782312;0.01962883654532438;0.04551848060861566;0.25069611127390584;0.07367186703375138;0.1478535739777709;0.03144262752571584;0.0009886388257209033;0.025182454905976204;-0.40832474253706186;0.39118807580679593;30.0
0.03493829653458689;-0.5997843994646941;0.0012206845647387264;0.06003364943407776;0.0391744172982424;0.6201623988331296;0.0015346349706568333;0.024472315692872088;0.043751995667567885;0.1337979558392179;0.06423982869379008;0.1478535739777709;0.030896594656331572;0.0009545995613576566;0.025182454905976204;-0.3194489249812067;0.38717674610813574;30.0
0.03638612840099778;-0.6891805210002063;0.0013239503400138972;0.0628377689405527;0.04125065761015186;0.23592466190746741;0.00170161675326998;0.029570714795553926;0.048379629048988154;-0.720303294954679;0.06271030896298563;0.1478535739777709;0.0315662603586441;0.0009964287930297059;0.02808268990067697;-0.3534125625040758;0.3871908034118251;30.0
0.04489399366865938;0.21293854233895596;0.0020154706675216284;0.06347506882838792;0.04618323483147631;-0.18448441135274532;0.0021328911794992866;0.0471601916998062;0.048991601667969134;-0.9275939740909817;0.05965126950137653;0.1478535739777709;0.03877463148909987;0.0015034720471154952;0.029074820914438887;0.13501852377032592;0.4484038445993423;30.0
0.045484896955731886;-0.017797388103966544;0.0020688758510735475;0.06347506882838792;0.045647305409804044;0.29064127443848015;0.0020836764911759255;0.042316712552258495;0.04481848456489229;-0.20111219538952632;0.03696339349444265;0.1478535739777709;0.03871201296854825;0.001498619948077048;0.031644264676910894;0.17096560749424788;0.45367618267951915;30.0
0.03798273632350888;0.26270840263815104;0.001442688258621201;0.051748750892219905;0.045703869840255866;0.25323802911575577;0.0020888437183750495;0.04333639237279491;0.04524658927387409;-0.35724751203325567;0.04537575201386758;0.1478535739777709;0.036119853277067786;0.0013046438007569042;0.021343597246815768;1.0467037502400829;0.4070983153233097;0.0
0.03498248515018213;0.973306245552474;0.0012237742672827133;0.017589476904252027;0.04557786214700098;0.34707523636052995;0.0020773415178910247;0.03913021311308246;0.03822622394174254;0.3060452197625731;0.026766595289079174;0.1376567757724074;0.03612509679667344;0.0013050226185690257;0.021343597246815768;1.0475878672496342;0.41032472790496954;0.0
0.035788305511306386;0.591833696380625;0.0012808028113706032;0.019118996635056534;0.04371802346186146;0.1404969869850883;0.0019112655754118689;0.03772815335984511;0.030579932096413687;0.12534744559074196;0.019246456612623575;0.10196798205363511;0.03413828771058183;0.0011654226878104626;0.015329734918584706;2.108948408721992;0.3998964715344326;60.0
0.034031633184847115;1.3701767102248406;0.0011581520572279873;0.013255837666972511;0.04446566072178707;-0.2605964889677681;0.0019771949834250773;0.05302335066789021;0.031252301847002756;-0.44545433438724635;0.03683593351687557;0.10196798205363511;0.03089054295851197;0.0009542256442716736;0.015329734918584706;3.404299131723672;0.3522606374799784;60.0
0.03520066624344708;1.345702663714327;0.001239086903982555;0.014020597532374696;0.03818045136244455;0.9706978555867756;0.0014577468662399938;0.03772815335984511;0.02581207356085074;0.27672365458372433;0.018226776792087226;0.0917711838482716;0.03567332048320215;0.0012725857942972505;0.021343597246815768;1.0246479451111294;0.38425386590387406;60.0
0.03334893000026563;1.1577703197506373;0.0011121511321626166;0.014020597532374696;0.03809742592581258;0.9459866911211451;0.001451413862172776;0.03772815335984511;0.029622711907552873;-0.259536932803044;0.025746915468542825;0.1009483022330987;0.03095864580673274;0.0009584377501867307;0.021343597246815768;1.048392981386632;0.3235159733469408;60.0
0.03762780567669105;0.40199858055275905;0.0014158517600428235;0.02013867645559282;0.03748400460268098;1.052043898448941;0.0014050506010538089;0.03849291322524723;0.030363569708099728;-0.3902542624466491;0.037218313449576726;0.1009483022330987;0.03462948570885886;0.0011992012804600601;0.026512583661303907;0.5412090786241631;0.37676974940212826;60.0
0.03895250926678895;0.09818067275699352;0.0015172979781792788;0.0361986336290404;0.04277656467975529;0.0011469790280431071;0.0018298344858012877;0.04996431120628114;0.034564984486512594;-0.471414983241269;0.04308147241766072;0.1152238197206076;0.034819835978733456;0.0012124209775859008;0.02863848975620925;0.207687546937203;0.37103769984672114;60.0
0.040257375804758216;-0.05049332725395238;0.001620656306685532;0.043718772305495944;0.0349218347400605;-0.5024506283377517;0.0012195345416120963;0.039767513000917715;0.03509418623605617;-0.8031966427859711;0.043463852350361876;0.1152238197206076;0.03720685781963859;0.001384350268810801;0.04304059257356646;0.03714065468902466;0.4177453321264326;60.0
0.04084747450263321;0.010425827253184;0.00166851617324327;0.043718772305495944;0.033656075620360174;0.18000865071402863;0.0011327314261634026;0.03466911389823599;0.0331195926617711;-0.1966604911409206;0.05429795044356055;0.1152238197206076;0.03759218906672924;0.001413172678828717;0.03740419967257834;0.31462037713859053;0.4374937062989042;60.0
0.03533888086412859;2.3110329188641106;0.0012488365007290738;0.03683593351687563;0.027596046272344386;2.606497829016535;0.0007615417698653724;0.0282961150198838;0.035361163369933474;0.23042153743837604;0.037218313449576726;0.1233812582848984;0.02934114833625337;0.0008609029856900239;0.026211011448531385;2.140815080623967;0.3725300560753077;60.0
0.0350955329069069;2.8343234670244657;0.0012316964300197854;0.03454165392066888;0.0318514575842611;0.5768776936329408;0.001014515350241984;0.028551034975017847;0.03543570767269188;0.2872338234128828;0.037218313449576726;0.1233812582848984;0.02955344995185786;0.0008734064040569673;0.031481399494996246;1.7822353217134541;0.37127450534867146;60.0
0.03916825899021543;2.2917283211159365;0.0015341525123245916;0.027913735087182548;0.03296057755148345;0.39258505067421967;0.0010863996725273546;0.038237993270113124;0.034597101469614804;0.3802087253643233;0.034414193943101745;0.1233812582848984;0.034273430514219855;0.0011746680392130564;0.03623951381349382;1.0239171282172397;0.4604149204419113;60.0
0.038610040156140536;3.6004871510388146;0.0014907352008587847;0.02498215560314057;0.03354392985462671;0.38877192495159535;0.0011251952300921173;0.038237993270113124;0.0381549898229215;-0.6862367805379689;0.05429795044356055;0.1233812582848984;0.03460030699401755;0.00119718124408026;0.03979585347168257;1.1622380928623626;0.4809184072267861;60.0
0.03824023341016114;5.912295696322247;0.0014623154512636044;0.024217395737738324;0.04412202224819114;1.4786019423019279;0.001946752847269874;0.038237993270113124;0.038705933723832575;-0.9118497397496842;0.05429795044356055;0.1233812582848984;0.03451383963188786;0.0011912051261356732;0.0394219970500863;1.2258300422476642;0.48054893831365725;0.0
0.039182936789516266;6.086119524963076;0.0015353025354512275;0.024727235648006576;0.04393022691068142;1.581338829251039;0.0019298648364239584;0.037728153359844974;0.038705933723832575;-0.9118497397496861;0.05429795044356055;0.1233812582848984;0.036623022644713975;0.0013412457876352327;0.046360697871488984;0.7041185448029896;0.5286654031270718;0.0
0.018650961508583582;-0.7516467281132742;0.00034785836519466643;0.02192311614153163;0.04417804343889109;1.4866010909455092;0.001951699522088548;0.042316712552258495;0.03898495163115765;-0.9965025731349784;0.05429795044356055;0.1233812582848984;0.026752091746539624;0.0007156744128152735;0.033574388066139035;-0.6456786946552686;0.43888583310977847;30.0
0.030641593256859632;2.8680848608022442;0.0009389072373188256;0.03288467421229738;0.04613408828576316;0.9098138754356051;0.00212835410195859;0.049709391251146984;0.038006059444981984;-0.7580039950488703;0.05353319057815832;0.1233812582848984;0.02811399867931883;0.0007903969217407411;0.04572953408921311;-1.1535883974936558;0.4431169189197266;0.0
0.032711005391995056;0.883408575840378;0.0010700098737551295;0.039512593045783605;0.048469175169295595;0.722012655299083;0.0023492609415918606;0.06678902824513092;0.036628133043874515;0.017953197422737176;0.04792495156520848;0.1233812582848984;0.027541932107366007;0.0007585580242067586;0.04211718475151284;-0.8932039233425308;0.4142657156607999;0.0
0.034627056131277104;-0.4839814832028291;0.001199033016318615;0.04601305190170278;0.046732319343468276;0.9509467345836653;0.0021839096712198995;0.06551442846946051;0.03418128847329369;0.3176003816938773;0.04410115223819718;0.1142041399000712;0.024647846037167707;0.0006075163142719238;0.03269838086556075;-0.7838192725535155;0.3855766771003715;30.0
0.034277794663887695;-0.7270037746422892;0.0011749672070196476;0.052895890690323175;0.054089578153002055;-0.42100649850957805;0.0029256824647697173;0.07061282757214227;0.03654621501132449;-0.01565553762136397;0.04792495156520848;0.119302539002753;0.025849484468365415;0.0006681958472802648;0.037949933859369366;-0.4107907820211835;0.37853093345344635;30.0
0.04129624593424211;-0.02449043134056347;0.001705379928261408;0.05162129091465267;0.0542321768719639;-0.7154013701473421;0.0029411290082719758;0.07341694707861718;0.03515767605547986;1.5132305786760942;0.03849291322524722;0.119302539002753;0.027456339314758566;0.0007538505685671568;0.03858109764164524;-0.4470359127048697;0.3849076575605944;30.0
0.03922475344591401;0.4072669304503418;0.0015385812828927427;0.034414193943101724;0.05422467815828016;-0.7003068871574486;0.002940315721369065;0.07341694707861718;0.02848595483414538;-0.7866113902115596;0.03849291322524722;0.0841235851942489;0.030053656819855976;0.0009032222882456756;0.047188726505889324;-1.434200795308257;0.4453323946819845;30.0
0.03406321245768491;1.051852753657145;0.0011603024429373806;0.02536453553584162;0.05536577391389417;-1.0721659593131525;0.0030653689210844437;0.07112266748241047;0.02780589921335696;-0.7803251303667593;0.03849291322524722;0.0841235851942489;0.02961261939144438;0.0008769072272225476;0.04707471806985048;-1.385811340404635;0.44269610711267876;30.0
0.035079060694951675;0.20418831191432155;0.0012305404992401037;0.03734577342714375;0.055375731895720315;-1.0379520305164016;0.003066471682986696;0.07112266748241047;0.029407610326929116;-1.013219216952821;0.04104211277658809;0.0841235851942489;0.02658421235483009;0.0007067203465267008;0.04279221591208664;-1.3850607799102004;0.3847862940388476;30.0
0.03302912299084352;0.6779646352075632;0.001090922965544268;0.035561333741205126;0.055540206297764474;-1.0964492839494728;0.003084714515598237;0.07112266748241047;0.029891125013941207;-1.4645780346705761;0.052513510757622076;0.0841235851942489;0.029206744102523993;0.0008530339010703199;0.05007104373818397;-1.6847358426033743;0.4378623090515764;30.0
0.03264785434745165;0.7836730981855472;0.0010658823934924172;0.035561333741205126;0.049207755805296044;-0.46848868095889756;0.002421403231393647;0.05608239012949928;0.029967973690351486;-1.5120694156690924;0.052513510757622076;0.0841235851942489;0.030744767822038825;0.0009452407484310739;0.057194201874755636;-1.83894794604635;0.5070505101959487;30.0
0.04683014622023496;2.1553191677407715;0.0021930625950085866;0.035561333741205126;0.04901257896962376;-0.2795848574037532;0.002402232897253605;0.05608239012949928;0.031436505264212995;-1.7127061632680882;0.062455389007851456;0.0841235851942489;0.032303374188568434;0.0010435079839666694;0.0514584140276209;-1.487466020205831;0.4772848736662557;30.0
0.04867391539814773;1.4747563796910559;0.002369150040186043;0.035561333741205126;0.04838139961654791;-0.2317149590381689;0.0023407598288561022;0.04690527174467207;0.032298072671693503;-1.9418664386780955;0.062455389007851456;0.0841235851942489;0.03199541368426199;0.0010237064968270592;0.0514584140276209;-1.3696878346674937;0.4684346114237453;0.0
0.04995059377836295;0.46023968601408255;0.002495061818811032;0.037218313449576726;0.0457889295207548;0.22763209447638688;0.00209662606665665;0.03530641378607119;0.030856772030557936;-1.7548001249671796;0.05225859080248797;0.0841235851942489;0.031210990044895585;0.0009741258995825713;0.04622309433992865;-1.2452669860357706;0.47321795478316736;0.0
0.052782516416303084;-0.3532491290938594;0.0027859940392373048;0.07456408687672066;0.04032181957345842;0.9196797176505148;0.0016258491337145348;0.030972774548791937;0.030302317595384907;-1.3626856074086453;0.05072907107168345;0.0841235851942489;0.03097788131257737;0.0009596291306161301;0.04622309433992865;-1.1770982806475059;0.475938931760453;0.0
0.0532372096198437;-0.37552545308992713;0.0028342004881071786;0.07214234730294677;0.03438402520526032;1.236158042413018;0.0011822611893159772;0.03046293463852373;0.029332281074061144;-0.6389288128389504;0.032374834302029074;0.0841235851942489;0.0307550697034101;0.0009458743124616139;0.04622309433992865;-1.0896011993750443;0.48107379741079065;30.0
0.05395915810159642;-0.23751550923909878;0.002911590743033078;0.06653410828999687;0.027185100207981042;6.338810873551665;0.0007390296733179709;0.013000917711838672;0.02479856768675539;1.2014710190162305;0.0147853573977771;0.0780055062710308;0.02877004974450686;0.0008277157623013992;0.03058828010252293;-0.4632037752547079;0.4706712216794648;0.0
0.04269807210116968;-0.9846000027779976;0.0018231253611566847;0.06169062914244922;0.026777849129088666;8.420895794303942;0.0007170532039802347;0.006118078923218306;0.019268071489303075;5.502305000762437;0.010706638115631724;0.0769858264504944;0.02595184357848502;0.0006734981851221542;0.024375750861112197;0.627572524931882;0.4472740984039429;0.0
0.04169317691968101;-0.4193162073929721;0.0017383210016558215;0.06169062914244922;0.027135253803943063;8.269551699053434;0.0007363219990044064;0.008539818496991869;0.017747906457855865;7.056634782722496;0.006245538900785175;0.06933822779647181;0.024271990423003965;0.0005891295190943962;0.012375970597398457;1.418732083596998;0.40247242968824626;0.0
0.039545522059748955;0.788214154561118;0.0015638483149780912;0.02600183542367695;0.009721860516060212;6.309169967847669;9.451457189373056e-05;0.007392678698888433;0.021022924149851078;4.321809005309438;0.006245538900785175;0.0917711838482715;0.023192625946101504;0.0005378978982757808;0.011660456221406566;2.5083644542593713;0.39482694857616346;0.0
0.029666719976892155;1.5760969680987336;0.000880114274187332;0.012236157846436224;0.012939199641942718;1.6170604649958464;0.00016742288737405054;0.00777505863158956;0.038442592090055724;5.325884875739815;0.006245538900785175;0.16467829101662068;0.03225897884796909;0.0010406417163137172;0.009016381784137294;1.7121999872960751;0.4850153137014245;0.0
0.024984047330812713;5.742274141512044;0.0006242026210282898;0.009049658407260103;0.010248808281429975;6.804364909954379;0.00010503807118950762;0.007392678698888433;0.0402884741778312;3.1801362399735833;0.0138931375548078;0.16467829101662068;0.02965618617802975;0.000879489378625963;0.009335888793118134;2.300930646058556;0.4180254469121888;0.0
0.013135856661044835;5.986305954606125;0.00017255073021951595;0.008029978586723802;0.009727125537034375;7.872784358498674;9.461697121322627e-05;0.0049709391251148705;0.045310064967225;0.6406694815460602;0.04180687264199037;0.16467829101662068;0.027243003715713636;0.0007421812514543869;0.02426561203184338;0.731064615381996;0.3462858118323517;0.0
0.0071294773176639094;-0.2320555390117022;5.082944682308417e-05;0.007520138676455526;0.013183367682347687;2.094666781545407;0.00017380118344796942;0.0054807790353831876;0.03909760797122834;0.6149486160287773;0.04078719282145405;0.1147139798103396;0.025075422554624947;0.0006287768162929934;0.009449823751571856;3.513006811291392;0.3337728883891427;0.0
0.007343770467080792;-0.403076032880756;5.3930964673168034e-05;0.008667278474559031;0.015352254752777576;-0.38404374735049235;0.00023569172599418166;0.011726317936168379;0.038855222369809955;0.02308810636265169;0.04970939125114715;0.1147139798103396;0.0247898427365263;0.0006145363029017058;0.018302608703831713;2.542843525550687;0.3178683900252122;0.0
0.007354086920531174;-0.41063820940293;5.4082594434727686e-05;0.008667278474559031;0.015149989009719388;-0.451677895694606;0.0002295221669946182;0.013255837666972997;0.03798055876808359;-0.29845319813445725;0.05098399102681755;0.1147139798103396;0.024398655351828277;0.0005952943829772985;0.02281826063839601;2.1520537412071223;0.30519484159084664;0.0
0.012273758703769311;3.7043765444053873;0.00015064515271835292;0.010706638115631648;0.01567586574826802;-0.523079223569527;0.00024573276695772256;0.013893137554808116;0.036397843497526734;-0.08987720272161696;0.049836851228714174;0.1147139798103396;0.025608877975794298;0.0006558146311791222;0.023960229499075045;1.729950840699361;0.3260754476659918;0.0
0.02165196793041039;4.027106135231933;0.00046880771525952;0.014530437442642999;0.015477193407763996;-0.4946230447739266;0.00023954351578133333;0.012491077801570521;0.03422665582206808;0.038395955910930805;0.027403895176914397;0.1126746201692669;0.025468424070051926;0.0006486406246120003;0.02281826063839601;1.7709348843834039;0.3233379091564107;0.0
0.021783444322214966;2.7017462068577855;0.00047451844653903947;0.017462016926685052;0.016763509184438075;-0.5867367581922761;0.00028101524017673974;0.014785357397777449;0.031678123128760526;0.7130517559387429;0.018864076679922445;0.1126746201692669;0.025530736032606888;0.0006518184823666517;0.023733976679664495;1.7524703410135025;0.3245482290817988;0.0
0.021407573799096056;2.820196293038263;0.0004582842159637439;0.01618741715101458;0.017230641647053332;-1.26140593019519;0.00029689501156916873;0.02702151524421348;0.02799561653768331;1.6477075198581892;0.018864076679922445;0.1106352605281942;0.02526618059923782;0.0006383798820733016;0.02271958355695186;1.8135639297143662;0.31912796309424746;0.0
0.02497395646071217;0.07675267363323997;0.000623698501301547;0.02918833486285305;0.017821207250031768;-1.2930066609977389;0.0003175954278485849;0.027276435199347582;0.023652754055436064;2.4108132101863022;0.018864076679922445;0.0749464668094219;0.02620767172913515;0.0006868420574621098;0.02271958355695186;1.5197361170255685;0.33441383454032547;0.0
0.030896568803246177;-0.6795135133541547;0.0009545979638137249;0.041679412664423376;0.021706831418244827;-0.7037561155208374;0.0004711865302201008;0.034669113898236126;0.023716275825389384;2.386319495771027;0.018864076679922445;0.0749464668094219;0.02638074937400884;0.0006959439375342679;0.02423159949315229;1.4656305702209775;0.3378377207039338;0.0
0.02922598186396951;-0.8984109186032514;0.0008541580159130747;0.04129703273172222;0.02021884551688245;-0.10780930487266005;0.00040880171403555755;0.02141327623126346;0.016327183961968226;3.993986709980344;0.01504027735291115;0.0601611094116448;0.020329305988613853;0.000413280681978691;0.02146448214663315;0.4977213983557716;0.2907896147219343;0.0
0.036205133885067124;-0.4607905343626928;0.0013108117196356356;0.05480779035382888;0.02105643131376157;-0.53786325406478;0.00044337329967115876;0.032884674212297516;0.01649994797124585;3.3659451813151806;0.017589476904252;0.0601611094116448;0.02028869497342571;0.00041163114372470974;0.02063880264535633;0.5489797129418157;0.290590050793203;0.0
0.039402847483826095;-1.0835957109346603;0.0015525843898336604;0.058886509635974166;0.021986619421676387;-0.991750026773117;0.0004834114335936373;0.037218313449576934;0.009935042381503585;-1.092394799609875;0.015295197308045252;0.03059039461609061;0.015058997838106995;0.00022677341588811116;0.01303138166090654;-0.3305834734410313;0.22915742535186207;0.0
0.03889966943870272;-1.157324435317626;0.001513184282440342;0.054297950443560596;0.01976674722126418;-0.5466863659692927;0.0003907242957093552;0.02574691546854288;0.009784853791838324;-1.0524133859211013;0.015295197308045252;0.03059039461609061;0.015655670779915296;0.0002451000275690936;0.02101988665952336;-0.6142423448046574;0.24464145384289607;0.0
0.04018726747668452;-0.9927659166520079;0.001615016467242585;0.053278270623024225;0.016896195603770117;-0.0027341696891388287;0.00028548142588086066;0.020393596410727077;0.009694273809009587;-0.36611749644985075;0.01096155807076575;0.03059039461609061;0.013613504185392464;0.0001853274962056981;0.02035179149366998;-0.6918609048731873;0.21741718816290437;0.0
0.03594116602765247;-0.9071083726596315;0.0012917674154272797;0.0563373100846333;0.02214226873810635;0.49551023512263254;0.0004902800648705218;0.02574691546854288;0.009056156913648021;0.6192630064685704;0.009177118384827147;0.03059039461609061;0.011938825243481898;0.0001425355481944006;0.01979505676850111;-1.02672619681183;0.19417137607395388;0.0
