acc_X;acc_Z;acc;acc_X_std_ws4;acc_X_max_ws4;acc_Z_std_ws4;acc_Z_max_ws4;acc_std_ws4;acc_var_ws4;acc_max_ws4;acc_range_ws4;fb_tilt_max_ws4;fb_tilt_var_ws4;fb_tilt_range_ws4;tilt_max_ws4;tilt_var_ws4;tilt_range_ws4;acc_X_std_ws6;acc_X_max_ws6;acc_Z_std_ws6;acc_Z_max_ws6;acc_std_ws6;acc_var_ws6;acc_max_ws6;acc_range_ws6;fb_tilt_max_ws6;fb_tilt_var_ws6;fb_tilt_range_ws6;tilt_max_ws6;tilt_var_ws6;tilt_range_ws6;acc_X_std_ws10;acc_X_max_ws10;acc_Z_std_ws10;acc_Z_max_ws10;acc_std_ws10;acc_var_ws10;acc_max_ws10;acc_range_ws10;fb_tilt_max_ws10;fb_tilt_var_ws10;fb_tilt_range_ws10;tilt_max_ws10;tilt_var_ws10;tilt_range_ws10;class
2.080443622496195;-0.0224329560517997;3.613168013836031;1.3853926668985919;2.845004166009235;0.02612152229519628;-0.0224329560517997;1.3116843554625723;1.720515848365264;3.613168013836031;2.9626562427655614;0.01498929336188437;0.00016428001595263002;0.027531355154481463;-0.0356887937187723;0.0005548782817302939;0.0479249515652085;1.9403582912553206;4.704194698281514;0.024910258361745635;-0.0142755174875089;1.4868153710888778;2.2106199477061574;4.706466627460248;4.0559548563897785;0.01855817273376159;0.00016910617464912825;0.031100234526358683;-0.0356887937187723;0.0011121133231831153;0.0815743856429081;3.0087544633176355;4.799394656399288;0.05551844759122264;0.0922810237585398;1.4014376412891139;1.9640274624219947;4.823612231676662;4.173100460606192;0.0358927296828796;0.00044840819544200765;0.07392678698888544;0.040787192821454;0.0027539892632103763;0.1580503721831344;0.0
0.013823562094900321;-0.0836137452839808;1.9975534270389756;1.3853926668985919;2.845004166009235;0.02612152229519628;-0.0224329560517997;1.3116843554625723;1.720515848365264;3.613168013836031;2.9626562427655614;0.01498929336188437;0.00016428001595263002;0.027531355154481463;-0.0356887937187723;0.0005548782817302939;0.0479249515652085;1.9403582912553206;4.704194698281514;0.024910258361745635;-0.0142755174875089;1.4868153710888778;2.2106199477061574;4.706466627460248;4.0559548563897785;0.01855817273376159;0.00016910617464912825;0.031100234526358683;-0.0356887937187723;0.0011121133231831153;0.0815743856429081;3.0087544633176355;4.799394656399288;0.05551844759122264;0.0922810237585398;1.4014376412891139;1.9640274624219947;4.823612231676662;4.173100460606192;0.0358927296828796;0.00044840819544200765;0.07392678698888544;0.040787192821454;0.0027539892632103763;0.1580503721831344;30.0
2.845004166009235;-0.0530233506678902;3.094291475308094;1.3853926668985919;2.845004166009235;0.02612152229519628;-0.0224329560517997;1.3116843554625723;1.720515848365264;3.613168013836031;2.9626562427655614;0.01498929336188437;0.00016428001595263002;0.027531355154481463;-0.0356887937187723;0.0005548782817302939;0.0479249515652085;1.9403582912553206;4.704194698281514;0.024910258361745635;-0.0142755174875089;1.4868153710888778;2.2106199477061574;4.706466627460248;4.0559548563897785;0.01855817273376159;0.00016910617464912825;0.031100234526358683;-0.0356887937187723;0.0011121133231831153;0.0815743856429081;3.0087544633176355;4.799394656399288;0.05551844759122264;0.0922810237585398;1.4014376412891139;1.9640274624219947;4.823612231676662;4.173100460606192;0.0358927296828796;0.00044840819544200765;0.07392678698888544;0.040787192821454;0.0027539892632103763;0.1580503721831344;0.0
0.24757335665717894;-0.037728153359845;0.6505117710704695;2.2385730946463567;4.704194698281514;0.019320174693072716;-0.037728153359845;1.7170105818443222;2.9481253381653776;4.706466627460248;4.0559548563897785;0.01498929336188437;0.00017398432069244736;0.027531355154481463;-0.0356887937187723;0.0015023476775330369;0.0815743856429081;1.9403582912553206;4.704194698281514;0.024910258361745635;-0.0142755174875089;1.4868153710888778;2.2106199477061574;4.706466627460248;4.0559548563897785;0.01855817273376159;0.00016910617464912825;0.031100234526358683;-0.0356887937187723;0.0011121133231831153;0.0815743856429081;3.0087544633176355;4.799394656399288;0.05551844759122264;0.0922810237585398;1.4014376412891139;1.9640274624219947;4.823612231676662;4.173100460606192;0.0358927296828796;0.00044840819544200765;0.07392678698888544;0.040787192821454;0.0027539892632103763;0.1580503721831344;0.0
4.704194698281514;-0.0520036708473539;4.706466627460248;1.977239994809175;4.704194698281514;0.01805917926485873;-0.0142755174875089;1.788666402021025;3.1993274977188393;4.706466627460248;4.0559548563897785;0.01855817273376159;0.00019571069938449412;0.031100234526358683;-0.0397675130009177;0.0011606175177665977;0.0774956663607627;2.0112012291701222;4.704194698281514;0.022648984087437773;-0.0142755174875089;1.4972149502062915;2.241652607121228;4.706466627460248;4.0559548563897785;0.01855817273376159;0.0004435300493986877;0.05659223003976743;-0.0356887937187723;0.0012363284238527824;0.0815743856429081;3.0087544633176355;4.799394656399288;0.05551844759122264;0.0922810237585398;1.4014376412891139;1.9640274624219947;4.823612231676662;4.173100460606192;0.0358927296828796;0.00044840819544200765;0.07392678698888544;0.040787192821454;0.0027539892632103763;0.1580503721831344;0.0
4.107505739596681;-0.0142755174875089;4.1118674537753455;2.0056298597958295;4.704194698281514;0.0178055095413393;-0.0142755174875089;1.8116815116086753;3.282189899504695;4.706466627460248;4.0559548563897785;0.01855817273376159;0.0005876952944107023;0.05659223003976743;-0.0397675130009177;0.0012264681570725033;0.0774956663607627;1.7032050282984488;4.799394656399288;0.046570092080909745;0.0662791883348628;1.5439540250864525;2.383794031580658;4.823612231676662;4.173100460606192;0.0358927296828796;0.0006780189772323378;0.07392678698888544;-0.0397675130009177;0.0008524538549305631;0.0774956663607627;3.0087544633176355;4.799394656399288;0.05551844759122264;0.0922810237585398;1.4014376412891139;1.9640274624219947;4.823612231676662;4.173100460606192;0.0358927296828796;0.00044840819544200765;0.07392678698888544;0.040787192821454;0.0027539892632103763;0.1580503721831344;60.0
3.714618657329516;-0.0520036708473539;3.7353263585572893;0.5126866316306002;4.799394656399288;0.05576554887402633;0.0662791883348628;0.5117872815525927;0.26192622155899276;4.823612231676662;1.0882858731193723;0.0358927296828796;0.0009972039575943078;0.07392678698888544;-0.1040073416947078;4.670196656037325e-05;0.013255837666972609;2.678414706784359;4.799394656399288;0.04478704935269044;0.0662791883348628;1.7236194926616022;2.9708641554830386;4.823612231676662;4.173100460606192;0.0358927296828796;0.0006536542406891524;0.07392678698888544;-0.0071377587437544;0.002149538158100849;0.110125420617926;3.095179495468823;4.799394656399288;0.056157759741993114;0.0922810237585398;1.4154603746738628;2.003528072271872;4.823612231676662;4.173100460606192;0.0358927296828796;0.00045227836459419687;0.07392678698888544;0.040787192821454;0.0029151731438412536;0.1580503721831344;60.0
4.799394656399288;0.0662791883348628;4.823612231676662;2.9344671467412042;4.799394656399288;0.04934309214832251;0.0662791883348628;1.358748085599455;1.8461963601201834;4.823612231676662;3.163257920318081;0.0358927296828796;0.0010207715548195791;0.07392678698888544;-0.0071377587437544;0.002573287022034357;0.1080860609768533;3.86822475248242;4.799394656399288;0.06046774415258632;0.0922810237585398;1.1617088512701335;1.3495674551193733;4.823612231676662;3.163257920318081;0.0358927296828796;0.0007074438155327139;0.07392678698888544;0.040787192821454;0.004572668393402127;0.1580503721831344;3.5853089687952795;4.799394656399288;0.057706856357189903;0.0922810237585398;1.3510508475297505;1.8253383926108573;4.823612231676662;4.173100460606192;0.0358927296828796;0.0004889727668916345;0.07392678698888544;0.040787192821454;0.003933665919958537;0.1580503721831344;60.0
-1.5928295652498061;-0.0020393596410727;1.6603543113585806;4.317971208389107;4.799394656399288;0.06553955194876877;0.0922810237585398;1.3855603924023632;1.9197776009941905;4.823612231676662;3.163257920318081;0.0358927296828796;0.00099908849891655;0.07392678698888544;0.040787192821454;0.005732818025047337;0.1560110125420617;3.7714770207018864;4.799394656399288;0.058788543296719425;0.0922810237585398;1.0949245511971781;1.1988597728143418;4.823612231676662;3.163257920318081;0.0358927296828796;0.0007094886511743184;0.07392678698888544;0.040787192821454;0.004340631535426841;0.1560110125420617;3.9279832470605935;4.799394656399288;0.05937831885081462;0.0922810237585398;1.351487757970384;1.826519159943815;4.823612231676662;4.173100460606192;0.0358927296828796;0.000492923805249989;0.07392678698888544;0.040787192821454;0.004709594400369393;0.1580503721831344;60.0
-4.279038662187661;0.0922810237585398;4.296355458427699;4.377344398681355;4.799394656399288;0.06195533948816343;0.0922810237585398;1.3962535588458722;1.9495240005897638;4.823612231676662;3.163257920318081;0.0358927296828796;0.0005660338999021831;0.056592230039767544;0.040787192821454;0.005732818025047337;0.1560110125420617;4.2050130384255535;4.799394656399288;0.07247220844824359;0.0922810237585398;1.089773281395561;1.1876058048436486;4.823612231676662;3.163257920318081;0.0358927296828796;0.0006734440907121411;0.07392678698888544;0.040787192821454;0.00544706957324872;0.1560110125420617;4.119952197598543;4.799394656399288;0.06423985117350005;0.0922810237585398;0.897018228672109;0.8046417025700481;4.823612231676662;3.163257920318081;0.0358927296828796;0.0008360865052399246;0.09635974304068518;0.040787192821454;0.005196889131233099;0.1580503721831344;60.0
3.9607437643889636;-0.0428265524625267;3.96642477915802;3.8252516481751146;3.9607437643889636;0.07913023648640807;0.0922810237585398;1.2255926549240175;1.5020773558037017;4.296355458427699;2.636001147069118;0.004792495156520804;0.0001709300640667486;0.0270215152442137;0.040787192821454;0.00451689896710048;0.1447945345161618;4.181243149726889;4.799394656399288;0.07567536917083893;0.0922810237585398;1.0952976142107334;1.1996768636957242;4.823612231676662;3.163257920318081;0.0358927296828796;0.000498939896551492;0.058121749770572495;0.040787192821454;0.005225534159331166;0.1560110125420617;3.976642525650138;4.799394656399288;0.06557229718438227;0.0922810237585398;0.8553430427661424;0.7316117208084428;4.823612231676662;3.163257920318081;0.0358927296828796;0.000879478610719396;0.09635974304068518;0.040787192821454;0.004823527559112349;0.1560110125420617;60.0
-4.019416791737678;-0.0948302233098807;4.020570829005887;4.034071796295978;3.9607437643889636;0.08407297221992463;0.0922810237585398;0.14879779347558503;0.022140783343202856;4.296355458427699;0.3299306792696788;0.016008973182420783;0.0003598174241810609;0.03823799327011368;0.040787192821454;0.004992929772819754;0.1447945345161618;3.1668444645218785;3.9607437643889636;0.07276286637416012;0.0922810237585398;0.9860081450878095;0.972212062179503;4.296355458427699;2.636001147069118;0.016008973182420783;0.0007232912917551501;0.07647598654022636;0.040787192821454;0.0030845565843400863;0.1447945345161618;3.826580594259005;4.799394656399288;0.06582147547563862;0.0922810237585398;0.9021804044826974;0.8139294822325635;4.823612231676662;3.163257920318081;0.0358927296828796;0.0009405550786756242;0.09635974304068518;0.040787192821454;0.004470360183045408;0.1560110125420617;60.0
-4.01228802507724;-0.0734169470786173;4.023195444039705;3.865806333087011;3.9607437643889636;0.02567488184361002;-0.0428265524625267;0.39866460568660345;0.158933467827255;4.023195444039705;0.8154084982847061;0.016008973182420783;0.0011573033244067943;0.07647598654022636;0.0361986336290404;0.004584655809123136;0.14020597532374818;3.8874814265592397;3.9607437643889636;0.07616838765895081;0.0922810237585398;0.42901655101348096;0.18405520104350273;4.296355458427699;1.0885685126726998;0.016008973182420783;0.0008750943444708716;0.07647598654022636;0.040787192821454;0.004610697137601283;0.1447945345161618;3.792768406181754;4.799394656399288;0.06476391846659295;0.0922810237585398;0.9019675125807145;0.8135453937510414;4.823612231676662;3.163257920318081;0.0358927296828796;0.000803666618125505;0.09635974304068518;0.040787192821454;0.004327221688133097;0.1560110125420617;60.0
-3.151779262674201;-0.0989089425920261;3.207786945754999;3.521358015238914;3.2676098332665564;0.05835310249816702;0.0254919955134087;0.4316772525781165;0.18634525039339098;4.023195444039705;0.8154084982847061;0.016008973182420783;0.001340298785214789;0.07647598654022636;0.0361986336290404;0.0037353558532330178;0.1269501376567757;3.842009613682112;3.9607437643889636;0.051117055545662635;0.0254919955134087;0.5562915271591633;0.30946026318907416;4.023195444039705;1.3529819623802424;0.02824513102885695;0.0010863709219491907;0.08871214438666253;0.0361986336290404;0.004469707453024216;0.14020597532374818;3.573678741431724;3.9607437643889636;0.06169435100197415;0.0922810237585398;0.7880718587470179;0.6210572545489798;4.296355458427699;2.636001147069118;0.037422249413683994;0.0008162042332670363;0.09788926277148957;0.040787192821454;0.0038594135477692574;0.1447945345161618;60.0
3.2676098332665564;0.0254919955134087;3.355216613880619;3.7327672883284353;3.2676098332665564;0.058761491899341746;0.0254919955134087;0.5568959324264899;0.3101330795531696;4.023195444039705;1.3529819623802424;0.02824513102885695;0.0016555370594973024;0.08871214438666253;0.0346691138982359;0.004153702365376097;0.1254206179259712;3.7195567236231435;3.379261654809323;0.05365880371666824;0.0254919955134087;0.5272301662207526;0.2779716481731624;4.023195444039705;1.3529819623802424;0.02824513102885695;0.001083390314064818;0.08871214438666253;0.0361986336290404;0.004183083880887456;0.1300091771183847;3.5358818150664098;3.9607437643889636;0.0638655978777404;0.0922810237585398;0.6818543546858363;0.46492536100403825;4.296355458427699;2.1906195521010017;0.037422249413683994;0.001049685184209557;0.09788926277148957;0.040787192821454;0.0037854759878468355;0.1447945345161618;60.0
2.3803123967653246;-0.0010196798205363;2.6702134816594625;3.1126723841096955;3.379261654809323;0.05414474242974417;0.0254919955134087;0.437168966140454;0.1911167049563134;3.7241308169001774;1.053917335240715;0.02824513102885695;0.0015619598352204873;0.08871214438666253;0.0214132762312633;0.0029746293394882404;0.11522381972060759;3.4220039315561155;3.379261654809323;0.05539186358222548;0.040787192821454;0.46220168546574003;0.21363039804737088;4.023195444039705;1.3529819623802424;0.037422249413683994;0.0012202470045696535;0.09788926277148957;0.0346691138982359;0.00350184168815225;0.1284796573875802;3.2202944433906584;3.9607437643889636;0.05586712324077683;0.040787192821454;0.6973615532462277;0.48631313594599135;4.023195444039705;1.917459537713008;0.037422249413683994;0.001350657264068761;0.09788926277148957;0.0361986336290404;0.0031209275098128637;0.14020597532374818;60.0
3.379261654809323;-0.0081574385642908;3.7241308169001774;0.4486688935712381;3.379261654809323;0.02284628989742847;0.040787192821454;0.448963630233983;0.20156834127287662;3.7241308169001774;1.053917335240715;0.037422249413683994;0.00021444780563436552;0.0336494340776996;-0.0744366268991536;7.492676360497726e-05;0.019373916590190693;2.5647774528055773;3.379261654809323;0.05519347688589337;0.040787192821454;0.5944987898058939;0.35342881108067237;3.7241308169001774;1.6183949105734805;0.037422249413683994;0.0016722249978266671;0.09788926277148957;0.0214132762312633;0.0019736909574806635;0.11522381972060759;2.976217568877774;3.379261654809323;0.060039431310329135;0.040787192821454;0.6999018595238353;0.48986261296492245;4.023195444039705;1.917459537713008;0.037422249413683994;0.0013862166092939504;0.09788926277148957;0.0361986336290404;0.0026538269750029696;0.1300091771183847;60.0
2.9299790752744244;0.040787192821454;3.458602653810577;1.4243590965995931;3.379261654809323;0.046749845564791045;0.040787192821454;0.7399825390817848;0.5475741581459251;3.7241308169001774;1.6183949105734805;0.037422249413683994;0.0014754009027644376;0.08565310492505351;-0.0397675130009177;0.0005471451638907507;0.0540430304884266;1.7840539361954273;3.379261654809323;0.06137761073874781;0.040787192821454;0.6544391736246628;0.42829063197453154;3.7241308169001774;1.6183949105734805;0.037422249413683994;0.0016722249978266671;0.09788926277148957;-0.0214132762312633;0.0008834123199621423;0.072397267258081;2.724643279942608;3.379261654809323;0.059371581771459965;0.040787192821454;0.653648002064785;0.42725571060328515;4.023195444039705;1.917459537713008;0.10676047721015602;0.002630617512833575;0.1672274905679616;0.0346691138982359;0.002141789155238664;0.1284796573875802;60.0
0.16747216063792036;-0.0723972672580809;2.105735906326697;2.068968568450773;3.379261654809323;0.07042437707691239;0.040787192821454;0.7946625784976761;0.6314886136645752;3.7241308169001774;1.6183949105734805;0.037422249413683994;0.002085992291170643;0.09788926277148957;-0.0214132762312633;0.0011914416821522235;0.072397267258081;1.6893354945334296;3.379261654809323;0.06589188568272787;0.040787192821454;0.6470857018703552;0.41871990556505023;3.7241308169001774;1.6183949105734805;0.037422249413683994;0.0016566981102429576;0.09788926277148957;-0.0214132762312633;0.0007910134755465912;0.072397267258081;2.140190665669022;3.379261654809323;0.058899591376373135;0.040787192821454;0.6207290580233501;0.38530456347455555;3.7241308169001774;1.6183949105734805;0.10676047721015602;0.002641985412671647;0.1672274905679616;0.0214132762312633;0.0013117014121846343;0.11522381972060759;60.0
-0.8504727069538274;-0.1193025390027531;2.377070065015938;1.5973499014608192;2.9299790752744244;0.07440635627462229;0.040787192821454;0.5933238837737784;0.3520332310564001;3.458602653810577;1.3528667474838802;0.037422249413683994;0.002252351800996091;0.09788926277148957;-0.0214132762312633;0.0006693154289188134;0.0616906291424493;1.785026108245572;3.379261654809323;0.06342266404570576;0.040787192821454;0.7217159656270079;0.5208739350409244;3.7241308169001774;1.6183949105734805;0.10676047721015602;0.0037035785874890217;0.1672274905679616;-0.0214132762312633;0.0008249785421359536;0.072397267258081;1.5356694260337644;3.4517709642736634;0.05687106197004008;0.040787192821454;0.6537059398727613;0.4273314558249302;3.7241308169001774;1.6183949105734805;0.10676047721015602;0.002166878826451403;0.1672274905679616;-0.0214132762312633;0.0006563835763972284;0.0754563067196901;60.0
0.7054370823090448;-0.1142041399000713;2.441963460829235;1.6594005908775749;3.065148226943604;0.02254084447379652;-0.0723972672580809;0.671298623900016;0.4506418424500551;3.618878761337691;1.5131428550109942;0.10676047721015602;0.005846410377850033;0.1672274905679616;-0.0214132762312633;0.0005884967660075193;0.058121749770572106;1.551547439934632;3.065148226943604;0.0583971858782323;0.040787192821454;0.6627540128126223;0.43924288149923346;3.618878761337691;1.5131428550109942;0.10676047721015602;0.0037146692214773845;0.1672274905679616;-0.0214132762312633;0.0005669133525192282;0.0616906291424493;1.506132362722346;3.4517709642736634;0.05564666405568209;0.040787192821454;0.841190263906021;0.7076010600902813;3.7241308169001774;2.544705904047804;0.10676047721015602;0.002444283309085337;0.1672274905679616;-0.0214132762312633;0.0006365590681430291;0.0754563067196901;0.0
3.065148226943604;-0.0856531049250535;3.618878761337691;1.6271320633014994;3.065148226943604;0.028749124662625025;-0.0571020699500356;0.6482860780685591;0.42027483901751395;3.618878761337691;1.4212549492917161;0.10676047721015602;0.004679554378464978;0.1672274905679616;-0.0214132762312633;0.0005901430319901672;0.058121749770572106;1.6746686747812891;3.4517709642736634;0.025171156604662834;-0.0571020699500356;0.6988432822662298;0.4883819331686374;3.618878761337691;1.5131428550109942;0.10676047721015602;0.0036144722750387666;0.1672274905679616;-0.0214132762312633;0.0007533659718907813;0.0754563067196901;1.6082256690291923;3.59427656481979;0.05339733062829121;0.040787192821454;0.8911454476210644;0.7941402088157473;3.7241308169001774;2.544705904047804;0.10676047721015602;0.0024353299326884807;0.1672274905679616;-0.0214132762312633;0.0007455014415912212;0.0764759865402264;0.0
1.4479932934619728;-0.0571020699500356;2.197623812045975;1.3051745853208456;3.4517709642736634;0.024534197166461352;-0.0571020699500356;0.7535994928695686;0.567912195653271;3.618878761337691;1.4212549492917161;0.10676047721015602;0.002680034374172353;0.11930253900275312;-0.0469052717446721;0.0004875546675978096;0.049964311206281295;1.6049979032099753;3.4517709642736634;0.049454646498421;0.0163148771285816;0.9278000287062712;0.8608128932673578;3.618878761337691;2.439453848485318;0.10676047721015602;0.003384029695699306;0.1672274905679616;-0.0214132762312633;0.000716766879729183;0.0754563067196901;1.6868652077549553;4.026639260762535;0.0510727392266472;0.040787192821454;0.9357697683072954;0.8756650592778894;4.075768736454927;2.896343823602554;0.10676047721015602;0.002426180159648081;0.1672274905679616;-0.0214132762312633;0.000817937144827718;0.0825940654634445;0.0
3.4517709642736634;-0.0703579076170082;3.6082394251606935;1.269194358222472;3.4517709642736634;0.04520740259172173;0.0163148771285816;1.1866170137106846;1.408059937227663;3.618878761337691;2.439453848485318;0.10676047721015602;0.0026883523496636246;0.11930253900275312;-0.0458855919241358;0.0005039306818462513;0.050983991026817596;1.3422088106511127;3.59427656481979;0.043633480439435525;0.0163148771285816;1.0210728842333732;1.0425898349166594;3.6790662786859616;2.4996413658335883;0.10676047721015602;0.00197011249510786;0.11930253900275312;-0.0458855919241358;0.0005634042066088483;0.0520036708473539;1.8399153355990772;4.396810698425505;0.040820601977146424;0.0163148771285816;1.050270604075147;1.103068341784374;4.451141192223304;3.2717162793709305;0.10676047721015602;0.002371038913787189;0.1672274905679616;-0.0214132762312633;0.0010034713210721087;0.09075150402773531;0.0
0.8028973119814848;0.0163148771285816;1.1794249128523733;1.4102731196901508;3.59427656481979;0.040645679184581666;0.0163148771285816;1.2032456289972795;1.4478000437010587;3.6790662786859616;2.4996413658335883;0.06291424492709285;0.001062188141119873;0.07545630671968995;-0.0458855919241358;0.0007004428528275611;0.0520036708473539;1.297596107292423;4.026639260762535;0.03564895541445166;0.0163148771285816;1.1232271633525888;1.261639260493103;4.075768736454927;2.896343823602554;0.10676047721015602;0.001955833303847842;0.11930253900275312;-0.0458855919241358;0.0005556407628169935;0.058121749770571995;1.9314725087126807;5.116950256807896;0.04746110894403374;0.0163148771285816;1.1973219008108762;1.4335797341613694;5.127757573978064;3.948332661125691;0.10676047721015602;0.001953210831019343;0.1672274905679616;-0.0214132762312633;0.0011342021692099396;0.1019679820536352;30.0
3.59427656481979;-0.0652595085143265;3.6790662786859616;1.4645409069242037;4.026639260762535;0.03991973786490747;0.0163148771285816;1.3202628329744959;1.7430939481338417;4.075768736454927;2.896343823602554;0.06291424492709285;0.0010614949764956004;0.07545630671968995;-0.0458855919241358;0.0007309420962955594;0.058121749770571995;1.468692241947135;4.396810698425505;0.03332757107763133;0.0163148771285816;1.2502766155265828;1.5631916153326066;4.451141192223304;3.2717162793709305;0.06291424492709285;0.0006930606495790543;0.07545630671968995;-0.0458855919241358;0.0007197821458447681;0.0662791883348628;1.5591511073006987;5.116950256807896;0.047039344131288206;0.0214132762312633;1.1828469442284129;1.399126893470494;5.127757573978064;3.948332661125691;0.10676047721015602;0.0013320429057211065;0.11930253900275312;-0.0458855919241358;0.0007864645826998026;0.0774956663607627;0.0
4.026639260762535;-0.0479249515652085;4.075768736454927;1.6347412931020353;4.396810698425505;0.03577487712266108;0.0163148771285816;1.4786119309358772;2.1862932423059234;4.451141192223304;3.2717162793709305;0.06291424492709285;0.0008556250830866084;0.06322014887325367;-0.0458855919241358;0.0008986012897915178;0.0662791883348628;1.4803012236801791;5.116950256807896;0.038640909972106036;0.0163148771285816;1.3494468650867273;1.821006841692396;5.127757573978064;3.948332661125691;0.06291424492709285;0.0006869608008854549;0.07545630671968995;-0.0458855919241358;0.0007175986772783086;0.0774956663607627;1.3197620479788543;5.116950256807896;0.04349999874138494;0.0265116753339451;1.1282972539196572;1.2730546932026392;5.127757573978064;3.948332661125691;0.10676047721015602;0.0013380387797210654;0.11930253900275312;-0.0458855919241358;0.0005855046053794095;0.0774956663607627;0.0
4.396810698425505;-0.0183542367696543;4.451141192223304;0.6451059120811088;5.116950256807896;0.035134283667909424;0.014785357397777;0.6162773796521128;0.37979780867087437;5.127757573978064;1.4486912952921025;0.016008973182420783;5.848576517300926e-05;0.016314877128581595;-0.0978892627714897;0.00012156374598182663;0.025491995513408805;1.498884568091627;5.116950256807896;0.036864516390095727;0.0214132762312633;1.36309311073781;1.858022828540879;5.127757573978064;3.948332661125691;0.06291424492709285;0.0006382659860303011;0.07035790761700855;-0.0458855919241358;0.000743384401301253;0.0774956663607627;1.3168849431308227;5.116950256807896;0.040511834926060766;0.0265116753339451;1.1282166563704863;1.2728728237117999;5.127757573978064;3.948332661125691;0.06291424492709285;0.00046475532783110673;0.07545630671968995;-0.0458855919241358;0.0005652641983506468;0.0774956663607627;0.0
5.116950256807896;0.014785357397777;5.127757573978064;0.482488312808828;5.116950256807896;0.032065579881486624;0.0214132762312633;0.47265031094758087;0.2233983164388449;5.127757573978064;1.0519888375231368;0.016008973182420783;0.00011740475823619181;0.02345263587233648;-0.1040073416947078;6.723696855445408e-05;0.019373916590190707;0.5714243379967343;5.116950256807896;0.03868573052940537;0.0265116753339451;0.5468672286217887;0.2990637657404758;5.127757573978064;1.461116685906338;0.016008973182420783;7.794636199946648e-05;0.02345263587233648;-0.0968695829509534;9.874130072764493e-05;0.026511675333945106;1.1286118713957287;5.116950256807896;0.040272727515611166;0.0326297542571632;1.030553311722172;1.062040128301536;5.127757573978064;3.948332661125691;0.06291424492709285;0.00045795076176949643;0.07545630671968995;-0.0458855919241358;0.0004183132980048344;0.0774956663607627;0.0
4.179634576532002;0.0214132762312633;4.183262397424525;0.6301536550880575;5.116950256807896;0.02020739834516416;0.0265116753339451;0.6081968154764565;0.369903366355703;5.127757573978064;1.461116685906338;0.011930253900275356;8.664557803408962e-05;0.019373916590191054;-0.0968695829509534;0.0001187910874847354;0.026511675333945106;0.6611468414087606;5.116950256807896;0.029858371457032434;0.0265116753339451;0.5707492165838619;0.3257546682310921;5.127757573978064;1.5663298594224297;0.016008973182420783;0.00010258836439236101;0.02345263587233648;-0.0917711838482716;0.00012785421494709818;0.0316100744366269;1.149718996199807;5.116950256807896;0.03368722169543992;0.0326297542571632;1.0819272523857866;1.1705665794550577;5.127757573978064;3.948332661125691;0.06291424492709285;0.0004450232415268108;0.07239726725808093;-0.0458855919241358;0.00043858836326481077;0.0774956663607627;0.0
3.5916078678073298;0.0265116753339451;3.666640888071726;0.8307033925170654;5.116950256807896;0.004861335352431325;0.0265116753339451;0.7155981359156273;0.5120806921259206;5.127757573978064;1.5663298594224297;0.011930253900275356;0.00011263925144431588;0.019373916590191054;-0.0917711838482716;0.00019850501927609564;0.0316100744366269;0.6795248511227275;5.116950256807896;0.018096803344663837;0.0326297542571632;0.5685648631275848;0.3232660035832893;5.127757573978064;1.5663298594224297;0.011930253900275356;6.879658895906631e-05;0.019373916590191054;-0.0917711838482716;0.000134231329490407;0.0316100744366269;0.6866364335639115;5.371951155429953;0.03370984823061529;0.0326297542571632;0.7178861243141281;0.5153604874827599;5.802810159268185;2.241382444712551;0.016008973182420783;9.15439413789491e-05;0.02549199551340886;-0.0917711838482716;0.00013544436758288457;0.03568879371877229;0.0
3.2088439987009547;0.0224329560517997;3.5614277145556343;0.3999727183587541;4.179634576532002;0.00508989467790773;0.0326297542571632;0.3370343074339722;0.11359212438749729;4.202487784009642;0.6410600694540074;0.010910574079738833;7.165589303419155e-05;0.01835423676965453;-0.0917711838482716;5.302709375686317e-05;0.017334556949118007;0.6738046702772852;5.116950256807896;0.0077550432438161215;0.0326297542571632;0.6244793825889592;0.38997449927868766;5.127757573978064;1.5663298594224297;0.011930253900275356;8.969550238088808e-05;0.021413276231263434;-0.0917711838482716;0.000134231329490407;0.0316100744366269;0.8508781067699943;5.92175903455406;0.026490368972744337;0.0326297542571632;0.8964940479545689;0.8037015780179689;6.294660689603775;2.733232975048141;0.016008973182420783;9.708925837313053e-05;0.02549199551340886;-0.0917711838482716;0.00020888515952457664;0.0458855919241358;0.0
3.7075712782159487;0.0326297542571632;4.202487784009642;0.46968684313291426;4.339803598768873;0.00901998879012658;0.0326297542571632;0.5907184787607744;0.34894832114944346;4.849709962469595;1.288282247913961;0.010910574079738833;8.205336239828051e-05;0.02039359641072691;-0.0917711838482716;7.512171615555503e-05;0.020393596410727008;0.7591604786168473;5.371951155429953;0.01784196888510998;0.0326297542571632;0.835959708846362;0.6988286348144943;5.802810159268185;2.241382444712551;0.01498929336188437;0.00010581157989522816;0.02447231569287245;-0.0917711838482716;0.00016611690220695092;0.03568879371877229;0.8430465449654362;5.92175903455406;0.019792837804048873;0.0326297542571632;0.8759781576312682;0.7673377326470708;6.294660689603775;2.733232975048141;0.01498929336188437;9.451299651958352e-05;0.02447231569287245;-0.0917711838482716;0.00020380195227991018;0.0458855919241358;0.0
4.339803598768873;0.0112164780258998;4.849709962469595;0.932828929893658;5.371951155429953;0.02156648935007685;0.0326297542571632;0.9566762193738498;0.9152293887154425;5.802810159268185;2.241382444712551;0.01498929336188437;0.00011879108748473449;0.02447231569287245;-0.0917711838482716;0.00024148122598100278;0.03568879371877229;1.0774727234249184;5.92175903455406;0.022575413395915837;0.0326297542571632;1.1303076800946394;1.277595451680926;6.294660689603775;2.733232975048141;0.01498929336188437;0.00010331618724784501;0.02447231569287245;-0.0917711838482716;0.00033497180467977983;0.0458855919241358;0.8892063427104995;5.92175903455406;0.019191859316829343;0.0346691138982359;0.902609374151128;0.814703682305491;6.294660689603775;2.733232975048141;0.01498929336188437;9.69159672170623e-05;0.02447231569287245;-0.0917711838482716;0.00022615651141270454;0.0458855919241358;0.0
5.371951155429953;-0.0173345569491179;5.802810159268185;0.9976098847839199;5.92175903455406;0.02485698326348296;0.0326297542571632;0.9396504338103715;0.8829429377600194;6.294660689603775;2.0921729055941336;0.01498929336188437;0.00012026406231131277;0.02447231569287245;-0.0999286224125624;0.00027657268508480886;0.037728153359845;1.0151957971405916;5.92175903455406;0.02104595435969226;0.0326297542571632;1.006377724103238;1.0127961235712128;6.294660689603775;2.733232975048141;0.01498929336188437;0.00011801127728242659;0.02447231569287245;-0.0917711838482716;0.000292654104367932;0.0458855919241358;0.8827735536740193;5.92175903455406;0.019381666991795356;0.0346691138982359;0.9081796177607839;0.8247902181161235;6.294660689603775;2.733232975048141;0.01498929336188437;9.519460840011815e-05;0.02447231569287245;-0.0917711838482716;0.00022783165925469698;0.0458855919241358;0.0
5.92175903455406;-0.0193739165901906;6.294660689603775;0.8094605104150077;5.92175903455406;0.014753090931110819;0.0112164780258998;0.7506341463336152;0.5634516216419954;6.294660689603775;1.5481560651120088;0.01498929336188437;0.00013724659560599456;0.02447231569287245;-0.1080860609768532;0.00018784761317790392;0.029570714795554204;0.9440533780864545;5.92175903455406;0.02351019930572781;0.0346691138982359;0.903933973781292;0.8170966289560375;6.294660689603775;2.316717972339735;0.01498929336188437;0.00010331618724784527;0.02447231569287245;-0.0968695829509534;0.0002540101765647289;0.040787192821454;0.8976764484200278;5.92175903455406;0.019229970730756336;0.0346691138982359;0.9143548431023656;0.8360447791047515;6.294660689603775;2.733232975048141;0.01498929336188437;8.586287964584573e-05;0.02447231569287245;-0.0917711838482716;0.00023430119574790876;0.0458855919241358;0.0
4.262057857256406;0.0010196798205363;4.746504624491767;1.0828003434216813;5.92175903455406;0.025023740576747208;0.0346691138982359;1.042532824360299;1.0868746898686619;6.294660689603775;2.316717972339735;0.01498929336188437;6.749690528855464e-05;0.017334556949118007;-0.0968695829509534;0.0003399106026277258;0.040787192821454;0.9999161691733577;5.92175903455406;0.021431881351722217;0.0346691138982359;0.9497719185596065;0.9020666972843958;6.294660689603775;2.3342780654137445;0.01498929336188437;0.0001033161872478454;0.02447231569287245;-0.0938105434893443;0.0002939364589228362;0.0438462322830631;0.8992544207259808;5.92175903455406;0.022354540548301646;0.0499643112062812;0.8735191135990619;0.7630356418228907;6.294660689603775;2.733232975048141;0.026205771387784238;0.00013195832715998029;0.035688793718772316;-0.0917711838482716;0.00022931041045314547;0.0458855919241358;0.0
3.516810376073467;0.0346691138982359;3.9779427172640403;1.1580612908974803;5.92175903455406;0.02367143749640987;0.0346691138982359;1.0962742590795664;1.2018172511204523;6.294660689603775;2.3342780654137445;0.01498929336188437;5.709943592446388e-05;0.017334556949118007;-0.0938105434893443;0.0003999559882053477;0.0438462322830631;1.05852281632645;5.92175903455406;0.021298049913643476;0.0346691138982359;1.0174738093228712;1.0352529526579943;6.294660689603775;2.3342780654137445;0.01498929336188437;6.783482304288557e-05;0.01784439685938588;-0.0938105434893443;0.000325926006333021;0.0438462322830631;0.8920357289882642;5.92175903455406;0.025931206089636578;0.0560823901294993;0.8255784028829131;0.6815796993067015;6.294660689603775;2.3342780654137445;0.026205771387784238;0.00013195832715998029;0.035688793718772316;-0.0938105434893443;0.0002380904956939331;0.0438462322830631;0.0
3.4167697269910624;0.0214132762312633;3.960382624190031;0.3803686050209879;4.262057857256406;0.014870087933263573;0.0346691138982359;0.3764787383624175;0.14173624043895763;4.746504624491767;0.7861220003017357;0.01498929336188437;8.341803025231622e-05;0.01784439685938588;-0.0938105434893443;3.777747202286328e-05;0.014275517487508896;0.964102591018106;5.92175903455406;0.024773533424423785;0.0499643112062812;0.9067098188041383;0.8221226955158333;6.294660689603775;2.3342780654137445;0.026205771387784238;0.00012120849911188329;0.029060874885285748;-0.0938105434893443;0.0002677001778941146;0.0438462322830631;0.9220689608472296;5.92175903455406;0.025502416776995773;0.0560823901294993;0.8349925078959262;0.6972124882423283;6.294660689603775;2.3342780654137445;0.026205771387784238;0.00013466166919464393;0.035688793718772316;-0.0938105434893443;0.00026058368775158197;0.0438462322830631;0.0
3.632529168679124;0.0081574385642908;4.056175131683417;0.6150040334256621;4.739341013399949;0.017914664971421048;0.0499643112062812;0.5004233400602114;0.25042351927701795;4.995542670502185;1.035160046312154;0.026205771387784238;0.00018825917967356148;0.029060874885285748;-0.0938105434893443;9.175766713809995e-05;0.021413276231263406;0.784040122327817;5.377895173099501;0.02226547415349224;0.0560823901294993;0.6601836593533906;0.43584246407723376;5.561597434715946;1.601214810525915;0.026205771387784238;0.00016245179425610927;0.0326297542571633;-0.0938105434893443;0.00019273442377902315;0.036708473539308714;0.9576208706717476;5.92175903455406;0.02667155316819012;0.0560823901294993;0.9001451742269342;0.8102613346840377;6.294660689603775;2.3563695745351803;0.026205771387784238;0.00010894526163412686;0.0326297542571633;-0.0938105434893443;0.0002844285508265628;0.0438462322830631;0.0
4.739341013399949;0.0499643112062812;4.995542670502185;0.9273998743599927;5.377895173099501;0.022867139380248636;0.0560823901294993;0.7699430214288402;0.5928122562469715;5.561597434715946;1.601214810525915;0.026205771387784238;0.00022049133470224223;0.0326297542571633;-0.0938105434893443;0.0002776124320212179;0.036708473539308714;0.9839136865278706;5.598149750857946;0.020420769769096674;0.0560823901294993;0.8217654760439581;0.6752984976177532;5.732013649907257;1.7716310257172263;0.026205771387784238;0.00015302475536600063;0.0326297542571633;-0.0938105434893443;0.00030970595412504055;0.0397675130009177;1.01138101986607;5.92175903455406;0.02781814132069283;0.0560823901294993;0.9733867663083761;0.947481796824277;6.294660689603775;3.025119697268381;0.026205771387784238;0.00011509132130267796;0.0326297542571633;-0.0897318242071989;0.00031563251166257216;0.0479249515652085;0.0
5.377895173099501;0.0560823901294993;5.561597434715946;0.8817036143886987;5.598149750857946;0.02573387170471109;0.0560823901294993;0.755479517073533;0.5707493007176587;5.732013649907257;1.6758385182238404;0.026205771387784238;0.00022569006938428813;0.0326297542571633;-0.0989089425920261;0.00025395818921791167;0.034669113898235904;0.9434471411776232;5.598149750857946;0.025572762165438308;0.0560823901294993;0.828995757173028;0.6872339654108819;5.732013649907257;1.793722534838662;0.026205771387784238;0.00015059867918104604;0.0326297542571633;-0.0938105434893443;0.00029338192722341876;0.0397675130009177;0.9110962138065705;5.598149750857946;0.028364292233472747;0.0560823901294993;0.8782758518968781;0.7713684720251869;5.732013649907257;2.5121309599921773;0.026205771387784238;0.00011636212311384477;0.0326297542571633;-0.0876924645661262;0.000262986658449061;0.0458855919241358;0.0
5.598149750857946;0.0091771183848271;5.732013649907257;0.8174775464083033;5.598149750857946;0.03161555611089625;0.0560823901294993;0.809433648549859;0.6551828314047367;5.732013649907257;1.793722534838662;0.026205771387784238;0.00021375464101009402;0.0326297542571633;-0.0999286224125624;0.0002401815423104925;0.0336494340776996;1.0161226845167093;5.598149750857946;0.03229504841166691;0.0560823901294993;0.9865027311006663;0.9731876384690736;5.732013649907257;2.4624726575718627;0.026205771387784238;0.0001620358954815459;0.0326297542571633;-0.0897318242071989;0.000325822031639381;0.0438462322830631;1.032214910401408;5.598149750857946;0.030298392204134276;0.0560823901294993;1.0122044191930324;1.0245577862339041;5.732013649907257;3.0830618500439684;0.026205771387784238;0.00011282698353005427;0.0326297542571633;-0.078515346181299;0.0003330078382443415;0.055062710308962995;0.0
3.774736153470654;-0.0091771183848271;3.938291115068595;1.2175402395884327;5.598149750857946;0.03525891027290944;0.0560823901294993;1.2126460969301136;1.4705105563998384;5.732013649907257;2.4624726575718627;0.011930253900275356;6.819006991282745e-05;0.01835423676965442;-0.0897318242071989;0.0004806230213550843;0.0438462322830631;1.1185900346902102;5.598149750857946;0.03596257159837145;0.0560823901294993;1.1265252135964041;1.269059056868424;5.732013649907257;2.5121309599921773;0.026205771387784238;0.00015876935718966149;0.0326297542571633;-0.0876924645661262;0.00040245138085272784;0.0458855919241358;1.1830932135420693;5.598149750857946;0.030207315527742227;0.0560823901294993;1.1859312806474012;1.4064330024179847;5.732013649907257;3.5404575671832066;0.026205771387784238;0.00013103410766095066;0.03670847353930873;-0.0713775874375446;0.000429762067049072;0.062200469052717394;0.0
3.103621873237203;-0.0254919955134087;3.2695409923353944;1.1861998415893922;5.598149750857946;0.016014709206878978;0.0091771183848271;1.174656595932573;1.3798181183679;5.732013649907257;2.5121309599921773;0.011930253900275356;7.442855153128127e-05;0.016314877128581595;-0.0876924645661262;0.00045151010713562987;0.0458855919241358;1.2993551876618852;5.598149750857946;0.03155245935916338;0.0560823901294993;1.295137020517948;1.6773799019161075;5.732013649907257;3.0830618500439684;0.011930253900275356;6.931646242727037e-05;0.01835423676965442;-0.078515346181299;0.0005421933691061039;0.055062710308962995;1.2225625603473163;5.598149750857946;0.02993686102799764;0.0560823901294993;1.2424995828001055;1.5438052132584363;5.732013649907257;3.5404575671832066;0.026205771387784238;0.00012398693398084514;0.03670847353930873;-0.0713775874375446;0.00045759262671362093;0.062200469052717394;0.0
3.070365087949974;-0.023452635872336;3.21988268991508;0.5319201857032174;3.774736153470654;0.00741754285809278;-0.0091771183848271;0.5275171589428134;0.2782743529790974;3.938291115068595;1.2893393152053063;0.011930253900275356;8.343969164682697e-05;0.016314877128581595;-0.078515346181299;7.720121002837334e-05;0.021413276231263392;1.2536976540750224;5.598149750857946;0.013223115233286937;0.0091771183848271;1.244336739861609;1.5483739221694173;5.732013649907257;3.5404575671832066;0.011930253900275356;8.4843350010979e-05;0.022432956051799846;-0.0713775874375446;0.00048188804679437835;0.062200469052717394;1.2312199068876122;5.598149750857946;0.02996154868173694;0.0560823901294993;1.2553538822155144;1.5759133695935637;5.732013649907257;3.5404575671832066;0.026205771387784238;0.00012094567419184896;0.03670847353930873;-0.0713775874375446;0.00046406216320683265;0.062200469052717394;0.0
2.4732799169902684;-0.0224329560517997;2.6489517998632888;0.5113096788146256;3.103621873237203;0.0025491995513404315;-0.0193739165901906;0.5117190710806723;0.26185640770766616;3.2695409923353944;1.0779849096113439;0.011930253900275356;9.106450251382692e-05;0.022432956051799846;-0.0713775874375446;7.234905765846417e-05;0.018354236769654295;0.5968309958665899;3.774736153470654;0.006776588843811074;-0.0091771183848271;0.603980348210432;0.3647922610243947;3.938291115068595;1.7467350323445445;0.011930253900275356;8.387291953699722e-05;0.022432956051799846;-0.0713775874375446;9.718168032303175e-05;0.02855103497501779;1.1661492842293022;5.598149750857946;0.025276727234347783;0.0560823901294993;1.1798955306036791;1.3921534631385377;5.732013649907257;3.5404575671832066;0.011930253900275356;6.42794661575557e-05;0.022432956051799846;-0.0713775874375446;0.0004284797124941674;0.062200469052717394;0.0
2.039677941904495;-0.0193739165901906;2.1915560827240506;0.43385026238983726;3.070365087949974;0.005546095942381359;-0.0112164780258998;0.4235204546148428;0.17936957547716312;3.21988268991508;1.0283266071910293;0.011930253900275356;8.80319072826342e-05;0.022432956051799846;-0.0713775874375446;4.748177676268108e-05;0.016314877128581595;0.44831995255221435;3.194256435793755;0.007064549026486581;-0.0081574385642908;0.42568000505095016;0.18120346670017695;3.2695409923353944;1.0779849096113439;0.011930253900275356;5.683949919036192e-05;0.022432956051799846;-0.0713775874375446;5.631962572215653e-05;0.019373916590190693;0.9909926466996316;5.598149750857946;0.014770699559933853;0.0173345569491179;0.9840914310023559;0.9684359445722645;5.732013649907257;3.5404575671832066;0.011930253900275356;5.832980313254826e-05;0.022432956051799846;-0.0713775874375446;0.00030226598715784675;0.062200469052717394;0.0
2.72463533187872;-0.0112164780258998;2.7849976607668583;0.4825072938941171;3.194256435793755;0.006712354324506676;-0.0081574385642908;0.41572773523300527;0.17282954984196372;3.200309418765249;1.0087533360411984;0.0017334556949117896;3.08458257801363e-05;0.01223615784643628;-0.0713775874375446;6.541741141573739e-05;0.019373916590190693;0.49609301225938307;3.358666485176193;0.015274790097745588;0.0173345569491179;0.44368926816468535;0.1968601666845141;3.362230577208346;1.1706744944842953;0.011930253900275356;7.295557670470172e-05;0.022432956051799846;-0.0713775874375446;6.557337345619715e-05;0.021413276231263392;0.6058373225625833;4.101334289521246;0.01288729001674663;0.0173345569491179;0.5768732684050175;0.33278276780028737;4.118481226332468;1.9269251436084178;0.011930253900275356;0.00014006546507803683;0.03874783318038133;-0.0713775874375446;0.00011101031457727166;0.0356887937187723;0.0
3.194256435793755;-0.0081574385642908;3.200309418765249;0.5910103672839934;3.358666485176193;0.01584883373377409;0.0173345569491179;0.5221857212131812;0.2726779274389302;3.362230577208346;1.1706744944842953;0.010910574079738833;7.694127329426957e-05;0.021413276231263323;-0.0713775874375446;9.453032563519069e-05;0.021413276231263392;0.7284014332752083;4.101334289521246;0.015442904162786819;0.0173345569491179;0.6677900483984494;0.4459435487400033;4.118481226332468;1.9269251436084178;0.010910574079738833;4.9076055398507e-05;0.021413276231263323;-0.0713775874375446;0.0001571057620914068;0.0356887937187723;0.5958001967689561;4.101334289521246;0.012908786762324155;0.0173345569491179;0.5548050283604026;0.3078086194939871;4.118481226332468;1.9269251436084178;0.037422249413683994;0.0002778319341522344;0.06423982869378997;-0.0713775874375446;0.00010352413663512655;0.0356887937187723;0.0
3.358666485176193;0.0173345569491179;3.362230577208346;0.5714904394971432;4.101334289521246;0.017473952529182407;0.0173345569491179;0.5571529629772816;0.3104194241543641;4.118481226332468;1.33348356556561;0.010910574079738833;2.9372850953555077e-05;0.012236157846436058;-0.0825940654634444;0.00010362811132876995;0.024472315692872504;0.7001419070522549;4.101334289521246;0.014941006232748154;0.0173345569491179;0.6551319053371959;0.42919781339074464;4.118481226332468;1.9269251436084178;0.010910574079738833;0.00016944409240346017;0.03772815335984481;-0.0713775874375446;0.00015249621733999278;0.0356887937187723;0.5999841476353399;4.101334289521246;0.014430060745939964;0.0173345569491179;0.5581170265171251;0.3114946152883174;4.118481226332468;1.9269251436084178;0.037422249413683994;0.0002750737165848158;0.06423982869378997;-0.0713775874375446;0.00010546499758309009;0.0356887937187723;0.0
4.101334289521246;-0.0244723156928724;4.118481226332468;0.39818135402380095;4.101334289521246;0.018436664628606794;0.0173345569491179;0.4014791572161027;0.16118551367895212;4.118481226332468;0.9181718075672194;0.010910574079738833;0.0002609764810386688;0.03772815335984481;-0.0907515040277353;5.294044817882829e-05;0.01631487712858161;0.463330359693694;4.101334289521246;0.015198589113430014;0.0173345569491179;0.46003583885025573;0.21163297302665846;4.118481226332468;1.33348356556561;0.037422249413683994;0.0004317029279970332;0.06423982869378997;-0.0825940654634444;6.59892722307599e-05;0.024472315692872504;0.7218269260465732;4.423640405219166;0.014472031344078646;0.0173345569491179;0.681589988782304;0.4645649128082613;4.455706391556449;2.264150308832398;0.037422249413683994;0.0002635209728469374;0.06423982869378997;-0.0713775874375446;0.00015370925543246975;0.040787192821454;0.0
3.444837538391603;-0.0183542367696543;3.4953732394979706;0.33260612725371375;4.101334289521246;0.01953425518575295;0.0173345569491179;0.3336162772906379;0.11129982047326381;4.118481226332468;0.7562506491241225;0.037422249413683994;0.0007128331704864312;0.06423982869378997;-0.092790863668808;3.7777472022863166e-05;0.01427551748750891;0.32660832160615094;4.101334289521246;0.01870679450264177;0.0173345569491179;0.33159487482533123;0.10995516101042709;4.118481226332468;0.9181718075672194;0.037422249413683994;0.0004359052385316859;0.06423982869378997;-0.0907515040277353;3.3583826046010904e-05;0.01631487712858161;0.6694380999120635;4.423640405219166;0.014747216715894493;0.0173345569491179;0.6410094565987248;0.41089312344899237;4.455706391556449;2.264150308832398;0.037422249413683994;0.00026643226426888253;0.06423982869378997;-0.0713775874375446;0.00013197854446152062;0.040787192821454;0.0
3.6851573059183043;-0.0214132762312633;3.7615277980944914;0.3363906843287181;4.101334289521246;0.008531253457061926;-0.0183542367696543;0.3208779432397983;0.10296265445780323;4.118481226332468;0.7155009057581734;0.037422249413683994;0.000703627077820309;0.06423982869378997;-0.0938105434893443;3.422500332346577e-05;0.013255837666972609;0.44448442471530036;4.423640405219166;0.01870679450264177;0.0173345569491179;0.44000222386639043;0.19360195700736915;4.455706391556449;1.093475814348103;0.037422249413683994;0.0004352813903698404;0.06423982869378997;-0.092790863668808;6.196891740997751e-05;0.01937391659019061;0.5234804727172389;4.423640405219166;0.015107481765189149;0.0173345569491179;0.5241226669200885;0.27470456997942594;4.455706391556449;1.6707087307895905;0.037422249413683994;0.0002835303250009419;0.06423982869378997;-0.0825940654634444;7.989877569116547e-05;0.029570714795554204;0.0
3.3457348525055632;-0.037728153359845;3.402980320574295;0.4871751272667393;4.423640405219166;0.012264449578646947;-0.0081574385642908;0.47612033293888334;0.2266905714378331;4.455706391556449;1.0527260709821538;0.037422249413683994;0.0006992947989186045;0.06423982869378997;-0.0938105434893443;6.93164624272706e-05;0.01835423676965431;0.41162519798471037;4.423640405219166;0.009752034990206548;-0.0081574385642908;0.4005710323820553;0.16045715198362562;4.455706391556449;1.0527260709821538;0.037422249413683994;0.0004300826556877955;0.06423982869378997;-0.0938105434893443;5.17447392019553e-05;0.01835423676965431;0.7726417990316242;4.423640405219166;0.017372835984722505;0.0173345569491179;0.7829236276657171;0.6129694067572464;4.455706391556449;2.875373829657179;0.037422249413683994;0.0002987799467349415;0.06423982869378997;-0.0632201488732537;0.00017362618563657227;0.04894463138574491;0.0
4.423640405219166;-0.0081574385642908;4.455706391556449;0.45886907392020054;4.423640405219166;0.01226444957864694;-0.0081574385642908;0.4501659184012235;0.20264935409001703;4.455706391556449;1.0527260709821538;0.037422249413683994;0.0003050574188635087;0.03925767309064909;-0.0938105434893443;6.93164624272706e-05;0.01835423676965431;0.5245501354309541;4.423640405219166;0.009858076907948675;-0.0081574385642908;0.5311240476740197;0.28209275401763434;4.455706391556449;1.6297242269594587;0.037422249413683994;0.0004907345603116563;0.06423982869378997;-0.0856531049250535;7.43072477220317e-05;0.026511675333945106;0.8776987064349777;4.423640405219166;0.019174319198194165;0.0173345569491179;0.8902745640912619;0.7925887994678864;4.455706391556449;2.875373829657179;0.037422249413683994;0.00030501842835339637;0.06423982869378997;-0.0632201488732537;0.00022389217364008045;0.04894463138574491;0.0
3.638545585673473;-0.0265116753339451;3.657203497422545;0.6700241351955437;4.423640405219166;0.012246774905133288;-0.0081574385642908;0.6764075021881362;0.4575271090163935;4.455706391556449;1.6297242269594587;0.00887121443866623;0.00011131790637929264;0.024472315692872337;-0.0856531049250535;0.00012303672080840472;0.026511675333945106;0.9709195215193553;4.423640405219166;0.012800942042602344;-0.0081574385642908;0.9865658062174403;0.9733120899974679;4.455706391556449;2.875373829657179;0.037422249413683994;0.0003537652305553722;0.0530233506678901;-0.0632201488732537;0.00026520478524673363;0.04894463138574491;0.8825997013897553;4.423640405219166;0.012591658153660352;-0.0081574385642908;0.8963596655486983;0.8034606500225743;4.455706391556449;2.875373829657179;0.037422249413683994;0.00029240283219163346;0.06423982869378997;-0.0632201488732537;0.00022736954950518175;0.04894463138574491;0.0
2.819132117240918;-0.0265116753339451;2.82598216459699;1.216745109086862;4.423640405219166;0.0149861715679606;-0.0081574385642908;1.2287306223573076;1.5097789423185761;4.455706391556449;2.875373829657179;0.00887121443866623;0.00013378077248463012;0.024472315692872337;-0.0632201488732537;0.00042976206704907504;0.04894463138574491;1.050383455622888;4.423640405219166;0.015160916509526234;-0.0081574385642908;1.063983158567656;1.1320601617156059;4.455706391556449;2.875373829657179;0.00887121443866623;8.384692586358642e-05;0.024472315692872337;-0.0632201488732537;0.0003217670185873858;0.04894463138574491;0.9421492192754961;4.423640405219166;0.01361950268752032;-0.0081574385642908;0.959219147436238;0.9201013728083033;4.455706391556449;2.875373829657179;0.037422249413683994;0.0003064047576019417;0.06423982869378997;-0.0632201488732537;0.00026363361209838157;0.04894463138574491;0.0
1.5764195612524388;-0.0448659121035994;1.5803325618992696;0.9044421703287128;3.638545585673473;0.012246774905133246;-0.0265116753339451;0.9110148811798249;0.8299481137310903;3.657203497422545;2.0768709355232753;0.00887121443866623;0.00011185944124200683;0.024472315692872337;-0.0632201488732537;0.00023567597225272058;0.034669113898236;1.0345870947913554;4.423640405219166;0.014958393654240594;-0.0081574385642908;1.0450865694571922;1.0922059376598028;4.455706391556449;2.875373829657179;0.00887121443866623;9.347324958317313e-05;0.024472315692872337;-0.0632201488732537;0.000311785447997859;0.04894463138574491;0.9600478463813894;4.423640405219166;0.01453575351407885;-0.0081574385642908;0.9763680647169352;0.9532945977990932;4.455706391556449;2.875373829657179;0.037422249413683994;0.00023216682634233648;0.0530233506678901;-0.0632201488732537;0.0002650777050656162;0.04894463138574491;0.0
2.047687159536146;-0.0499643112062812;2.0506342939831668;0.6388576237439402;2.9112751049563776;0.01062947946780302;-0.0265116753339451;0.6399764136234933;0.4095698099943887;2.9159734236387136;1.335640861739444;0.003772815335984392;6.723696855445112e-05;0.0193739165901905;-0.0632201488732537;0.00012338330312054412;0.022432956051799804;0.815007176437329;3.638545585673473;0.010511443340905506;-0.0265116753339451;0.8189644990540811;0.670702850710902;3.657203497422545;2.0768709355232753;0.010910574079738833;0.00012088791047315817;0.02651167533394494;-0.0632201488732537;0.00019866098131655604;0.034669113898236;0.9327989000433643;4.423640405219166;0.017835897503410077;0.0025491995513408;0.944130196144078;0.8913818272710553;4.455706391556449;2.875373829657179;0.010910574079738833;7.786838097923464e-05;0.02651167533394494;-0.0632201488732537;0.00026119598316968887;0.04894463138574491;0.0
2.9112751049563776;-0.0336494340776996;2.9159734236387136;0.6119769615200642;2.9112751049563776;0.007113439222479001;-0.0336494340776996;0.6114148508287439;0.3738281198139352;2.9159734236387136;1.335640861739444;0.010910574079738833;9.877595895886044e-05;0.021413276231263323;-0.0632201488732537;0.00011194608682004536;0.022432956051799804;0.5672078849548158;2.9112751049563776;0.014838589653340417;-0.0112164780258998;0.5671243824945059;0.32163006521977466;2.9159734236387136;1.335640861739444;0.010910574079738833;9.96770729704131e-05;0.02651167533394494;-0.0632201488732537;0.0001024843896987196;0.022432956051799804;0.9213589406546022;4.423640405219166;0.02156516684875802;0.0124910778015702;0.9271167632247899;0.859545492652411;4.455706391556449;2.875373829657179;0.010910574079738833;8.809039304780614e-05;0.02651167533394494;-0.0632201488732537;0.0002529588768845815;0.04894463138574491;0.0
1.6531350580227215;-0.0469052717446721;1.6614077885336498;0.527876294576551;2.9112751049563776;0.01762945513645466;-0.0112164780258998;0.5265886290692681;0.2772955842650512;2.9159734236387136;1.2545656351050638;0.010910574079738833;9.245083176237177e-05;0.02039359641072691;-0.0632201488732537;8.621235014392097e-05;0.022432956051799804;0.4746728986442735;2.9112751049563776;0.021578739558022964;0.0025491995513408;0.4743119849153669;0.22497185903435524;2.9159734236387136;1.335640861739444;0.010910574079738833;7.305955139834268e-05;0.021413276231263323;-0.0632201488732537;6.754889263537576e-05;0.022432956051799804;0.666454460744557;3.638545585673473;0.025906816590820045;0.023452635872336;0.6597966443857172;0.43533161194265246;3.657203497422545;2.0768709355232753;0.010910574079738833;0.00010045182884733521;0.02753135515448113;-0.0632201488732537;0.00013073084813782895;0.034669113898236;0.0
2.101815757266907;-0.0112164780258998;2.1117765701742384;0.5250778154649947;2.9112751049563776;0.022170221081280708;0.0025491995513408;0.5236601975072422;0.2742200024533239;2.9159734236387136;1.2545656351050638;0.010910574079738833;7.165589303418957e-05;0.02039359641072691;-0.0632201488732537;8.621235014392097e-05;0.022432956051799804;0.41726774261628197;2.9112751049563776;0.026236907019442264;0.0124910778015702;0.41429944740451846;0.17164403211968934;2.9159734236387136;1.2545656351050638;0.010910574079738833;7.766259773140363e-05;0.022687876006933783;-0.0632201488732537;5.323504314414424e-05;0.022432956051799804;0.5265438401058504;2.9112751049563776;0.027680454631416614;0.023452635872336;0.5002094761488469;0.2502095200291039;2.9159734236387136;1.5323205071556236;0.010910574079738833;7.76640418243703e-05;0.02753135515448113;-0.0571020699500356;8.636831218437623e-05;0.028551034975017903;0.0
2.0856035310633594;0.0025491995513408;2.089116636032511;0.2083615723858846;2.101815757266907;0.025977143949544305;0.0124910778015702;0.20938560256402403;0.04384233056109942;2.1117765701742384;0.4503687816405886;0.010910574079738833;0.00010832321858849064;0.022687876006933783;-0.0632201488732537;1.7329115606821845e-05;0.00917711838482721;0.4581927524263356;2.9112751049563776;0.027194316303562092;0.023452635872336;0.44148656163702826;0.19491038410608558;2.9159734236387136;1.2545656351050638;0.010910574079738833;0.00011088251234967066;0.02753135515448113;-0.0632201488732537;6.196891740998023e-05;0.022432956051799804;0.45523992292574667;2.9112751049563776;0.02747739404579773;0.023452635872336;0.436762241656401;0.19076125573672442;2.9159734236387136;1.5323205071556236;0.010910574079738833;6.836408311537858e-05;0.02753135515448113;-0.0571020699500356;6.133351650439382e-05;0.028551034975017903;0.0
1.9775812193459918;0.0124910778015702;2.0148387679893087;0.19930505055117723;2.101815757266907;0.014746298658389511;0.023452635872336;0.15667406248543894;0.024546761855691226;2.1117765701742384;0.3420749971346839;0.0007137758743755995;5.334659932586264e-05;0.017334556949117896;-0.0652595085143265;1.0050887051958087e-05;0.007137758743754399;0.33081732691953614;2.101815757266907;0.02521539375681809;0.023452635872336;0.28690236835077687;0.08231296896528487;2.1117765701742384;0.7281236536911484;0.010910574079738833;9.753909333242172e-05;0.02753135515448113;-0.0571020699500356;3.479686413849119e-05;0.015295197308045308;0.43737550493928773;2.9112751049563776;0.028775546505933978;0.0300805547058223;0.41243498187677824;0.1701026142756984;2.9159734236387136;1.5323205071556236;0.0211073722851024;0.0001283517049743113;0.037728153359844696;-0.0571020699500356;5.804098453909846e-05;0.028551034975017903;0.0
1.671950040763996;0.023452635872336;1.7697015730395544;0.3756509616910561;2.0856035310633594;0.008542354637369144;0.023452635872336;0.3179024526049679;0.10106196937225387;2.089116636032511;0.7054637195494209;0.0007137758743755995;5.529612483162938e-05;0.017334556949117896;-0.0571020699500356;4.2542978814741695e-05;0.014275517487509007;0.3692478715018834;2.250646066533128;0.016098687977509366;0.023452635872336;0.33848383334940124;0.11457130543890522;2.362353694990798;0.978700778507708;0.0007137758743755995;4.2432505702743423e-05;0.017334556949117896;-0.0571020699500356;4.0515472288740554e-05;0.017334556949118007;0.6013522137201764;3.2816740806549296;0.024956491461563788;0.0300805547058223;0.5922009690213683;0.3507019877098477;3.375186273552255;1.991533357069165;0.04048128887529323;0.00029640369175735803;0.05710206995003553;-0.0571020699500356;9.437436359472569e-05;0.0316100744366269;0.0
1.247103322127617;0.0122361578464362;1.38365291648309;0.43050887048946296;2.250646066533128;0.018472318001380147;0.023452635872336;0.41204568564586536;0.1697816470593713;2.362353694990798;0.978700778507708;-0.0013255837666972248;4.3772262953095035e-05;0.015295197308045072;-0.0571020699500356;5.579975225395671e-05;0.017334556949118007;0.3543883440604349;2.250646066533128;0.017397734446930824;0.0300805547058223;0.3302593373033086;0.10907122987602055;2.362353694990798;0.978700778507708;0.0211073722851024;0.00017396049315848637;0.037728153359844696;-0.0571020699500356;3.718828209223177e-05;0.017334556949118007;0.6471753539233075;3.2816740806549296;0.024956491461563788;0.0300805547058223;0.592256090824752;0.35076727711901684;3.375186273552255;2.127158434873589;0.04048128887529323;0.0003035259582717604;0.05710206995003553;-0.0499643112062812;0.00010933516673527754;0.0387478331803813;0.0
2.250646066533128;-0.0193739165901906;2.362353694990798;0.4179388225330771;2.250646066533128;0.021922622105044122;0.0300805547058223;0.40797923393783003;0.16644705532449866;2.362353694990798;0.978700778507708;0.0211073722851024;0.00025404483479594064;0.037728153359844696;-0.0571020699500356;5.0254435259775274e-05;0.017334556949118007;0.6902016430403114;3.2816740806549296;0.020040286546984393;0.0300805547058223;0.6823566989911;0.4656106646580305;3.375186273552255;1.991533357069165;0.04048128887529323;0.0004868723336707895;0.05710206995003553;-0.0571020699500356;0.00011437216300499588;0.0316100744366269;0.7020553141532528;3.2816740806549296;0.022551236723509258;0.0300805547058223;0.6020016119061709;0.36240594073762794;3.375186273552255;2.127158434873589;0.04048128887529323;0.0004822469038967375;0.0825940654634445;-0.0499643112062812;0.00012449236651937382;0.0387478331803813;0.0
1.8716677452725263;0.0300805547058223;1.9717329220204856;0.8530053795096905;3.2816740806549296;0.023201450707472388;0.0300805547058223;0.8375556772279342;0.7014995124567435;3.375186273552255;1.991533357069165;0.04048128887529323;0.000467539539071936;0.046905271744672294;-0.0571020699500356;0.00017978957442073477;0.0316100744366269;0.850684214383784;3.2816740806549296;0.025751205842994517;0.0300805547058223;0.7771201935676891;0.6039157952506826;3.375186273552255;2.127158434873589;0.04048128887529323;0.0004528097908061392;0.05710206995003553;-0.0499643112062812;0.00018368862543226592;0.0387478331803813;0.7823306198248956;3.2816740806549296;0.022402825006037252;0.0300805547058223;0.626059395628096;0.39195036685421686;3.375186273552255;2.127158434873589;0.04048128887529323;0.0005320623348944692;0.0825940654634445;-0.0479249515652085;0.00015554614168679034;0.040787192821454;0.0
3.2816740806549296;-0.0142755174875089;3.375186273552255;1.0073629995212612;3.2816740806549296;0.02750734759254644;0.0300805547058223;0.886865731060406;0.7865308249293085;3.375186273552255;2.127158434873589;0.04048128887529323;0.00045428276563272267;0.045885591924136104;-0.0499643112062812;0.00026166964566294663;0.0387478331803813;0.9181088485679247;3.2816740806549296;0.025602730157178077;0.0300805547058223;0.798403233251647;0.6374477228666838;3.375186273552255;2.127158434873589;0.04048128887529323;0.0007846623546766938;0.0825940654634445;-0.0499643112062812;0.00020794938728181073;0.0387478331803813;0.809894928538924;3.2816740806549296;0.023690966520848265;0.0300805547058223;0.634134420423641;0.40212646316602707;3.375186273552255;2.127158434873589;0.04048128887529323;0.0005878967453796337;0.0825940654634445;-0.0479249515652085;0.00017232072559418947;0.040787192821454;0.0
0.8434261796625644;-0.0336494340776996;1.248027838678666;1.112208144153573;3.2816740806549296;0.0298256347506882;0.0300805547058223;0.9442792154806727;0.8916632367887948;3.375186273552255;2.127158434873589;0.04048128887529323;0.00127914866851723;0.0825940654634445;-0.0499643112062812;0.0002962412312985482;0.0387478331803813;1.0066223814478479;3.2816740806549296;0.023480143706397748;0.0300805547058223;0.7945101153368751;0.6312463233726147;3.375186273552255;2.127158434873589;0.04048128887529323;0.0009051690246065028;0.0825940654634445;-0.0479249515652085;0.00025193068269191324;0.040787192821454;0.9277874199119867;3.2816740806549296;0.02380684891027305;0.0300805547058223;0.6584187544113181;0.4335152561605517;3.375186273552255;2.127158434873589;0.04048128887529323;0.0007162239007735034;0.0825940654634445;-0.0367084735393086;0.0002260756422065369;0.0520036708473539;0.0
1.0230786023132308;-0.0326297542571632;1.5294075241278797;1.2255545187045473;3.2816740806549296;0.013664597347285975;-0.0061180789232181;0.9963475324038278;0.9927084053271967;3.375186273552255;2.127158434873589;0.04048128887529323;0.0012791486685172313;0.0825940654634445;-0.0479249515652085;0.0003648645291015453;0.040787192821454;1.0033235401923115;3.2816740806549296;0.026919676009303815;0.0300805547058223;0.7881647185835945;0.6212036236199567;3.375186273552255;2.127158434873589;0.04048128887529323;0.0009814171332764982;0.0825940654634445;-0.0479249515652085;0.00025106422691157303;0.040787192821454;1.0345891187065823;3.2816740806549296;0.028478107563513655;0.0530233506678902;0.6938694956760366;0.48145487702971745;3.375186273552255;2.28340133755661;0.04048128887529323;0.0007013555195828549;0.0825940654634445;-0.0326297542571632;0.00028744381694214606;0.0560823901294993;0.0
0.6748480295275203;-0.0061180789232181;1.4102148702712787;0.1422540252436597;1.0230786023132308;0.026319379456742786;0.0219231161415315;0.1317436865417089;0.01735639894360005;1.5294075241278797;0.28137968544921366;0.019068012644029575;0.0006987099412668736;0.06118078923218084;-0.0479249515652085;1.0050887051960122e-05;0.007137758743754399;1.1162186876194813;3.2816740806549296;0.02322934924449847;0.0219231161415315;0.8184730867949925;0.6698981938077234;3.375186273552255;2.127158434873589;0.04048128887529323;0.001106152107414372;0.0825940654634445;-0.0367084735393086;0.00031639499274927526;0.0520036708473539;1.0855118820231118;3.2816740806549296;0.033452129520044595;0.0530233506678902;0.7167316985372584;0.5137043276881034;3.375186273552255;2.28340133755661;0.04048128887529323;0.000770579560060222;0.0825940654634445;-0.0326297542571632;0.0003153436930691222;0.0560823901294993;0.0
0.8557522058615281;0.0219231161415315;1.5232874771716531;0.43777393160210093;1.0230786023132308;0.024392079102970383;0.0219231161415315;0.12855896599981287;0.016527407738941045;1.5294075241278797;0.2743572393280138;0.019068012644029575;0.0007987855838962467;0.06118078923218084;-0.0367084735393086;5.848576517301514e-05;0.018354236769654295;0.4853268853387107;1.0230786023132308;0.03371387484714497;0.0530233506678902;0.17414536564671973;0.030326608376229712;1.5294075241278797;0.4376225881322344;0.019068012644029575;0.0005524868637765506;0.06118078923218084;-0.0326297542571632;7.430724772203735e-05;0.0224329560517997;1.0457861260716244;3.2816740806549296;0.03321528649465626;0.0530233506678902;0.693452879310385;0.4808768958238634;3.375186273552255;2.28340133755661;0.04048128887529323;0.000791929030487821;0.0825940654634445;-0.0326297542571632;0.00028692394347394157;0.0560823901294993;0.0
0.02315619070131847;0.0142755174875089;1.255050284799866;0.4871293308987042;0.8557522058615281;0.024540818069502684;0.0530233506678902;0.18776321404714888;0.03525502454931544;1.5232874771716531;0.43150254117600784;0.019068012644029575;0.0006428235434348924;0.05812174977057205;-0.0326297542571632;6.611057604001558e-05;0.016314877128581602;0.8482019901493604;2.227521691218449;0.039054868608646646;0.0530233506678902;0.46672367344771293;0.2178309873565274;2.4287218664064962;1.336936930410851;0.02212705210563881;0.0008004665081101099;0.06423982869379008;-0.0326297542571632;0.0002008791081142314;0.03976751300091771;1.0665349137222346;3.2816740806549296;0.03221176999287369;0.0530233506678902;0.7369915848013006;0.5431565960679327;3.375186273552255;2.4365871504405336;0.04048128887529323;0.0007382318775941628;0.0825940654634445;-0.0326297542571632;0.0003015843752773089;0.0560823901294993;30.0
-0.14373238068659244;0.0530233506678902;1.0917849359956453;1.0833536669689385;2.227521691218449;0.04559267925030585;0.0530233506678902;0.5964840022379542;0.35579316492580776;2.4287218664064962;1.336936930410851;0.02212705210563881;0.000801644887971378;0.06118078923218129;-0.0326297542571632;0.0003198088285238221;0.03976751300091771;0.9328284700839113;2.227521691218449;0.03666265376590182;0.0530233506678902;0.49521528229077993;0.24523817581433685;2.4287218664064962;1.336936930410851;0.02212705210563881;0.000639513682353992;0.06118078923218129;-0.0326297542571632;0.00023737422558218877;0.03976751300091771;0.7443305557012104;2.227521691218449;0.03414768859584795;0.0530233506678902;0.4323902512900876;0.18696132941070515;2.4287218664064962;1.490122743294775;0.02212705210563881;0.0005768978112946914;0.06423982869379008;-0.0326297542571632;0.00015296987983324267;0.03976751300091771;30.0
2.227521691218449;-0.0550627103089629;2.4287218664064962;1.1951554410576346;2.227521691218449;0.045592679250305836;0.0530233506678902;0.6214839431594593;0.3862422916050301;2.4287218664064962;1.336936930410851;0.02212705210563881;0.0007299023493591547;0.06118078923218129;-0.0326297542571632;0.0003912914304019437;0.03976751300091771;0.9741447520468052;2.227521691218449;0.0397121328426719;0.0530233506678902;0.5655877562930122;0.31988951006856375;2.4287218664064962;1.490122743294775;0.02212705210563881;0.0005259733168981251;0.06118078923218129;-0.0326297542571632;0.00026076853165139254;0.03976751300091771;0.7578121727930309;2.227521691218449;0.03273950391719585;0.0530233506678902;0.4554386153074088;0.2074243323131299;2.4287218664064962;1.490122743294775;0.02212705210563881;0.0005823160481077561;0.06423982869379008;-0.0326297542571632;0.00015854985505863787;0.03976751300091771;0.0
1.7233481572838358;-0.0137656775772407;1.947517443907639;1.151242154936074;2.227521691218449;0.046896727453466486;0.0530233506678902;0.7078773456972914;0.5010903365514426;2.4287218664064962;1.490122743294775;0.02212705210563881;0.00020612983014309708;0.02957071479555451;-0.0326297542571632;0.0003722294032344445;0.03976751300091771;0.9922387453824325;2.227521691218449;0.04031336979708282;0.0530233506678902;0.5658233783815034;0.32015609552305796;2.4287218664064962;1.490122743294775;0.02212705210563881;0.0005259733168981269;0.06118078923218129;-0.0326297542571632;0.000269259798298733;0.03976751300091771;0.7584930420563765;2.227521691218449;0.03582368683039486;0.0571020699500356;0.4727824702098068;0.22352326413768686;2.4287218664064962;1.490122743294775;0.02212705210563881;0.0004212245894267827;0.06118078923218129;-0.0326297542571632;0.00015647036118581978;0.03976751300091771;0.0
0.2012963862043442;-0.0346691138982359;0.9385991231117213;0.8631456634182723;2.227521691218449;0.03485449738873624;0.0265116753339451;0.6287900754465109;0.3953769589800289;2.4287218664064962;1.490122743294775;0.02212705210563881;0.0001770169159236442;0.02957071479555451;-0.0387478331803813;0.00020682299476737137;0.0336494340776996;0.9347536424859945;2.227521691218449;0.03957060642141596;0.0530233506678902;0.6011279244320806;0.3613547815320212;2.4287218664064962;1.490122743294775;0.02212705210563881;0.00022500123703891924;0.034669113898235904;-0.0326297542571632;0.00024264227672666133;0.03976751300091771;0.8004272987535034;2.227521691218449;0.03561166790648604;0.0571020699500356;0.4899528829879002;0.24005382754815502;2.4287218664064962;1.490122743294775;0.025186091567248048;0.00040736129694133;0.06423982869379052;-0.0326297542571632;0.0001787902620874004;0.03976751300091771;0.0
1.2709922165472847;0.0265116753339451;1.5733391882359036;0.7146538169896399;1.7233481572838358;0.025527235083335154;0.0265116753339451;0.4840169512413786;0.23427240908899907;1.947517443907639;1.0089183207959178;0.019068012644029797;0.0002359359089868209;0.03161007443662689;-0.0387478331803813;0.0001389795071666822;0.02549199551340879;0.8043870850744405;2.227521691218449;0.04076987583170338;0.0571020699500356;0.6061468004947538;0.36741394375002684;2.4287218664064962;1.490122743294775;0.02212705210563881;0.00020628579218355536;0.034669113898235904;-0.0387478331803813;0.0001769302703456094;0.0336494340776996;0.8153531288200994;2.227521691218449;0.0352959567359177;0.0571020699500356;0.5009705676435381;0.25097150964508874;2.4287218664064962;1.490122743294775;0.025186091567248048;0.0003810556994501815;0.06423982869379052;-0.0326297542571632;0.00018588653492839218;0.03976751300091771;0.0
0.42193797528819044;-0.0020393596410727;0.9931378706581674;0.46227556606541387;1.2709922165472847;0.03924111635544779;0.0571020699500356;0.29270821507143235;0.08567809917030389;1.5733391882359036;0.6347400651241822;0.019068012644029797;0.00019226653765764133;0.03161007443662689;-0.0387478331803813;5.5019942051652374e-05;0.017334556949118;0.6693050405386323;1.7233481572838358;0.032174762977803854;0.0571020699500356;0.41142757179041894;0.16927264682936036;1.947517443907639;1.0089183207959178;0.025186091567248048;0.000227808553767224;0.03772815335984514;-0.0336494340776996;0.00012951781004535734;0.03059039461609049;0.7898834134027086;2.227521691218449;0.03650052604450422;0.0571020699500356;0.5022404334291547;0.2522454529711051;2.4287218664064962;1.490122743294775;0.025186091567248048;0.00018525979858061836;0.03772815335984514;-0.0326297542571632;0.0001775685594371199;0.03976751300091771;0.0
0.5665558428199922;0.0571020699500356;1.0556153641783812;0.5368782219224673;1.2709922165472847;0.025134297472707047;0.0571020699500356;0.27704297057872085;0.07675280754708198;1.5733391882359036;0.5802013175777362;0.025186091567248048;0.00029762756054709037;0.03772815335984514;-0.0336494340776996;8.49126664734122e-05;0.0224329560517997;0.4573513613846741;1.2709922165472847;0.030411427127575608;0.0571020699500356;0.2367387897197467;0.05604525455797046;1.5733391882359036;0.6347400651241822;0.025186091567248048;0.0002319328832816467;0.03772815335984514;-0.0336494340776996;6.0140695713464394e-05;0.0224329560517997;0.7632662459378299;2.227521691218449;0.03273407811248306;0.0571020699500356;0.547950797021108;0.3002500759560675;2.4287218664064962;1.8179637417336059;0.025186091567248048;0.00020813423118161745;0.03772815335984514;-0.0336494340776996;0.0001683494699342929;0.0387478331803813;0.0
-0.023184414481226767;0.0132558376669725;1.0162268386455169;0.26076184007915487;0.5665558428199922;0.025841390634188166;0.0571020699500356;0.027784524078808957;0.0007719797782859147;1.0556153641783812;0.06247749352021381;0.025186091567248048;0.0002637491395357632;0.03772815335984514;-0.0336494340776996;2.5018910657349943e-05;0.011216478025899798;0.4860368030140894;1.2709922165472847;0.027439935734549618;0.0571020699500356;0.22560431102121786;0.05089730515135841;1.5733391882359036;0.5802013175777362;0.025186091567248048;0.00020937037476156858;0.03772815335984514;-0.0336494340776996;7.005294984056376e-05;0.0224329560517997;0.6199981396707124;1.7233481572838358;0.02917944656205051;0.0571020699500356;0.41829831649515437;0.17497348158268033;1.947517443907639;1.4212146160878911;0.025186091567248048;0.00021991802979425348;0.03772815335984514;-0.0316100744366268;0.00011243419024296205;0.032629754257163295;0.0
0.1801462083721077;0.0101967982053635;1.001006002325094;0.4410152369226785;0.9751118812153381;0.03343114283212117;0.0571020699500356;0.08990648463377876;0.008083175979203897;1.1981067477223604;0.1971007453972664;0.025186091567248048;0.00018056938462303863;0.029570714795554287;-0.0336494340776996;6.400942077268906e-05;0.018354236769654295;0.3669266624235556;0.9751118812153381;0.030320118451972775;0.0571020699500356;0.1957292109140719;0.03830992400504524;1.1981067477223604;0.58734862304947;0.025186091567248048;0.0002509602522179313;0.03772815335984514;-0.0336494340776996;4.579218799101956e-05;0.018354236769654295;0.4546008236074834;1.2709922165472847;0.03009639301923644;0.0571020699500356;0.316787319970881;0.10035420609433333;1.5733391882359036;1.0470363604161557;0.025186091567248048;0.0002241232285148414;0.03772815335984514;-0.0316100744366268;6.100137512192783e-05;0.024472315692872504;0.0
0.9751118812153381;-0.0244723156928724;1.1981067477223604;0.45313203823166087;0.9751118812153381;0.020936570379946267;0.0132558376669725;0.2472915566764046;0.061153114003439424;1.1981067477223604;0.58734862304947;0.025186091567248048;0.0002554311640444906;0.029570714795554287;-0.0336494340776996;6.868828198652997e-05;0.018354236769654295;0.43408054661240447;0.9751118812153381;0.033501823228331104;0.0571020699500356;0.26836333391442496;0.07201887898966516;1.1981067477223604;0.6718039199026125;0.025186091567248048;0.0002509602522179313;0.03772815335984514;-0.0316100744366268;5.95168475516194e-05;0.020393596410727098;0.7195518402935606;1.2709922165472847;0.028157649937216814;0.0571020699500356;0.35194049157931906;0.12386210961309274;1.5733391882359036;1.0470363604161557;0.025186091567248048;0.0002128593033704091;0.03772815335984514;-0.0112164780258998;0.00015457859939874198;0.044865912103599505;0.0
0.09605256967052567;-0.0244723156928724;0.6107581246728904;0.5059776485763661;0.9751118812153381;0.018342431123118792;0.0101967982053635;0.31884123827477373;0.10165973522459103;1.1981067477223604;0.6718039199026125;0.025186091567248048;0.0002650488232062746;0.03772815335984514;-0.0316100744366268;7.82192955702801e-05;0.020393596410727098;0.4242551687592324;0.9751118812153381;0.019864137594348998;0.0132558376669725;0.2838296949602857;0.08055929574124884;1.1981067477223604;0.6718039199026125;0.025186091567248048;0.00025678283506182177;0.03772815335984514;-0.0316100744366268;5.5704442118119615e-05;0.020393596410727098;0.675019442211663;0.9751118812153381;0.026473300627512353;0.0571020699500356;0.28856309598957797;0.08326866036709038;1.4352723694212968;0.9089695416015489;0.025186091567248048;0.00019112859239946023;0.03772815335984514;-0.0112164780258998;0.00013932897766474238;0.0407871928214541;0.0
-0.2126523055862637;-0.0295707147955541;0.5263028278197479;0.5132696086647427;0.9751118812153381;0.00249769526132623;-0.0244723156928724;0.315126176119902;0.09930450687595149;1.1981067477223604;0.6718039199026125;0.025186091567248048;0.00027657268508480756;0.03772815335984514;-0.0316100744366268;7.997386852547019e-05;0.020393596410727098;0.7897249255827749;0.9751118812153381;0.015477651441631626;0.0101967982053635;0.37739259197023567;0.1424251684740128;1.4352723694212968;0.9089695416015489;0.025186091567248048;0.00019408609479635598;0.03772815335984514;-0.0112164780258998;0.0001876136701172146;0.0407871928214541;0.9946831088698813;0.9751118812153381;0.026476791535502406;0.0571020699500356;0.5459696371506035;0.29808284469036167;2.3912902595344514;1.8649874317147035;0.025186091567248048;0.0001776349877136183;0.03772815335984514;0.0061180789232181;0.0002995886387965893;0.058121749770571995;0.0
0.4885822693817854;-0.0275313551544814;0.5780462464804196;0.7950379190253071;0.4885822693817854;0.00974492450075199;-0.0081574385642908;0.43318261533301367;0.18764717822674967;1.4352723694212968;0.9089695416015489;0.025186091567248048;0.00028731673676103507;0.03772815335984514;-0.0112164780258998;0.000183948562166376;0.0316100744366269;0.8368608328140684;0.9751118812153381;0.011704870267862722;-0.0010196798205363;0.3737056474673628;0.13965591094900082;1.4352723694212968;0.9089695416015489;0.025186091567248048;0.00018077733401032032;0.03772815335984514;-0.0112164780258998;0.00021044477992919678;0.0407871928214541;1.5884732246789415;0.9751118812153381;0.015636568308566134;0.0132558376669725;1.174457653046195;1.3793507787987767;4.360721844925817;3.834419017106069;0.025186091567248048;0.00045933709101804443;0.07341694707861757;0.0428265524625267;0.000791388939718066;0.0948302233098806;0.0
-1.358894810290871;-0.0081574385642908;1.4352723694212968;0.7806435508106396;0.4885822693817854;0.014162786207131305;-0.0010196798205363;0.4175276163307438;0.1743293103988328;1.4352723694212968;0.9089695416015489;0.01498929336188437;0.0001444381785828238;0.027531355154481463;-0.0112164780258998;0.0001805693846230466;0.0316100744366269;1.0419536901519355;0.4885822693817854;0.012428665918720659;-0.0010196798205363;0.7291688721305016;0.5316872440840679;2.3912902595344514;1.8649874317147035;0.025186091567248048;0.00021072204577890098;0.03772815335984514;0.0061180789232181;0.00032304937314229663;0.0489446313857448;1.5918730744722758;0.9751118812153381;0.013539959024176911;0.0101967982053635;1.1692259003904937;1.3670892061439606;4.360721844925817;3.834419017106069;0.025186091567248048;0.0003825806616235804;0.07341694707861757;0.0428265524625267;0.0007951320286891383;0.0948302233098806;0.0
-0.7047361304249471;-0.0010196798205363;0.8947260429462917;1.189728184038475;0.4885822693817854;0.011611223855435615;-0.0010196798205363;0.7941893960653945;0.630736796822716;2.3912902595344514;1.8132440130540317;0.01498929336188437;0.00010908678274491608;0.023452635872336036;0.0061180789232181;0.00042101086366763875;0.0489446313857448;1.7319135819652447;0.4885822693817854;0.011846146132139575;-0.0010196798205363;1.4773072862602625;2.182436818037661;4.360721844925817;3.834419017106069;0.01498929336188437;0.0004902060222856538;0.06322014887325389;0.0428265524625267;0.0009501900669530184;0.0856531049250534;1.7545790382852302;0.9751118812153381;0.013539959024176911;0.0101967982053635;1.3396901524430536;1.7947697045528923;4.360721844925817;3.834419017106069;0.025186091567248048;0.00038476413019003985;0.07341694707861757;0.0428265524625267;0.0009574451900203932;0.0948302233098806;0.0
-2.3475875972174935;-0.0061180789232181;2.3912902595344514;1.5854228764868716;-0.7047361304249471;0.007276018703853471;-0.0010196798205363;1.5246832265058876;2.324658941188404;4.360721844925817;3.4659958019795254;0.00785153461813004;0.0006033131598513533;0.05608239012949956;0.0428265524625267;0.0008140352056302587;0.06525950851432641;1.6291292649978557;0.4885822693817854;0.010372036911191583;-0.0010196798205363;1.3648735993517793;1.8628799422074813;4.360721844925817;3.7826755984453975;0.01498929336188437;0.0005021631120543579;0.06322014887325389;0.0428265524625267;0.0008366843597283652;0.0856531049250534;1.5866368763584213;0.4885822693817854;0.013973293166389952;0.0101967982053635;1.338011936143075;1.79027594126134;4.360721844925817;3.834419017106069;0.025186091567248048;0.000385815429870187;0.07341694707861757;0.0428265524625267;0.0007814737974050308;0.0856531049250534;0.0
-4.339218812384561;-0.0183542367696543;4.360721844925817;1.5409524888493638;-0.7047361304249471;0.00795851226944559;-0.0010196798205363;1.4829486703912915;2.1991367590152993;4.360721844925817;3.4659958019795254;0.00785153461813004;0.0006453362651978862;0.05608239012949956;0.0428265524625267;0.0007694127329427045;0.06525950851432641;1.397028340877419;-0.7047361304249471;0.00939913992679934;0.0101967982053635;1.350187588772526;1.823006524875368;4.360721844925817;3.4659958019795254;0.00785153461813004;0.0004015156086099622;0.05608239012949956;0.0428265524625267;0.0006231896554523761;0.06525950851432641;1.4715591295541932;0.4885822693817854;0.013973293166389952;0.0101967982053635;1.2659775445248294;1.6026991432411164;4.360721844925817;3.834419017106069;0.03232385031100238;0.0004365204221357341;0.0805547058223719;0.0428265524625267;0.0006781922683883986;0.0856531049250534;30.0
-1.6484972950966383;-0.0020393596410727;1.689781705772325;1.215691698581603;-1.6484972950966383;0.011774248377477751;0.0101967982053635;1.2059235955164906;1.4542517182234205;4.360721844925817;2.670940139153492;0.002753135515448202;0.0005062701124531728;0.05098399102681772;0.0428265524625267;0.000483482325430219;0.0489446313857448;1.3160148275803465;-0.7047361304249471;0.013767565743709638;0.0101967982053635;1.2680754544734425;1.6080153582380277;4.360721844925817;3.4659958019795254;0.00785153461813004;0.0003916380127140759;0.05608239012949956;0.0428265524625267;0.0005533186613256891;0.06525950851432641;1.393664681824415;0.4885822693817854;0.013227046199602849;0.0101967982053635;1.1880570445904828;1.4114795412010723;4.360721844925817;3.7826755984453975;0.03232385031100238;0.00044372933422817055;0.0805547058223719;0.0428265524625267;0.000603850362435152;0.0856531049250534;0.0
-3.6232494257039547;0.0101967982053635;3.6528642475437705;1.2261558337686944;-1.6484972950966383;0.01717386233868287;0.0101967982053635;1.2133903888924866;1.4723162358566597;4.360721844925817;2.670940139153492;0.002753135515448202;0.0005112089104011138;0.05098399102681772;0.0428265524625267;0.0004917136553434577;0.0489446313857448;1.0890697849677813;-1.6484972950966383;0.014800000718586812;0.0101967982053635;1.0596616936283763;1.1228829049433589;4.360721844925817;2.670940139153492;0.03232385031100238;0.0006677947990243191;0.0805547058223719;0.0428265524625267;0.00038539953109562877;0.0489446313857448;1.0755025987119213;-0.7047361304249471;0.019442667714259648;0.0367084735393086;1.0392836216297117;1.0801104461877695;4.360721844925817;3.4659958019795254;0.03232385031100238;0.00047324659447844957;0.0805547058223719;0.0428265524625267;0.00036789712433272625;0.06525950851432641;0.0
-2.2898395545631387;-0.0285510349750178;2.3494777279210837;0.9195627807506642;-1.6484972950966383;0.01842961382920485;0.0101967982053635;0.8890698387295451;0.7904451781385795;3.6528642475437705;1.9630825417714455;0.03232385031100238;0.0003537738951131842;0.039767513000918076;0.0285510349750178;0.0002595901517901368;0.0346691138982359;1.0793127715011395;-1.6484972950966383;0.015096772120584608;0.0101967982053635;1.049975857742306;1.102449301841691;4.360721844925817;2.670940139153492;0.03232385031100238;0.0007177026519719545;0.0805547058223719;0.0428265524625267;0.0003776360873037747;0.0489446313857448;1.4238516190413117;-0.7047361304249471;0.020675180072861118;0.0367084735393086;1.383965980308465;1.9153618346511705;5.5873287421598885;4.692602699213597;0.03232385031100238;0.000513507906404955;0.0805547058223719;0.0632201488732537;0.0006436726700996178;0.0856531049250534;0.0
-1.6982247827306314;-0.0244723156928724;1.8565265546701604;0.8180935128756849;-1.6982247827306314;0.01785653177874801;0.0101967982053635;0.7761473663369188;0.6024047342717352;3.6528642475437705;1.7963376928736101;0.03232385031100238;0.0003607921869339464;0.039767513000918076;0.0285510349750178;0.00020413698184832175;0.0336494340776995;0.7447920038699477;-1.6484972950966383;0.025365240078696557;0.0367084735393086;0.726343841597743;0.5275753762269673;3.6528642475437705;1.9630825417714455;0.03232385031100238;0.0002609418228074611;0.039767513000918076;0.0285510349750178;0.00016954806709711088;0.0346691138982359;1.5713620434712268;-1.6484972950966383;0.020603532916670785;0.0367084735393086;1.5424452093464978;2.3791372238359614;6.057351034461943;4.367569328689618;0.03232385031100238;0.000503884470871302;0.0805547058223719;0.0703579076170082;0.0007729825307576893;0.0764759865402263;0.0
-2.8275319842331554;-0.0224329560517997;2.9549477093174357;0.4615088984320309;-1.6982247827306314;0.031034694221578986;0.0367084735393086;0.4492517112307728;0.20182710004377766;2.9549477093174357;1.0984211546472753;0.03232385031100238;0.00028792325580727693;0.039767513000918076;0.0142755174875089;6.273139849669125e-05;0.0193739165901906;1.3908543311918553;-1.6982247827306314;0.026983330434474494;0.0367084735393086;1.349656808606627;1.8215735010182255;5.5873287421598885;3.7308021874897284;0.03232385031100238;0.0004012383427602538;0.05200367084735391;0.0632201488732537;0.0006126188949322188;0.0683185479759354;1.5390383077885483;-1.6484972950966383;0.029325719029401398;0.0571020699500356;1.5079739533938135;2.273985444114167;6.057351034461943;4.367569328689618;0.03232385031100238;0.0004993211370948403;0.0805547058223719;0.0703579076170082;0.0007412702491972134;0.0764759865402263;0.0
-2.2388117639792395;0.0367084735393086;2.398911739673929;1.7091715233045224;-1.6982247827306314;0.031034694221578986;0.0367084735393086;1.653889470496092;2.735350380617844;5.5873287421598885;3.7308021874897284;0.03232385031100238;0.0005062701124531708;0.05200367084735391;0.0632201488732537;0.0009270210393867092;0.0683185479759354;1.8604479977134618;-1.6982247827306314;0.025551068497642847;0.0367084735393086;1.8124125581213069;3.2848392808358198;6.057351034461943;4.200824479791783;0.03232385031100238;0.0003707390992922532;0.05200367084735391;0.0703579076170082;0.0010744398258539039;0.0754563067196899;1.538092364043313;-1.6484972950966383;0.03159801140582094;0.0571020699500356;1.512605114467893;2.2879742323144274;6.057351034461943;4.367569328689618;0.03232385031100238;0.00023752441125077966;0.05200367084735391;0.0703579076170082;0.0007337407484660518;0.0764759865402263;0.0
-5.5464106984312735;-0.0285510349750178;5.5873287421598885;1.904017485014523;-2.2388117639792395;0.029440035955735;0.0367084735393086;1.8401678887202406;3.386217858677108;6.057351034461943;3.6584392947880144;0.02212705210563881;0.0003209352210382579;0.041806872641990345;0.0703579076170082;0.001132197768171431;0.0662791883348628;1.7827423138224991;-1.6982247827306314;0.03604391484069256;0.0571020699500356;1.7304133550618357;2.9943303793763585;6.057351034461943;4.200824479791783;0.03232385031100238;0.00035049869226348886;0.05200367084735391;0.0703579076170082;0.000986823817345835;0.0754563067196899;1.6796175520506562;-0.5980355180999537;0.03374987883800243;0.0571020699500356;1.6305792972237576;2.658788844534723;6.057351034461943;5.244268317820701;0.03232385031100238;0.0004297736197928129;0.07341694707861746;0.0703579076170082;0.0008830021975594383;0.09584990313041691;30.0
-6.027425468880795;-0.003059039461609;6.057351034461943;1.8206368394819126;-2.2388117639792395;0.03858088108179461;0.0571020699500356;1.7769622337158837;3.157594780052543;6.057351034461943;3.6584392947880144;0.02212705210563881;0.00029624123129854356;0.041806872641990345;0.0703579076170082;0.0010321221255420612;0.0662791883348628;1.694878432973928;-2.145294635085275;0.039199583404517305;0.0571020699500356;1.66317165041553;2.766139938745918;6.057351034461943;3.8623921126614054;0.02212705210563881;0.00020826131136273126;0.041806872641990345;0.0703579076170082;0.00089519611857479;0.06780870806566741;1.8297789750742977;-0.5637184432115654;0.03368289178170921;0.0571020699500356;1.784746925604583;3.185321588455011;6.057351034461943;5.378932606530793;0.03232385031100238;0.0004500486850527881;0.07341694707861746;0.0703579076170082;0.0010470973696122608;0.09584990313041691;30.0
-3.2206157159488136;0.0571020699500356;3.244031595954364;1.8554811643050677;-2.145294635085275;0.043842279857555094;0.0571020699500356;1.8518803065949554;3.429460669954226;6.057351034461943;3.8623921126614054;0.0007137758743755995;7.997386852546283e-05;0.020393596410727133;0.0703579076170082;0.0010690981259681095;0.06780870806566741;2.1095733352504475;-0.5980355180999537;0.039437580858149385;0.0571020699500356;2.0501159049366757;4.202975223674325;6.057351034461943;5.244268317820701;0.02212705210563881;0.0004497598664593411;0.06322014887325389;0.0703579076170082;0.0013980177370222012;0.09584990313041691;2.0532366441992527;0.22050404021781445;0.03258085796309246;0.0571020699500356;1.9395841777916785;3.7619867827398212;6.057351034461943;5.648399643702737;0.03232385031100238;0.0004478305582551151;0.07341694707861746;0.0703579076170082;0.001311377935359964;0.10910574079738951;30.0
-2.145294635085275;-0.0418068726419903;2.194958921800538;2.2886613469757906;-0.5980355180999537;0.04312494274690273;0.0571020699500356;2.2221393044430404;4.9379030883506;6.057351034461943;5.244268317820701;0.0007137758743755995;0.00038020079641357796;0.04180687264199068;0.0703579076170082;0.0016269223573515557;0.09584990313041691;2.371998697639303;-0.5637184432115654;0.037608081014553485;0.0571020699500356;2.3180387871936294;5.3733038189341125;6.057351034461943;5.378932606530793;0.0007137758743755995;0.00023903782068044132;0.04180687264199068;0.0703579076170082;0.001763870025713328;0.09584990313041691;2.2182712491170906;0.23857167339535446;0.03292511596619735;0.0571020699500356;2.0479010137753986;4.193898562222305;6.057351034461943;5.648399643702737;0.02212705210563881;0.0003049029009160196;0.06322014887325389;0.0703579076170082;0.0015283009163401702;0.1096155807076577;30.0
-0.5980355180999537;0.0326297542571632;0.8130827166412422;1.2906689843643695;-0.5637184432115654;0.04452861335963698;0.0571020699500356;1.218607410257341;1.4850040203341035;3.244031595954364;2.5656131680232144;-0.003364943407770049;0.0003080250299111816;0.03772815335984503;0.0214132762312633;0.000527389972098986;0.046905271744672;2.309612891354365;0.22050404021781445;0.03524022901240793;0.0571020699500356;2.16376222763677;4.681866977747637;6.057351034461943;5.648399643702737;0.0007137758743755995;0.0002626054179057134;0.04180687264199068;0.0703579076170082;0.001642566216465605;0.10910574079738951;2.433495581078099;1.0149903735365644;0.03299749300403421;0.0571020699500356;2.0845204941634834;4.345225690587572;6.057351034461943;5.648399643702737;0.02212705210563881;0.0003023381918062114;0.06322014887325389;0.0703579076170082;0.0018495249559718758;0.1244009381054348;30.0
-0.5637184432115654;-0.0132558376669725;0.6784184279311497;0.9907315046443288;0.22050404021781445;0.03066253686908299;0.0326297542571632;0.7986117590441428;0.63778074168358;2.194958921800538;1.786007531041332;0.0007137758743755995;0.0003475354134947277;0.04180687264199068;0.0025491995513408;0.00030245805152249566;0.041297032731722104;1.3869143331095093;0.23857167339535446;0.037722181789209906;0.0571020699500356;1.157900758282387;1.3407341660309267;3.244031595954364;2.8350802051951582;0.0007137758743755995;0.0002452156503942722;0.04180687264199068;0.0214132762312633;0.0005937648171519966;0.060670949321912804;2.6105793560005313;1.1667018604622927;0.03258369453439882;0.0571020699500356;2.1090301200513086;4.448008047283637;6.057351034461943;5.648399643702737;0.005812174977057216;0.0002156464027971731;0.046905271744672294;0.0703579076170082;0.0021175486106906516;0.1254206179259711;0.0
0.22050404021781445;-0.0071377587437544;0.408951390759206;0.4681610332915611;0.23857167339535446;0.026076704094104987;0.0326297542571632;0.18914773837523116;0.035776866932464894;0.8130827166412422;0.4041313258820362;0.0007137758743755995;0.00035132615753372007;0.04180687264199068;-0.0254919955134087;6.089017996346194e-05;0.0137656775772408;1.0819877222706054;1.0149903735365644;0.025672181924380255;0.0326297542571632;0.6624368455716492;0.438822574370917;2.194958921800538;1.786007531041332;0.0007137758743755995;0.00025665286669477325;0.04180687264199068;0.0025491995513408;0.00036807041548880684;0.0565922300397674;2.250662679319122;1.1667018604622927;0.03319071303646728;0.0571020699500356;1.7749781731462688;3.1505475151456657;6.057351034461943;5.648399643702737;0.02824513102885695;0.000350305183805882;0.06933822779647203;0.0703579076170082;0.0015519262772841326;0.1254206179259711;0.0
0.23857167339535446;-0.0285510349750178;0.45973759535139014;0.64455131900205;1.0149903735365644;0.009686958295095215;-0.0071377587437544;0.3092532433383553;0.09563756851529198;1.088308633226796;0.67935724246759;0.0007137758743755995;0.0001459761375929309;0.026511675333945384;-0.0254919955134087;0.0001360985416970488;0.028551034975017896;0.7493706337353185;1.1667018604622927;0.026605633131111073;0.0326297542571632;0.33990689629040916;0.11553669814577897;1.2607425782895374;0.8517911875303315;0.005812174977057216;0.00031799793594290644;0.046905271744672294;-0.0254919955134087;0.000169314124036415;0.029570714795554197;1.6113829602471594;2.2815463062132775;0.034066734873367276;0.0571020699500356;0.956569000622706;0.9150242529523225;3.244031595954364;2.8350802051951582;0.02824513102885695;0.00041659482737382646;0.06933822779647203;0.0214132762312633;0.000781439139173818;0.0948302233098806;0.0
1.0149903735365644;-0.023452635872336;1.088308633226796;0.5011730660471625;1.1667018604622927;0.015957799154087005;-0.0071377587437544;0.4335990588841027;0.18800814386517958;1.2607425782895374;0.8517911875303315;0.005812174977057216;0.00019363120551167874;0.031610074436627;-0.0387478331803813;8.08186629112996e-05;0.016314877128581595;0.6248270944816855;1.1667018604622927;0.014430060745939948;-0.0071377587437544;0.3448697366495137;0.11893513525670493;1.2607425782895374;0.8517911875303315;0.02824513102885695;0.0003533493317808104;0.054043030488426735;-0.0254919955134087;0.00012148576496159847;0.029570714795554197;1.2612364727777428;2.2815463062132775;0.023780144095976438;0.0326297542571632;0.6915097430959312;0.47818572479660076;2.320110024357848;1.911158633598642;0.05169776690119299;0.0007278950601346939;0.09279086366880807;0.0025491995513408;0.0004592677745556077;0.0759661466299581;0.0
1.1667018604622927;-0.0458855919241358;1.2607425782895374;0.45416038070291653;1.1667018604622927;0.009815797612721147;-0.023452635872336;0.3762512790977939;0.14156502502272597;1.2607425782895374;0.8010049829381473;0.02824513102885695;0.0005024360456251643;0.054043030488426735;-0.0392576730906495;7.09410670154136e-05;0.015805037218313396;0.7924050579713249;2.2815463062132775;0.013599129448459354;-0.0071377587437544;0.7197130340602356;0.5179868513961898;2.320110024357848;1.911158633598642;0.02824513102885695;0.0003620832060466461;0.054043030488426735;-0.0387478331803813;0.00018338536590914973;0.034669113898236;0.9312235249311379;2.2815463062132775;0.02769577536773732;0.0326297542571632;0.6025378461677842;0.3630518560645123;2.320110024357848;1.911158633598642;0.05169776690119299;0.0007722113851131953;0.09279086366880807;-0.0254919955134087;0.00023928331648486538;0.0479249515652086;0.0
0.4017378486217571;-0.0367084735393086;0.6324784890549799;0.783421283008263;2.2815463062132775;0.009285060589135322;-0.023452635872336;0.7141384438315661;0.5099937169581709;2.320110024357848;1.687631535302868;0.02824513102885695;0.0005665754347648971;0.054043030488426735;-0.040787192821454;0.00017978957442073545;0.0326297542571633;0.755793023900193;2.2815463062132775;0.014995419437750374;-0.003059039461609;0.6770982098208986;0.4584619857426656;2.320110024357848;1.8603724290064578;0.05169776690119299;0.0007242617222291299;0.07749566636076277;-0.0392576730906495;0.00015912460405960482;0.0341592739879678;0.842017065264784;2.2815463062132775;0.023543835653672428;0.0326297542571632;0.624196399439103;0.38962114507274026;2.320110024357848;1.911158633598642;0.05169776690119299;0.0005311980452535765;0.07749566636076277;-0.0254919955134087;0.0001972313292789884;0.0479249515652086;0.0
2.2815463062132775;-0.037728153359845;2.320110024357848;0.7849196498148585;2.2815463062132775;0.01897399211372319;-0.003059039461609;0.7028650471742113;0.49401927453920624;2.320110024357848;1.687631535302868;0.05169776690119299;0.00036902351684717726;0.04588559192413577;-0.040787192821454;0.0001802228023109057;0.0326297542571633;0.6234786155482162;2.2815463062132775;0.029416776114014123;0.0326297542571632;0.5652142961885231;0.3194672006158875;2.320110024357848;1.687631535302868;0.05169776690119299;0.0006694583941225718;0.07749566636076277;-0.040787192821454;0.00010969330179115791;0.0326297542571633;0.8223830131521571;2.2815463062132775;0.031506658116613864;0.0499643112062812;0.6093056509690087;0.3712533763027674;2.320110024357848;1.911158633598642;0.05169776690119299;0.00044004689716171794;0.07749566636076277;-0.0265116753339451;0.00019168601228480655;0.046905271744672204;0.0
1.568644711057675;-0.003059039461609;1.594295241918545;0.7756494341071178;2.2815463062132775;0.033375373424221345;0.0326297542571632;0.6913728646318413;0.47799643794923835;2.320110024357848;1.687631535302868;0.05169776690119299;0.000200584513148912;0.031610074436627;-0.040787192821454;0.0001784898907502239;0.0326297542571633;0.6147928587713748;2.2815463062132775;0.030588128577003253;0.0326297542571632;0.5530650867774339;0.30588099021213055;2.320110024357848;1.687631535302868;0.05169776690119299;0.00022624893336260763;0.04588559192413577;-0.040787192821454;0.00011090633988363504;0.0326297542571633;0.783380379054745;2.2815463062132775;0.03326598517867195;0.0499643112062812;0.5485329497848146;0.3008883969996299;2.320110024357848;1.8603724290064578;0.05169776690119299;0.00047967280818264103;0.07749566636076277;-0.0265116753339451;0.000174564846065271;0.046905271744672204;0.0
1.347045819150392;0.0326297542571632;1.4860443036261246;0.4062633039637279;2.2815463062132775;0.02886942699656301;0.0326297542571632;0.374045788669729;0.13991025202155957;2.320110024357848;0.8340657207317232;0.05169776690119299;0.00022666483213717263;0.031610074436627;-0.0571020699500356;5.372025838113793e-05;0.016314877128581706;0.9826781750703023;2.2815463062132775;0.03560809922924297;0.0499643112062812;0.6030624670699668;0.36368433918851484;2.320110024357848;1.687631535302868;0.05169776690119299;0.00017412295361730122;0.03772815335984503;-0.0265116753339451;0.00027782038140850067;0.046905271744672204;0.7501638474864644;2.2815463062132775;0.03457167418777885;0.0499643112062812;0.4688845500782676;0.21985272130209946;2.320110024357848;1.687631535302868;0.05169776690119299;0.0008013445166341918;0.09686958295095349;-0.0265116753339451;0.00015782203220315102;0.046905271744672204;0.0
1.5763169578764318;0.003059039461609;1.6947379078164249;0.9853285106076072;1.5763169578764318;0.02499602494805525;0.0499643112062812;0.36038053564211564;0.12987413046969817;1.6947379078164249;0.8033650833984534;0.05169776690119299;0.0002734534442755794;0.03772815335984503;-0.0265116753339451;0.00026894787421781013;0.034669113898235904;0.926752867523811;2.2815463062132775;0.037217149413313666;0.0499643112062812;0.4599354997374598;0.21154066391874687;2.320110024357848;1.4287371999398764;0.05169776690119299;0.0003857114551765417;0.061180789232181065;-0.0265116753339451;0.00024388997305035197;0.046905271744672204;0.7773463629117477;2.2815463062132775;0.03997237383398085;0.0499643112062812;0.5107152219517107;0.2608300379331851;2.320110024357848;1.687631535302868;0.05169776690119299;0.0006749112891668512;0.09686958295095349;-0.0265116753339451;0.00017243914121750165;0.046905271744672204;30.0
-0.4618159459430131;0.0499643112062812;0.8913728244179715;0.9137277766414392;1.5763169578764318;0.041052930934843454;0.0499643112062812;0.3444281445647833;0.11863074676833928;1.6947379078164249;0.8033650833984534;0.024166411746711636;0.00023186356681921785;0.033649434077699714;-0.0265116753339451;0.00024286755522955026;0.034669113898235904;0.77861520802693;1.5763169578764318;0.038985476955034494;0.0499643112062812;0.29664561960857877;0.0879986236329576;1.6947379078164249;0.8033650833984534;0.05169776690119299;0.0010999482840271316;0.09686958295095349;-0.0265116753339451;0.0001633095854786508;0.034669113898235904;0.8218976936244767;2.2815463062132775;0.03823217687617736;0.0499643112062812;0.5710194646954474;0.3260632290610753;2.323461416929021;1.6909829278740411;0.05169776690119299;0.0006717227318951969;0.09686958295095349;-0.0265116753339451;0.00019376550615762508;0.046905271744672204;0.0
0.9462210409059444;-0.0438462322830631;1.4629924087429858;0.8526302198647251;1.5763169578764318;0.04544920879765272;0.0499643112062812;0.34759931892245954;0.12082528651535773;1.6947379078164249;0.8033650833984534;0.0211073722851024;0.0008917562891268268;0.0662791883348629;-0.0265116753339451;0.00021557419814881325;0.034669113898235904;0.8006800620024271;1.6952357534578368;0.04414518867228308;0.0499643112062812;0.4158437026836314;0.17292598506163243;2.1003688392931203;1.2089960148751489;0.024166411746711636;0.0006710180145271864;0.06933822779647214;-0.0265116753339451;0.00018761367011721245;0.0382379932701132;1.2508167645326802;2.2815463062132775;0.03682175386671759;0.0499643112062812;0.49940392086777086;0.24940427617810274;2.323461416929021;1.4320885925110496;0.05169776690119299;0.0007010320427581934;0.09686958295095349;-0.003059039461609;0.0004562207383947439;0.0703579076170083;0.0
0.6228592027726827;-0.0458855919241358;1.1842693613408168;0.895709111677431;1.6952357534578368;0.05475658483042517;0.0499643112062812;0.5161865133996356;0.26644851661567215;2.1003688392931203;1.2089960148751489;0.013969613541347958;0.0006287003142153389;0.05914142959110846;-0.0265116753339451;0.00025272348973092866;0.0382379932701132;0.8933629519124787;1.954725833903184;0.04283626259811516;0.0499643112062812;0.5433140577951594;0.29519016539784176;2.323461416929021;1.4320885925110496;0.0211073722851024;0.0005803520816723167;0.0662791883348629;-0.0265116753339451;0.00023336253531921038;0.04180687264199041;2.1724610975650895;1.954725833903184;0.03435781359656639;0.0499643112062812;1.1814025439524203;1.3957119708572503;5.1124313491024145;4.221058524684443;0.05169776690119299;0.0007010320427581934;0.09686958295095349;0.0509839910268175;0.0013934948378488059;0.119302539002753;0.0
1.6952357534578368;0.0499643112062812;2.1003688392931203;0.6240902129571182;1.954725833903184;0.04725494510730586;0.0499643112062812;0.5331595490281582;0.284259104719909;2.323461416929021;1.1391920555882042;0.011930253900275356;0.00059646815918666;0.05710206995003586;-0.0479249515652085;9.641486695743396e-05;0.020393596410727008;1.4212905842211627;1.954725833903184;0.04401270110993502;0.0499643112062812;0.6019489716994626;0.36234256453004043;2.323461416929021;1.4320885925110496;0.013969613541347958;0.00047305019783490333;0.05914142959110846;-0.003059039461609;0.0006166132560795863;0.0652595085143265;2.3605760200099404;1.954725833903184;0.03423924975149041;0.0499643112062812;1.2348973176116669;1.52497138504449;5.1124313491024145;4.221058524684443;0.024166411746711636;0.00045614853374638755;0.06933822779647214;0.0509839910268175;0.0016683346113729295;0.119302539002753;30.0
1.954725833903184;0.0173345569491179;2.323461416929021;1.7250474062595251;1.954725833903184;0.04193930416795163;0.0499643112062812;0.5258087030398194;0.27647479219241694;2.323461416929021;1.1391920555882042;0.011930253900275356;0.000599587399995887;0.05710206995003586;-0.003059039461609;0.0008990995018652195;0.0652595085143265;2.6713519092298457;1.954725833903184;0.03778277233685218;0.0499643112062812;1.402563961608279;1.96718566640231;5.1124313491024145;3.9281619877615976;0.020087692464565987;0.0005321078238229363;0.06525950851432649;0.0509839910268175;0.002152250164693318;0.119302539002753;2.7031601735210353;1.954725833903184;0.03323054333267957;0.0499643112062812;1.4792244580420226;2.1881049972697157;5.1124313491024145;4.221058524684443;0.0211073722851024;0.0003976916504327227;0.0662791883348629;0.0509839910268175;0.002208379170143786;0.119302539002753;0.0
-1.8274542648797985;-0.0193739165901906;2.235430309294307;3.2826448245521282;1.954725833903184;0.028470500215290954;0.0499643112062812;1.4492460742115052;2.10031418361746;5.1124313491024145;3.012062509809294;0.020087692464565987;0.00024468711236826;0.035688793718772094;0.0509839910268175;0.003218774916993798;0.119302539002753;2.8229554323692136;1.954725833903184;0.03273421045988348;0.0499643112062812;1.3543933043955212;1.8343812229914191;5.1124313491024145;3.9281619877615976;0.020087692464565987;0.0005460750910020308;0.06525950851432649;0.0509839910268175;0.002413088012807135;0.119302539002753;2.8381985507300778;1.954725833903184;0.033343512807717995;0.0499643112062812;1.631447584470383;2.6616212208742476;5.1124313491024145;4.221058524684443;0.020087692464565987;0.00035092903196772603;0.06525950851432649;0.052513510757622;0.002464073159108311;0.12083205873355751;0.0
-4.978203404578867;0.0101967982053635;5.1124313491024145;2.939072409940463;1.954725833903184;0.015936065675627286;0.0173345569491179;1.3362733586931206;1.7856264891529932;5.1124313491024145;2.8770010398081074;0.020087692464565987;0.0002338564151139993;0.035688793718772094;0.0509839910268175;0.002564015945184712;0.119302539002753;3.0991295666782226;1.954725833903184;0.024402112008624507;0.0499643112062812;1.3783101767406334;1.899738943306796;5.1124313491024145;3.012062509809294;0.020087692464565987;0.00014750543204522802;0.035688793718772094;0.0509839910268175;0.002890470489543742;0.119302539002753;2.836127406544897;1.954725833903184;0.031444996164433914;0.0499643112062812;1.4825946628125097;2.1980869342001395;5.1124313491024145;3.9281619877615976;0.020087692464565987;0.00033953802664217817;0.06525950851432649;0.052513510757622;0.002465424830125642;0.12083205873355751;30.0
-3.1727129617408445;0.0050983991026817;3.281125754206218;1.5179655338619418;-1.8274542648797985;0.013815940373680353;0.0101967982053635;1.379340230093631;1.9025794703547512;5.1124313491024145;2.8770010398081074;0.020087692464565987;0.00021306147638581788;0.035688793718772094;0.0509839910268175;0.0006885724086369004;0.0540430304884265;2.737140354059637;1.954725833903184;0.014217130668243675;0.0173345569491179;1.3643544747282015;1.8614631327108668;5.1124313491024145;2.8770010398081074;0.020087692464565987;0.0001815831378860344;0.035688793718772094;0.052513510757622;0.0022527590352128626;0.12083205873355751;2.8327533621516694;1.954725833903184;0.03263258657818389;0.0499643112062812;1.4864791974699;2.209620404510758;5.1124313491024145;3.9281619877615976;0.020087692464565987;0.00034383564731266887;0.06525950851432649;0.0530233506678902;0.002466614762730643;0.1213418986438257;30.0
-4.9235155036980345;-0.0112164780258998;4.941236143536764;0.8931388938587034;-3.1727129617408445;0.010145686113047923;0.0101967982053635;0.8677294628807218;0.7529544207512661;5.1124313491024145;1.8313055948961963;0.020087692464565987;0.0001629586708876079;0.031100234526358572;0.052513510757622;0.0002423260203668467;0.032119914346895;1.3727224341728674;-1.8274542648797985;0.01957590515223132;0.0367084735393086;1.2808761448502257;1.6406436984463766;5.1124313491024145;2.8770010398081074;0.020087692464565987;0.00022705473723832293;0.04078719282145393;0.052513510757622;0.0005697553274787583;0.055572550219231;2.6477610547288073;1.954725833903184;0.029000884415156643;0.0499643112062812;1.269689098995439;1.61211040810785;5.1124313491024145;3.012062509809294;0.04659936779851115;0.0004072602104336186;0.0672988681553991;0.0530233506678902;0.0021278536581048383;0.1213418986438257;30.0
-4.973205907265988;0.0101967982053635;4.97727821284456;1.1625071068089299;-2.7435785356519586;0.01989464753293477;0.0367084735393086;1.1452669037283674;1.3116362807755613;4.97727821284456;2.233434652836335;0.003772815335984392;0.00013176626279533734;0.024472315692872337;0.052513510757622;0.00041544388527895186;0.0392576730906495;1.0461735873783706;-2.7435785356519586;0.029348362171018147;0.0367084735393086;1.0447975290413032;1.0916018766908127;5.1124313491024145;2.3685877890941898;0.020087692464565987;0.00021797428066035106;0.04078719282145393;0.0530233506678902;0.0003333861906017714;0.0397675130009177;2.2133789915134003;1.954725833903184;0.02836938301231257;0.0367084735393086;1.2173397161804769;1.4819159845903642;5.1124313491024145;2.8770010398081074;0.04659936779851115;0.0005178199680051133;0.07749566636076255;0.0545528703986948;0.00149121660894158;0.12287141837463031;30.0
-2.7435785356519586;0.0367084735393086;2.7438435600082247;1.1098406348157788;-2.7435785356519586;0.037050315690882275;0.0367084735393086;1.1133318800330185;1.2395078750978554;4.9917903187048065;2.247946758696582;0.0017334556949117896;8.757701799795362e-05;0.022432956051799735;0.0530233506678902;0.00037939932481677313;0.0397675130009177;1.0308224890155357;-2.7435785356519586;0.029348362171018147;0.0367084735393086;1.0170245061685363;1.0343388461473553;4.9917903187048065;2.247946758696582;0.04659936779851115;0.0005829254553399257;0.0672988681553991;0.0530233506678902;0.0003360895326364342;0.0397675130009177;1.213321640765207;-1.8274542648797985;0.03218503949441191;0.0367084735393086;1.1359760657215516;1.2904416218922152;5.17996039102331;2.944530081729003;0.04659936779851115;0.0007195308736684672;0.09584990313041686;0.058121749770572;0.00047124796981178285;0.061180789232181;30.0
-4.990860289625061;-0.0509839910268175;4.9917903187048065;1.122542125553266;-2.7435785356519586;0.037284603444034226;0.0367084735393086;1.1236906662009123;1.26268071330705;4.9917903187048065;2.247946758696582;0.04659936779851115;0.0009682426731364123;0.0672988681553991;0.0530233506678902;0.00040417996013452083;0.0397675130009177;0.9938764171520709;-2.7435785356519586;0.03412501382824814;0.0367084735393086;0.9966037515178656;0.9932190375394836;5.027669831474575;2.28382627146635;0.04659936779851115;0.0007467202560555635;0.07749566636076255;0.0545528703986948;0.0003204153475700693;0.041297032731722305;1.003660377627577;-2.7435785356519586;0.032223782520123805;0.0367084735393086;1.004425117222825;1.0088698161080853;5.8034995020288545;3.0596559420206297;0.04659936779851115;0.000833903036673463;0.09584990313041686;0.0683185479759355;0.0003370050875776378;0.05506271030896301;30.0
-3.4702062074963216;-0.0142755174875089;3.470993642421313;1.1372022459426576;-2.7435785356519586;0.04125504925852796;0.0367084735393086;1.1378058174297825;1.2946020781770555;5.027669831474575;2.28382627146635;0.04659936779851115;0.0012174570169569542;0.07749566636076255;0.0545528703986948;0.00042792084851586194;0.041297032731722305;1.0258508991767932;-2.7435785356519586;0.03987282761771296;0.0367084735393086;1.0287534759492867;1.0583337142777396;5.17996039102331;2.4361168310150854;0.04659936779851115;0.0010499797791748671;0.09584990313041686;0.058121749770572;0.0003560786674888999;0.044865912103599505;1.8138101314056037;0.3360518987820287;0.034429863232373605;0.0367084735393086;1.4261285141058715;2.0338425387458208;5.8034995020288545;4.573984903170745;0.04659936779851115;0.0007363747740382945;0.09584990313041686;0.0683185479759355;0.0010676583652797493;0.1101254206179259;30.0
-5.025602172485881;-0.0499643112062812;5.027669831474575;0.7986232252612873;-3.4702062074963216;0.021405182004464455;-0.0142755174875089;0.8018997425940153;0.6430431971723479;5.17996039102331;1.708966748601997;0.04659936779851115;0.0017269330157973848;0.09584990313041686;0.058121749770572;0.00024111298227437092;0.0336494340776996;1.1552072903156778;-2.7435785356519586;0.03671649792010059;0.0367084735393086;1.167628943037344;1.3633573486185053;5.8034995020288545;3.0596559420206297;0.04659936779851115;0.0011752259622231412;0.09584990313041686;0.0683185479759355;0.00046002736745639485;0.05506271030896301;2.677050192415279;2.2130851683598154;0.033649262413992256;0.0367084735393086;1.4919640486687837;2.225956722520149;5.8034995020288545;4.573984903170745;0.05985520546548384;0.0012688407329171053;0.10910574079738955;0.0683185479759355;0.002171730978821301;0.13765677577240742;30.0
-5.164664770953477;-0.0642398286937901;5.17996039102331;0.9747270177304851;-3.4702062074963216;0.02358342565024858;-0.0142755174875089;0.9915600841472723;0.9831914004741457;5.8034995020288545;2.3325058596075414;0.04659936779851115;0.00194917892345482;0.09584990313041686;0.0683185479759355;0.0003554851452793665;0.04384623228306311;2.260387378479824;0.3360518987820287;0.021628271930286713;-0.0142755174875089;1.6826464905750182;2.8312992122444247;5.8034995020288545;4.573984903170745;0.04659936779851115;0.0011779986207202313;0.09584990313041686;0.0683185479759355;0.0016709166495983666;0.1101254206179259;2.972309231213679;2.2130851683598154;0.03473054017616387;0.0367084735393086;1.6314021958970102;2.6614731247775865;5.8034995020288545;4.573984903170745;0.05985520546548384;0.0012955275709516044;0.10910574079738955;0.0683185479759355;0.002733367615638254;0.13765677577240742;30.0
-5.753685477963296;-0.0214132762312633;5.8034995020288545;2.842922625832915;0.3360518987820287;0.020433918873927825;-0.0214132762312633;2.0810103342990853;4.330604011459591;5.8034995020288545;4.573984903170745;-0.022738859997960326;0.0001344739371089063;0.026511675333945384;0.0683185479759355;0.0026420619495989227;0.1101254206179259;3.307068749077594;2.2130851683598154;0.021414894709496354;-0.0142755174875089;1.768060236357505;3.1260369993885564;5.8034995020288545;4.573984903170745;0.05985520546548384;0.0022210727473257856;0.10910574079738955;0.0683185479759355;0.003338670735598473;0.13765677577240742;3.0318185683148657;2.2130851683598154;0.03145730149920208;0.0367084735393086;1.7165092509484652;2.946404008591661;5.8034995020288545;4.573984903170745;0.05985520546548384;0.0013052405402492256;0.10910574079738955;0.0683185479759355;0.002856924209914862;0.13765677577240742;0.0
0.3360518987820287;-0.0652595085143265;1.2295145988581093;3.969819613712275;2.2130851683598154;0.02055230383475713;-0.0214132762312633;2.1608535093975116;4.669287889075543;5.8034995020288545;4.573984903170745;0.05985520546548384;0.002501891065734266;0.10910574079738955;0.0683185479759355;0.00484756015427308;0.13765677577240742;3.637392259609152;2.2130851683598154;0.01676435495064942;-0.0214132762312633;1.9827586331656244;3.931331797392815;5.8034995020288545;4.573984903170745;0.05985520546548384;0.0015747660516539272;0.10910574079738955;0.0683185479759355;0.004138166813234599;0.13765677577240742;3.047837776593494;2.2130851683598154;0.026764086435434424;0.0183542367696543;1.7780565030853768;3.1614849281641986;5.8034995020288545;4.573984903170745;0.05985520546548384;0.001430564704317729;0.10910574079738955;0.0683185479759355;0.0028896762384117473;0.13765677577240742;0.0
2.2130851683598154;-0.0458855919241358;2.564349885792488;3.571426875869335;2.2130851683598154;0.020074575548104052;-0.0214132762312633;2.0599840983973423;4.243534485649912;5.8034995020288545;4.573984903170745;0.05985520546548384;0.002117184699262921;0.10094830223309892;0.0683185479759355;0.003974172727689477;0.13765677577240742;3.4179808938671896;2.2130851683598154;0.016822141892735513;-0.0214132762312633;1.995757625126423;3.98304849825026;5.8034995020288545;4.573984903170745;0.05985520546548384;0.0015777813177695135;0.10910574079738955;0.0683185479759355;0.0036772123380932518;0.13765677577240742;2.9056758745310542;2.2130851683598154;0.034696594374745274;0.0316100744366268;1.7725575900591626;3.1419604100763463;5.8034995020288545;4.573984903170745;0.05985520546548384;0.0014724665058550132;0.10910574079738955;0.0683185479759355;0.0026345483338903785;0.13765677577240742;0.0
1.1143966716610758;-0.0622004690527174;1.70891672000277;0.8686328448132875;2.2130851683598154;0.00982902942858569;-0.0458855919241358;0.579918484832759;0.33630544905072296;2.564349885792488;1.3348352869343785;0.05985520546548384;0.001640720665653471;0.08871214438666264;-0.0418068726419904;0.0001714499375349513;0.027531355154481504;2.812023457299679;2.2130851683598154;0.03142643722510932;0.0183542367696543;1.7089413601614798;2.9204805724705682;5.8034995020288545;4.573984903170745;0.05985520546548384;0.0014829563971690085;0.10094830223309892;0.0683185479759355;0.0024665310053385583;0.13765677577240742;2.8772031959332462;2.2130851683598154;0.03423385072914415;0.0316100744366268;1.7655204597899927;3.117062493937067;5.8034995020288545;4.573984903170745;0.05985520546548384;0.0015933082053532217;0.10910574079738955;0.0683185479759355;0.0025891691564879924;0.13765677577240742;0.0
0.41715572461479367;-0.0479249515652085;1.4793760677682957;1.4123001785070814;2.2130851683598154;0.03591990120400649;0.0183542367696543;0.4681782794327392;0.21919090133260002;2.564349885792488;1.0849738180241921;0.05985520546548384;0.0014587649517818933;0.08871214438666264;-0.0142755174875089;0.0005551165570698899;0.05506271030896301;1.202957648396911;2.2130851683598154;0.042367665866986016;0.0316100744366268;0.4814646155459024;0.23180817602276363;2.564349885792488;1.3348352869343785;0.05985520546548384;0.0011171041084778754;0.08871214438666264;-0.0142755174875089;0.00040737284968506745;0.05506271030896301;2.8180595108038298;2.2130851683598154;0.03469259856735866;0.0316100744366268;1.7176447954888354;2.950303643469883;5.8034995020288545;4.573984903170745;0.05985520546548384;0.0015316743175116411;0.10910574079738955;0.0683185479759355;0.0024760446898066876;0.13765677577240742;0.0
-1.1585097520481724;0.0183542367696543;1.8473253263827996;1.0178790470793189;1.1143966716610758;0.04689326310811704;0.0316100744366268;0.22240640031203798;0.04946460689975849;1.8473253263827996;0.49398603141906405;0.02824513102885695;0.000631039744822258;0.05710206995003575;-0.0142755174875089;0.0003488350971652377;0.0418068726419904;1.8326904075603616;2.2130851683598154;0.03840147236642034;0.0316100744366268;0.7032243946777097;0.49452454926983125;3.165864730542015;1.8125254355782794;0.05985520546548384;0.0011657642651018234;0.08871214438666264;0.0163148771285816;0.0009585427006755029;0.0856531049250535;2.7203253186041754;2.2130851683598154;0.035813365696663914;0.0316100744366268;1.6214429894533817;2.6290773680475192;5.8034995020288545;4.573984903170745;0.05985520546548384;0.0012810259893746333;0.10094830223309892;0.0683185479759355;0.0022816120126981964;0.13765677577240742;30.0
