acc_X;acc_Z;acc;acc_X_std_ws4;acc_X_max_ws4;acc_Z_std_ws4;acc_Z_max_ws4;acc_std_ws4;acc_var_ws4;acc_max_ws4;acc_range_ws4;fb_tilt_max_ws4;fb_tilt_var_ws4;fb_tilt_range_ws4;tilt_max_ws4;tilt_var_ws4;tilt_range_ws4;acc_X_std_ws6;acc_X_max_ws6;acc_Z_std_ws6;acc_Z_max_ws6;acc_std_ws6;acc_var_ws6;acc_max_ws6;acc_range_ws6;fb_tilt_max_ws6;fb_tilt_var_ws6;fb_tilt_range_ws6;tilt_max_ws6;tilt_var_ws6;tilt_range_ws6;acc_X_std_ws10;acc_X_max_ws10;acc_Z_std_ws10;acc_Z_max_ws10;acc_std_ws10;acc_var_ws10;acc_max_ws10;acc_range_ws10;fb_tilt_max_ws10;fb_tilt_var_ws10;fb_tilt_range_ws10;tilt_max_ws10;tilt_var_ws10;tilt_range_ws10;class
-0.595875246173184;-0.0560823901294993;1.5799353132833145;2.1229212231590595;0.4439244071712132;0.030879004596499234;-0.0418068726419904;1.483059205624425;2.19946460738735;4.928174286859548;3.3482389735762332;0.069032323850311;0.0029442817257818066;0.1320485367594575;0.026511675333945;0.00132697702759204;0.0825940654634443;1.8070674943959053;0.4439244071712132;0.03399336334421181;-0.0285510349750178;1.1719738531493051;1.373522712465629;4.928174286859548;3.3482389735762332;0.16080350769858265;0.005849035738864463;0.22381972060772914;0.026511675333945;0.0008962618591845945;0.0825940654634443;2.9105858203459243;1.5250201536499306;0.030197178940663837;-0.0285510349750178;2.0237789127963186;4.095681087879049;8.579538743721496;6.999603430438182;0.16080350769858265;0.004401852412679796;0.22381972060772914;0.095849903130417;0.0026242750565214773;0.174365249311716;60.0
-2.2330628210234478;-0.1111451004384623;2.8391105894381954;2.1229212231590595;0.4439244071712132;0.030879004596499234;-0.0418068726419904;1.483059205624425;2.19946460738735;4.928174286859548;3.3482389735762332;0.069032323850311;0.0029442817257818066;0.1320485367594575;0.026511675333945;0.00132697702759204;0.0825940654634443;1.8070674943959053;0.4439244071712132;0.03399336334421181;-0.0285510349750178;1.1719738531493051;1.373522712465629;4.928174286859548;3.3482389735762332;0.16080350769858265;0.005849035738864463;0.22381972060772914;0.026511675333945;0.0008962618591845945;0.0825940654634443;2.9105858203459243;1.5250201536499306;0.030197178940663837;-0.0285510349750178;2.0237789127963186;4.095681087879049;8.579538743721496;6.999603430438182;0.16080350769858265;0.004401852412679796;0.22381972060772914;0.095849903130417;0.0026242750565214773;0.174365249311716;60.0
0.4439244071712132;-0.0418068726419904;2.0336088872578073;2.1229212231590595;0.4439244071712132;0.030879004596499234;-0.0418068726419904;1.483059205624425;2.19946460738735;4.928174286859548;3.3482389735762332;0.069032323850311;0.0029442817257818066;0.1320485367594575;0.026511675333945;0.00132697702759204;0.0825940654634443;1.8070674943959053;0.4439244071712132;0.03399336334421181;-0.0285510349750178;1.1719738531493051;1.373522712465629;4.928174286859548;3.3482389735762332;0.16080350769858265;0.005849035738864463;0.22381972060772914;0.026511675333945;0.0008962618591845945;0.0825940654634443;2.9105858203459243;1.5250201536499306;0.030197178940663837;-0.0285510349750178;2.0237789127963186;4.095681087879049;8.579538743721496;6.999603430438182;0.16080350769858265;0.004401852412679796;0.22381972060772914;0.095849903130417;0.0026242750565214773;0.174365249311716;60.0
-4.424104446850502;-0.0851432650147853;4.928174286859548;2.274117843740945;0.4439244071712132;0.038255833505221895;-0.0285510349750178;1.3095753186612324;1.7149875152466685;4.928174286859548;2.8945653996017406;0.16080350769858265;0.008831328879729825;0.22381972060772914;0.026511675333945;0.0013872823499037647;0.0825940654634443;1.8070674943959053;0.4439244071712132;0.03399336334421181;-0.0285510349750178;1.1719738531493051;1.373522712465629;4.928174286859548;3.3482389735762332;0.16080350769858265;0.005849035738864463;0.22381972060772914;0.026511675333945;0.0008962618591845945;0.0825940654634443;2.9105858203459243;1.5250201536499306;0.030197178940663837;-0.0285510349750178;2.0237789127963186;4.095681087879049;8.579538743721496;6.999603430438182;0.16080350769858265;0.004401852412679796;0.22381972060772914;0.095849903130417;0.0026242750565214773;0.174365249311716;60.0
0.12789646083581419;-0.0285510349750178;2.313990608832216;2.235081089641738;0.4439244071712132;0.035560800750447014;-0.0285510349750178;1.3049476971858596;1.702888492390678;4.928174286859548;2.8945653996017406;0.16080350769858265;0.009339071967009576;0.22381972060772914;0.026511675333945;0.0013537505112045725;0.0825940654634443;3.238082878042788;0.4439244071712132;0.03527033537562125;-0.0285510349750178;2.487487418929767;6.187593659333874;8.579538743721496;6.5459298564636885;0.16080350769858265;0.006902715284221389;0.22381972060772914;0.095849903130417;0.0031561518254696547;0.1519322932599163;2.9105858203459243;1.5250201536499306;0.030197178940663837;-0.0285510349750178;2.0237789127963186;4.095681087879049;8.579538743721496;6.999603430438182;0.16080350769858265;0.004401852412679796;0.22381972060772914;0.095849903130417;0.0026242750565214773;0.174365249311716;60.0
-1.7273132811174323;-0.1040073416947078;2.9673499996406543;3.622755712029186;0.12789646083581419;0.03492651473805259;-0.0285510349750178;2.8164973076501507;7.932657084000547;8.579538743721496;6.26554813488928;0.16080350769858265;0.01059543284850384;0.22381972060772914;0.095849903130417;0.0039228785454932915;0.1417354950545528;3.2344134110064062;0.4439244071712132;0.02978864478824937;-0.0285510349750178;2.4445940525100474;5.976040081567497;8.579538743721496;6.5459298564636885;0.16080350769858265;0.007909536900977485;0.22381972060772914;0.095849903130417;0.0031481111158280914;0.1519322932599163;2.9105858203459243;1.5250201536499306;0.030197178940663837;-0.0285510349750178;2.0237789127963186;4.095681087879049;8.579538743721496;6.999603430438182;0.16080350769858265;0.004401852412679796;0.22381972060772914;0.095849903130417;0.0026242750565214773;0.174365249311716;60.0
-8.21479109613622;-0.0448659121035994;8.579538743721496;3.603490398482773;0.12789646083581419;0.03413897582143474;-0.0285510349750178;2.8708605438719705;8.241840262360867;8.579538743721496;6.26554813488928;0.16080350769858265;0.010232496183513563;0.2161721219537066;0.095849903130417;0.003951731522978642;0.1417354950545528;3.4662455446540283;1.5250201536499306;0.027808795606243622;-0.0285510349750178;2.320193325364319;5.383297067065137;8.579538743721496;6.26554813488928;0.16080350769858265;0.007087374340127639;0.22381972060772914;0.095849903130417;0.003715397044332866;0.174365249311716;2.9912480190889026;1.5250201536499306;0.02963588685915202;-0.0285510349750178;1.9472018870645116;3.791595188987595;8.579538743721496;6.5459298564636885;0.16080350769858265;0.004432790660409835;0.22381972060772914;0.095849903130417;0.002786625764269881;0.174365249311716;60.0
-2.3928482182155437;-0.0805547058223717;3.466376513847322;4.053975544226729;1.5250201536499306;0.025271384890716772;-0.0448659121035994;2.7384635163707705;7.499182430493764;8.579538743721496;5.64097962247948;0.009890894259202643;0.0010508375703974146;0.0652595085143266;0.095849903130417;0.005304788869558946;0.174365249311716;3.541678292750557;1.5250201536499306;0.03268136129154338;-0.0285510349750178;2.3671802037637244;5.603542117090867;8.579538743721496;6.26554813488928;0.16080350769858265;0.006141438571056099;0.2161721219537066;0.095849903130417;0.003927505419360313;0.174365249311716;3.0654794666060403;1.5250201536499306;0.02745866470367576;-0.0285510349750178;1.961776695165124;3.848567801692996;8.579538743721496;6.5459298564636885;0.16080350769858265;0.004469990495245804;0.22381972060772914;0.095849903130417;0.0029550070042494566;0.174365249311716;60.0
1.5250201536499306;-0.0627103089629856;2.938559121242016;4.427607992339674;1.5250201536499306;0.028262411830941504;-0.0448659121035994;2.8098366153912395;7.895181805193296;8.579538743721496;5.971060852693401;0.013969613541347958;0.0013845963369847156;0.06933822779647192;0.095849903130417;0.006287349724465496;0.174365249311716;3.605826574903702;1.5250201536499306;0.024901387093913978;-0.0448659121035994;2.3389224542416565;5.470558246955814;8.579538743721496;6.027975629431476;0.013969613541347958;0.0008860376809765739;0.06933822779647192;0.095849903130417;0.004181030380688054;0.174365249311716;3.1137070990952864;1.5250201536499306;0.025745653457637612;-0.0285510349750178;1.9232514966112264;3.698896319217322;8.579538743721496;6.26554813488928;0.16080350769858265;0.003982141232682679;0.22381972060772914;0.095849903130417;0.003079961480518348;0.174365249311716;60.0
0.7627858694146039;-0.1111451004384623;2.6084778910280955;1.7349660903427924;1.5250201536499306;0.020539125055694617;-0.0627103089629856;0.4196649082630123;0.17611863522740254;3.466376513847322;0.914813399557302;0.013969613541347958;0.0010115871235479718;0.06933822779647192;-0.0112164780258998;0.0008934892006875081;0.0672988681553992;3.726420510689783;1.5250201536499306;0.02282447234724059;-0.0448659121035994;2.3787130413354216;5.65827573301921;8.579538743721496;6.051701905294802;0.013969613541347958;0.0008610837545027563;0.06933822779647192;0.095849903130417;0.004479922966674441;0.174365249311716;2.9078195863476695;1.5250201536499306;0.03570372162269503;0.0020393596410727;1.8949349198680274;3.5907783505352477;8.579538743721496;6.31374917217518;0.16080350769858265;0.003505795614696548;0.2161721219537066;0.095849903130417;0.0027001188191606495;0.174365249311716;60.0
0.695965744189964;-0.07545630671969;2.55156311429002;0.3900626888939269;1.5250201536499306;0.020853117147289414;-0.0627103089629856;0.19098811675064228;0.036476460739956966;2.938559121242016;0.41072228281532164;0.013969613541347958;0.00016731261118382631;0.02651167533394505;-0.0652595085143265;4.046348494191829e-05;0.013255837666972498;1.4106178160993585;1.5250201536499306;0.01654821287561691;-0.0627103089629856;0.36793731996145623;0.13537787142041902;3.466376513847322;0.9385396754206274;0.013969613541347958;0.0006216300350477552;0.06933822779647192;-0.0112164780258998;0.0005969880326548616;0.0672988681553992;2.896163986274917;1.5250201536499306;0.036512867807624874;0.0020393596410727;1.894104331702578;3.58763121937447;8.579538743721496;6.31374917217518;0.013969613541347958;0.0005404489048016848;0.06933822779647192;0.095849903130417;0.0027019094944400208;0.174365249311716;60.0
0.78744827154489;-0.0907515040277353;2.5278368384266945;0.18871838534280444;1.118170972652103;0.014623313119403824;-0.07545630671969;0.036832473286597105;0.0013566310884078892;2.6084778910280955;0.08064105260140098;0.013969613541347958;0.00013204786092395205;0.02651167533394505;-0.0652595085143265;1.1350570722465238e-05;0.007137758743754399;0.5093800633923846;1.5250201536499306;0.03963361802628391;0.0020393596410727;0.2152989686219387;0.046353645889670544;2.938559121242016;0.6727695496957007;0.013969613541347958;0.00010300426316692286;0.02651167533394505;-0.0520036708473539;7.8500893698883e-05;0.026511675333945106;2.8935093093312743;1.5250201536499306;0.044097435522182975;0.0020393596410727;1.9079036932664344;3.6400965027797003;8.579538743721496;6.31374917217518;0.013969613541347958;0.0005349382460387166;0.06933822779647192;0.095849903130417;0.0027052366846365295;0.174365249311716;0.0
1.118170972652103;-0.0917711838482716;2.59171945580883;0.475464516238233;1.118170972652103;0.044644240742990636;0.0020393596410727;0.14799268957204958;0.021901836166769034;2.59171945580883;0.3259298842625147;0.003772815335984392;5.060101757190969e-05;0.016314877128581484;-0.0520036708473539;7.555494404572395e-05;0.020393596410727008;0.5550410490663606;1.118170972652103;0.0445527352478756;0.0020393596410727;0.14502333570261036;0.021031767898312022;2.6084778910280955;0.34268831948178;0.013969613541347958;9.707770562939063e-05;0.02651167533394505;-0.0469052717446721;9.676578154846916e-05;0.025491995513408805;1.1317512786013755;1.5250201536499306;0.04994234048388124;0.0020393596410727;0.3420344334030522;0.11698755363334692;3.466376513847322;1.2005869423010065;0.013969613541347958;0.00036530064517764735;0.06933822779647192;-0.0112164780258998;0.0003896769344645691;0.0672988681553992;0.0
-0.011843555177103227;0.0020393596410727;2.2657895715463154;0.6789853859539923;1.118170972652103;0.04785891615290814;0.0020393596410727;0.15592316188717328;0.024312032412893647;2.59171945580883;0.3259298842625147;0.003772815335984392;5.579975225395426e-05;0.016314877128581484;-0.0469052717446721;0.00014729748265794842;0.025491995513408805;0.5434766318215342;1.118170972652103;0.054921536567953656;0.0020393596410727;0.13269468448055105;0.017607879289392996;2.59171945580883;0.3259298842625147;0.003772815335984392;4.5610232277142594e-05;0.017334556949117896;-0.0469052717446721;9.385449012652381e-05;0.025491995513408805;0.8959366686308036;2.850861588218784;0.05141676444508267;0.0020393596410727;0.3992601923815998;0.15940870122059211;3.6760733718778487;1.4102838003315332;0.013969613541347958;8.838137778070497e-05;0.027531355154481463;-0.0469052717446721;0.00025511057540576206;0.057102069950035694;60.0
-0.3403409490591356;-0.0224329560517997;2.328735190921294;0.6251338383264157;1.118170972652103;0.06970402275522868;0.0020393596410727;0.15292931000979013;0.023387373860070493;2.59171945580883;0.3259298842625147;0.003772815335984392;6.125842367010207e-05;0.017334556949117896;-0.0469052717446721;0.000122343556184131;0.025491995513408805;0.6552098165579868;1.3246584493532438;0.06506038042395881;0.0020393596410727;0.1660304338238676;0.02756610495574167;2.7119109251669116;0.44612135362059613;0.003772815335984392;4.5584238603732254e-05;0.017334556949117896;-0.0469052717446721;0.0001390921464181206;0.030080554705822396;1.2932716807153897;3.861846930509093;0.05096815520582679;0.0020393596410727;0.6849324148922751;0.46913241297016367;4.426444645299944;2.1606550737536288;0.013969613541347958;7.301622860932668e-05;0.027531355154481463;-0.0469052717446721;0.0005203615716274471;0.0734169470786173;60.0
0.3026125795663619;-0.1519322932599164;2.513045424591362;0.7201400791520114;1.3246584493532438;0.0837745994546588;0.0020393596410727;0.2009276948907099;0.04037193857409421;2.7119109251669116;0.44612135362059613;0.003772815335984392;5.48249895010709e-05;0.017334556949117896;-0.0469052717446721;0.00017283626678349538;0.030080554705822396;1.162456069493477;2.850861588218784;0.06695067113665415;0.0020393596410727;0.5145476033976988;0.2647592361623155;3.6760733718778487;1.4102838003315332;0.003772815335984392;3.761284542459663e-05;0.017334556949117896;-0.0469052717446721;0.00043479617513285314;0.057102069950035694;1.8018646087393169;5.1656934907789225;0.0511527802066072;0.0020393596410727;1.1085246664974817;1.2288269362333533;5.6099526347024655;3.34416306315615;0.02824513102885695;0.00014951849764155732;0.041806872641990456;-0.0469052717446721;0.0009470968198171952;0.09279086366880801;60.0
1.3246584493532438;-0.1565208524523299;2.7119109251669116;1.391546880924971;2.850861588218784;0.062499767464497404;-0.0224329560517997;0.5998544821141827;0.3598253997124743;3.6760733718778487;1.3473381809565548;-0.0059141429591109684;1.0982327015822893e-05;0.007647598654022536;-0.0469052717446721;0.0006147287147573403;0.057102069950035694;1.695251909270914;3.861846930509093;0.06735272741232724;0.0020393596410727;0.8718471171413864;0.7601173956677464;4.426444645299944;2.1606550737536288;0.003772815335984392;4.74557830892692e-05;0.017334556949117896;-0.0469052717446721;0.0008908984979042878;0.0734169470786173;2.248328031365038;6.036453457958132;0.05642967969202736;0.0020393596410727;1.4784502605456733;2.185815172907569;6.340909282941723;4.075119711395407;0.02824513102885695;0.00018946788548714045;0.041806872641990456;-0.0469052717446721;0.0014653066929234647;0.10910574079738969;60.0
2.850861588218784;-0.1233812582848985;3.6760733718778487;1.5810073979190213;3.861846930509093;0.038661365796768425;-0.0723972672580809;0.8890805278673548;0.7904641850328943;4.426444645299944;1.9133992207085821;0.002753135515448202;4.5293975917322664e-05;0.016314877128581706;-0.0591414295911083;0.0007457368287448795;0.06118078923218111;2.1354216253008915;5.1656934907789225;0.05450257795414119;-0.0224329560517997;1.2881319465357601;1.6592839116860065;5.6099526347024655;3.2812174437811716;0.02824513102885695;0.00023294663654464432;0.041806872641990456;-0.0469052717446721;0.0013111642096008253;0.09279086366880801;2.310237003450007;6.036453457958132;0.05733529557610394;0.0020393596410727;1.49250543008015;2.2275724588187336;6.340909282941723;4.075119711395407;0.02824513102885695;0.00017260087962983863;0.041806872641990456;-0.0469052717446721;0.0015534079166685253;0.10910574079738969;60.0
3.861846930509093;-0.0723972672580809;4.426444645299944;1.6227734888049055;5.1656934907789225;0.04523973405479599;-0.0591414295911083;1.2237755126202816;1.497626505289033;5.6099526347024655;2.898041709535554;0.02824513102885695;0.0002726519726787701;0.03568879371877265;-0.0769858264504945;0.0007046668247567209;0.06271030896298561;2.2073336621939705;6.036453457958132;0.058297171107487104;-0.0091771183848271;1.5463788249205754;2.3912874701627396;6.340909282941723;3.8278638583503612;0.02824513102885695;0.0002707934250299345;0.041806872641990456;-0.0591414295911083;0.0013630822399588519;0.09686958295095349;2.261021620099213;6.036453457958132;0.057068703115904125;0.0020393596410727;1.4462259298744784;2.0915694402412996;6.340909282941723;4.075119711395407;0.02824513102885695;0.00018140407035810254;0.041806872641990456;-0.0469052717446721;0.0014879038596747555;0.10910574079738969;60.0
5.1656934907789225;-0.0591414295911083;5.6099526347024655;1.405811923835563;6.036453457958132;0.04693758741853626;-0.0091771183848271;1.190394196454179;1.4170383429517905;6.340909282941723;2.6648359110638746;0.02824513102885695;0.00025673084771500685;0.03568879371877265;-0.1040073416947078;0.000513288404273931;0.052003670847353994;1.686943853198241;6.036453457958132;0.054269977840987575;-0.0091771183848271;1.3091654724057926;1.713914234139482;6.340909282941723;3.6289983577748117;0.02824513102885695;0.00019801113948130167;0.03568879371877265;-0.0769858264504945;0.0007783978793848313;0.07902518609156729;2.0595543497696083;6.036453457958132;0.053355909752916604;-0.0091771183848271;1.3545639659060291;1.83484353773107;6.340909282941723;4.012174092020429;0.02824513102885695;0.00018126543743324797;0.041806872641990456;-0.0469052717446721;0.0012181906161843146;0.10910574079738969;60.0
6.036453457958132;-0.0091771183848271;6.340909282941723;0.9325563510628577;6.036453457958132;0.027392530109049604;-0.0091771183848271;0.8428699989489016;0.7104298351281214;6.340909282941723;1.914464637641779;0.02824513102885695;0.00013066153167540513;0.02549199551340875;-0.1203222188232894;0.0002294374906342604;0.035688793718772385;1.2811634611463236;6.036453457958132;0.03775111213599761;-0.0091771183848271;1.1367272035937648;1.2921487353901002;6.340909282941723;2.9790739782609528;0.02824513102885695;0.0002065630580332673;0.03568879371877265;-0.1029876618741715;0.00043062852282941546;0.053023350667890295;1.837071867053491;6.036453457958132;0.05069383119968357;-0.0091771183848271;1.3572094686338037;1.8420175417492517;6.340909282941723;4.0323442254755015;0.036402569593147804;0.0002810811433285173;0.04996431120628131;-0.0591414295911083;0.0009771888290684351;0.09686958295095349;0.0
4.488081379282779;-0.040787192821454;4.865168078026289;1.358318433711551;6.036453457958132;0.023326684934942242;-0.0091771183848271;1.2733072582276947;1.6213113738553293;6.340909282941723;2.9790739782609528;0.02824513102885695;0.00023636913687699653;0.03568879371877265;-0.1029876618741715;0.0004930999845919876;0.053023350667890295;1.3071586121525862;6.036453457958132;0.02294090758838988;-0.0091771183848271;1.198275395826118;1.4358639242422397;6.340909282941723;2.9790739782609528;0.02824513102885695;0.00017332581429938926;0.03568879371877265;-0.1004384623228306;0.00046356250704017167;0.05557255021923119;2.1759498840155684;6.036453457958132;0.04762707119006361;-0.0091771183848271;1.3608763769931125;1.8519845134579;6.340909282941723;4.0323442254755015;0.036402569593147804;0.00036340599520463763;0.06423982869379019;-0.0285510349750178;0.0013896217805106899;0.127459977567044;0.0
2.8272607682003335;-0.058121749770572;3.3618353046807705;1.5672876207976965;6.036453457958132;0.020444516830593718;-0.0091771183848271;1.4257635457872766;2.0328016884959075;6.340909282941723;2.9790739782609528;0.019068012644029797;0.00012962178473899998;0.026511675333945495;-0.1004384623228306;0.0006849116329649498;0.05557255021923119;1.8073211603187995;6.036453457958132;0.020428405763626693;-0.0091771183848271;1.5436998457284057;2.3830092137019037;6.340909282941723;4.0323442254755015;0.036402569593147804;0.00028655425567433517;0.0438462322830635;-0.0703579076170082;0.0009730385058806048;0.08565310492505358;2.3181066286209835;6.036453457958132;0.03898873649881163;-0.0091771183848271;1.4493369280976511;2.100577531147536;6.340909282941723;4.359318705473795;0.036402569593147804;0.0003551775534773335;0.06423982869379019;-0.0285510349750178;0.0015963841233734319;0.127459977567044;0.0
2.7310617163058817;-0.0305903946160905;3.367868159537231;1.3562785368758965;4.488081379282779;0.014190289755717234;-0.0305903946160905;1.0515731528334653;1.1058060957601146;4.865168078026289;2.5566030205600674;0.036402569593147804;0.00036971668147145654;0.0438462322830635;-0.0703579076170082;0.0006048511188614565;0.060161109411644806;2.5945721677717763;6.036453457958132;0.04193351903734027;-0.0091771183848271;1.5447702427468186;2.3863151028760647;6.340909282941723;4.0323442254755015;0.036402569593147804;0.000490517946366576;0.06423982869379019;-0.0285510349750178;0.002008141239307025;0.127459977567044;2.345476910049725;6.036453457958132;0.034569669122239;-0.0091771183848271;1.5426398989435715;2.3797378578126325;6.340909282941723;4.359318705473795;0.036402569593147804;0.00033189877484550776;0.06423982869379019;-0.0285510349750178;0.0016330525319974577;0.127459977567044;0.0
1.1680036998447925;-0.0601611094116447;2.3085650574662218;1.9835101972842815;2.8272607682003335;0.043119919515619165;-0.0305903946160905;0.5643769849183181;0.3185213811054915;3.367868159537231;1.0593031020710093;0.036402569593147804;0.0007184651330586564;0.06423982869379019;-0.0285510349750178;0.0012027056072966603;0.0744366268991537;2.1443367207003305;4.488081379282779;0.03753751521107304;-0.0305903946160905;1.049462604980799;1.1013717592530845;4.865168078026289;2.8835775005583613;0.036402569593147804;0.0004614050321471221;0.06423982869379019;-0.0285510349750178;0.001403632370478805;0.10196798205363522;2.307277625548079;6.036453457958132;0.03465978223877841;-0.0091771183848271;1.5561609004833243;2.421636748193071;6.340909282941723;4.359318705473795;0.036402569593147804;0.00035361793307272;0.06423982869379019;-0.0285510349750178;0.001572677893223306;0.127459977567044;0.0
-1.4217250675602309;-0.1315386968491893;2.4814455265802216;1.7613759533618703;2.7310617163058817;0.043623351892795405;-0.0305903946160905;0.592754067759624;0.35135738484558093;3.367868159537231;1.3862775820693032;0.036402569593147804;0.0007184651330586536;0.06423982869379019;-0.0285510349750178;0.0009211074786858779;0.07188742734781281;1.6415714611328704;2.8272607682003335;0.037855627642681806;-0.0305903946160905;0.6045148182287858;0.36543816545818203;3.367868159537231;1.3862775820693032;0.036402569593147804;0.000458632373650031;0.06423982869379019;-0.0285510349750178;0.000826226238459647;0.0744366268991537;2.111002027067388;6.036453457958132;0.03493550646817869;-0.0091771183848271;1.4053599004926565;1.9750364499127295;6.340909282941723;4.359318705473795;0.036402569593147804;0.0003249671286027812;0.06423982869379019;-0.0285510349750178;0.001333882680161362;0.127459977567044;60.0
0.0020963262948519024;-0.0948302233098807;1.9815905774679279;1.3619102180897922;1.6288087184571003;0.0406797725518842;-0.0387478331803813;0.2108840841185013;0.044472096934499133;2.4814455265802216;0.49985494911229367;0.036402569593147804;0.0007049484228853364;0.06423982869379019;-0.0285510349750178;0.0005215197341871762;0.052003670847353904;1.5479659557560468;2.7310617163058817;0.03934960149353932;-0.0305903946160905;0.4825803930070702;0.2328838357148583;3.367868159537231;1.3862775820693032;0.036402569593147804;0.000458632373650031;0.06423982869379019;-0.0285510349750178;0.0007282820770499146;0.07188742734781281;1.6514227233848573;4.488081379282779;0.03076362733825437;-0.0305903946160905;0.9309858765861421;0.8667347024028673;4.865168078026289;3.1866377069197505;0.036402569593147804;0.0002918223068188081;0.06423982869379019;-0.0285510349750178;0.0008355666317717196;0.10196798205363522;60.0
1.6288087184571003;-0.0387478331803813;2.179471699239504;1.6774823998046164;2.315345392592353;0.04469855013183331;-0.0387478331803813;0.27165979336686075;0.07379904333212549;2.5694414883262833;0.5878509108583554;0.012949933720811546;0.0003211951577723634;0.04078719282145393;-0.0285510349750178;0.0008543253994161044;0.06525950851432649;1.3895159200777947;2.315345392592353;0.03527414292085217;-0.0387478331803813;0.21077215515193648;0.04442490138739199;2.5694414883262833;0.5878509108583554;0.036402569593147804;0.0005010540486555197;0.06423982869379019;-0.0285510349750178;0.0005903336522618443;0.06525950851432649;1.319182295050104;2.8272607682003335;0.02979916265045511;-0.0305903946160905;0.5407162021800284;0.2923740112999933;3.367868159537231;1.6893377884306922;0.036402569593147804;0.000287905926691667;0.06423982869379019;-0.0285510349750178;0.0005392387548951408;0.0744366268991537;60.0
2.315345392592353;-0.0418068726419904;2.5694414883262833;1.0027686578528217;2.315345392592353;0.026424925986210566;-0.0387478331803813;0.24473209723868924;0.05989379941884725;2.5694414883262833;0.5878509108583554;0.012949933720811546;0.00013793976023027;0.02549199551340864;-0.0520036708473539;0.0003302929434659436;0.0418068726419904;1.388341658451922;2.315345392592353;0.034717065669283835;-0.0387478331803813;0.32899566615384657;0.10823814834801326;2.5694414883262833;0.8909111172197444;0.012949933720811546;0.000209093108911858;0.04078719282145393;-0.0285510349750178;0.0005934875513022851;0.06525950851432649;1.2288822524501108;2.7310617163058817;0.029678152491682847;-0.0305903946160905;0.44364210631476947;0.1968183184954052;3.367868159537231;1.6893377884306922;0.036402569593147804;0.0002846133947263714;0.06423982869379019;-0.0285510349750178;0.0004615350005141712;0.07188742734781281;60.0
1.8236852350028894;-0.0703579076170082;2.2750686546409353;0.7188480304529163;2.315345392592353;0.018994530447840392;-0.0387478331803813;0.3706293449699154;0.13736611135282856;2.5694414883262833;0.8909111172197444;0.005812174977057216;6.472424679146702e-05;0.01835423676965431;-0.0632201488732537;0.00016731261118382618;0.030590394616090602;0.8779871387487372;2.315345392592353;0.02142217634834845;-0.0387478331803813;0.34225539197598137;0.11713875333663264;2.5694414883262833;0.8909111172197444;0.012949933720811546;8.709613503986392e-05;0.02549199551340864;-0.0520036708473539;0.0002484648595705498;0.0418068726419904;1.2392117516029917;2.8068445363309182;0.027834955699278723;-0.0387478331803813;0.4068228314442761;0.1655048161843379;3.21287289443582;1.5343425233292811;0.036402569593147804;0.0002840126520520018;0.06423982869379019;-0.0285510349750178;0.0004706587798811604;0.07341694707861729;60.0
0.6061121560263878;-0.07545630671969;1.678530371106539;0.7311407473063568;2.315345392592353;0.015055392128309683;-0.0418068726419904;0.4158949877254171;0.17296864081512484;2.5694414883262833;0.8909111172197444;0.004792495156520804;5.8572410751046444e-05;0.017334556949117896;-0.0632201488732537;0.0001707784343051895;0.030590394616090602;0.5702262911303487;2.315345392592353;0.01512429588476733;-0.0387478331803813;0.3392422063164526;0.11508527454645456;2.5694414883262833;0.8909111172197444;0.00785153461813004;6.612790515561577e-05;0.020393596410727133;-0.0632201488732537;0.00010342016194148793;0.030590394616090602;1.2444307164688888;2.8068445363309182;0.027500915781119066;-0.0387478331803813;0.4159316787547821;0.17299916139177124;3.21287289443582;1.5343425233292811;0.012949933720811546;0.0001557771965615523;0.04078719282145393;-0.0285510349750178;0.0004745405017770875;0.07341694707861729;60.0
1.8528509312581383;-0.0571020699500356;2.5517542863502083;0.611145732842957;1.8528509312581383;0.007826776071288745;-0.0571020699500356;0.3995255404270617;0.15962065745353568;2.5517542863502083;0.8732239152436694;0.00785153461813004;8.066703314973833e-05;0.020393596410727133;-0.0632201488732537;0.00011532526436337392;0.022432956051799804;0.7320971802978962;2.8068445363309182;0.01753137742456404;-0.0418068726419904;0.4966531979162316;0.2466643990004195;3.21287289443582;1.5343425233292811;0.00785153461813004;5.891899306317964e-05;0.020393596410727133;-0.0632201488732537;0.00016819639607977124;0.0387478331803814;1.1027398295812902;4.0307963627561385;0.019426023118430502;-0.0387478331803813;0.7119072160711306;0.5068118842941475;4.17072833094045;2.492197959833911;0.012949933720811546;8.461229513622276e-05;0.027531355154481463;-0.0520036708473539;0.00038983578469096503;0.072397267258081;60.0
1.8069053550268368;-0.0652595085143265;2.4961725632775584;0.9014607613458628;2.8068445363309182;0.015829687668257365;-0.0571020699500356;0.6284300707614833;0.3949243538372829;3.21287289443582;1.5343425233292811;0.00785153461813004;1.273689997101377e-05;0.008157438564290853;-0.0632201488732537;0.00025118553072082196;0.0387478331803814;0.700835982625342;2.8068445363309182;0.012332084923703282;-0.0571020699500356;0.5136771777489695;0.2638642429401464;3.21287289443582;1.5343425233292811;0.00785153461813004;8.584843871617361e-05;0.022432956051799957;-0.0632201488732537;0.00015180305271572203;0.0387478331803814;1.1144408910178074;4.174365030966819;0.020257468013381567;-0.0254919955134087;0.8673071130001277;0.7522216282606163;4.25871452073917;2.5801841496326317;0.02824513102885695;0.00015514179565597036;0.04282655246252687;-0.0632201488732537;0.00036512446583564353;0.061180789232181204;60.0
2.8068445363309182;-0.0938105434893443;3.21287289443582;0.5273985117789046;2.8068445363309182;0.015761119002904802;-0.0571020699500356;0.462130001381719;0.21356413817706763;3.21287289443582;1.1152711968913382;0.00785153461813004;0.000100075642629375;0.022432956051799957;-0.0825940654634444;8.491266647340747e-05;0.019373916590190693;1.1671884957393872;4.0307963627561385;0.015338190032665306;-0.0499643112062812;0.8827091234119844;0.7791753965547539;4.17072833094045;2.492197959833911;0.00785153461813004;6.903919657756162e-05;0.022432956051799957;-0.0632201488732537;0.0004336437889450015;0.061180789232181204;1.2275324344137517;4.174365030966819;0.022406160578582888;-0.023452635872336;0.9449271838234544;0.8928873827285244;4.25871452073917;2.5801841496326317;0.02824513102885695;0.00016761875889287857;0.04282655246252687;-0.0632201488732537;0.00045610232277143486;0.0632201488732538;0.0
1.6429152521048138;-0.0703579076170082;2.097601697544482;1.1002737532510174;4.0307963627561385;0.018173963339512336;-0.0499643112062812;0.9099370874159066;0.8279855030549433;4.17072833094045;2.073126633395968;0.00785153461813004;9.799614875655815e-05;0.022432956051799957;-0.0825940654634444;0.0003856594678297236;0.0418068726419905;1.147754581092519;4.174365030966819;0.022704005656279946;-0.0254919955134087;0.9127892603555001;0.833184233820341;4.25871452073917;2.1611128231946886;0.02824513102885695;0.00021654462862279235;0.04282655246252687;-0.0825940654634444;0.00038137917627483863;0.0418068726419905;1.2524107327849487;4.174365030966819;0.024623150572329156;-0.0224329560517997;0.9432916022739768;0.8897990469206065;4.25871452073917;2.5801841496326317;0.02824513102885695;0.00043092889416660097;0.0805547058223719;-0.0632201488732537;0.0004951621493492016;0.0632201488732538;0.0
4.0307963627561385;-0.0499643112062812;4.17072833094045;1.1851064614390756;4.174365030966819;0.029108540114463594;-0.0254919955134087;1.0095834879391825;1.0192588191194454;4.25871452073917;2.1611128231946886;0.02824513102885695;0.00035100123661609335;0.04282655246252687;-0.0825940654634444;0.000385659467829722;0.0418068726419905;1.1776246016220244;4.174365030966819;0.027343141073046674;-0.023452635872336;0.9436151390351735;0.8904095306163698;4.25871452073917;2.1611128231946886;0.02824513102885695;0.0002571987338363856;0.04282655246252687;-0.0825940654634444;0.00041690386326881346;0.0438462322830631;1.2242224820962806;4.174365030966819;0.024068668056046898;-0.0224329560517997;0.9059598846885869;0.8207633126649576;4.25871452073917;2.5801841496326317;0.02824513102885695;0.00042538357717241955;0.0805547058223719;-0.0632201488732537;0.00047529143012005104;0.0632201488732538;0.0
4.174365030966819;-0.0254919955134087;4.25871452073917;1.2334831847720336;4.174365030966819;0.022238996367160205;-0.023452635872336;1.049849329739479;1.1021836151544335;4.25871452073917;2.1611128231946886;0.02824513102885695;0.0004043749126850899;0.04282655246252687;-0.0825940654634444;0.00043972630852299126;0.0438462322830631;0.9938744439073961;4.174365030966819;0.029543745444411417;-0.0224329560517997;0.837991543841883;0.7022298275505026;4.25871452073917;2.1611128231946886;0.02824513102885695;0.0006845693829317171;0.0805547058223719;-0.0825940654634444;0.0002922382055933689;0.0438462322830631;1.0453240305939422;4.174365030966819;0.028877929404975487;-0.0224329560517997;0.891426233540979;0.7946407298450562;4.25871452073917;2.495312994937368;0.02824513102885695;0.0004225531549566392;0.0805547058223719;-0.0825940654634444;0.0003445143710072683;0.0438462322830631;0.0
4.116025751286684;-0.023452635872336;4.156625258731328;0.37961710855700836;4.174365030966819;0.013147544568397432;-0.0224329560517997;0.4154926628072158;0.17263415284663075;4.25871452073917;0.8894186625238945;0.02824513102885695;0.0010872287131717317;0.0805547058223719;-0.1172631793616804;1.550955846809888e-05;0.009177118384827099;0.974957677283793;4.174365030966819;0.019663347309634493;-0.0224329560517997;0.8561056434327745;0.7329168727174448;4.25871452073917;2.1611128231946886;0.02824513102885695;0.0006590609247584815;0.0805547058223719;-0.0825940654634444;0.00027782038140849677;0.0438462322830631;0.984581742036395;4.174365030966819;0.02890537010309281;-0.0224329560517997;0.8716495325632053;0.7597729076176544;4.25871452073917;2.495312994937368;0.02824513102885695;0.0004658066275112564;0.0805547058223719;-0.0825940654634444;0.0003020926960017792;0.0438462322830631;0.0
3.3570393126119615;-0.0224329560517997;3.369295858215276;0.5744981961977913;4.174365030966819;0.013655082714115939;-0.0224329560517997;0.6013660172280719;0.3616410866767537;4.25871452073917;1.2331886138572212;0.02824513102885695;0.001089914726090789;0.0805547058223719;-0.1060467013357805;7.789437465264212e-05;0.020393596410727008;0.9448518737338809;4.174365030966819;0.032410209373326275;-0.0224329560517997;0.9699243921094044;0.9407533264087977;4.25871452073917;2.495312994937368;0.02824513102885695;0.000659372848839404;0.0805547058223719;-0.0836137452839808;0.00026551670932765573;0.0428265524625267;0.9242727735355852;4.174365030966819;0.035381608211363554;0.0101967982053635;0.8816938666929021;0.7773840745638809;4.25871452073917;2.495312994937368;0.02824513102885695;0.0004924501427567381;0.0805547058223719;-0.0825940654634444;0.00026663732547023075;0.0438462322830631;30.0
3.0074025093369885;-0.0509839910268175;3.025525906881949;0.996947241997077;4.116025751286684;0.03965842322224559;-0.0224329560517997;0.9965283698989972;0.9930687920135526;4.156625258731328;2.3932237329295254;-0.005404303048842873;0.0004980387825399367;0.04690527174467207;-0.0836137452839808;0.0003412969318762679;0.0428265524625267;0.9018215808563833;4.174365030966819;0.03248031041215025;-0.0224329560517997;0.9149514750171819;0.8371362016361168;4.25871452073917;2.495312994937368;0.02824513102885695;0.0007774881008154736;0.0805547058223719;-0.0836137452839808;0.00024732113794049713;0.0428265524625267;1.090068036623326;4.174365030966819;0.03252518458461771;0.0101967982053635;1.0714765642898798;1.1480620278224447;4.25871452073917;3.0514554504706752;0.02824513102885695;0.0005257913611842551;0.0805547058223719;-0.0723972672580809;0.00038088240829410906;0.0540430304884266;30.0
1.7274160292565854;-0.1070663811563169;1.7634015258018025;0.7139061051555116;3.3570393126119615;0.03536288967790202;-0.0224329560517997;0.7027357558396989;0.4938375425355929;3.369295858215276;1.6058943324134733;0.017028653002957195;0.0008473071075953461;0.06933822779647214;-0.0836137452839808;0.00019581900635703696;0.0336494340776996;0.8174455192851979;4.116025751286684;0.03967557016666408;0.0101967982053635;0.8205584667799429;0.6733161974042507;4.156625258731328;2.3932237329295254;0.017028653002957195;0.000633873055223974;0.06933822779647214;-0.0836137452839808;0.000244305871824911;0.0428265524625267;1.2171380347297145;4.174365030966819;0.032559265333559455;0.0101967982053635;1.2461328466499162;1.5528470714998237;4.25871452073917;3.4431627711757993;0.02824513102885695;0.0005557129674653598;0.0805547058223719;-0.0652595085143265;0.00048988254546099;0.061180789232180996;30.0
2.972704027560348;-0.0525135107576221;2.981455717841488;0.6025351508894904;3.0074025093369885;0.04791478080691483;0.0101967982053635;0.5938586304686511;0.3526680729821019;3.025525906881949;1.2621243810801466;0.017028653002957195;0.00016451829129222913;0.023452635872336258;-0.0836137452839808;0.00010432127595304144;0.022432956051799693;0.8352486343575284;3.3570393126119615;0.04007019518285212;0.0101967982053635;0.8341195554479424;0.695755432780673;3.369295858215276;2.162036787946781;0.017028653002957195;0.0007031202011888169;0.06933822779647214;-0.0723972672580809;0.00026451162062246107;0.0448659121035995;1.1567285615656124;4.174365030966819;0.03215473902477043;0.0101967982053635;1.1741704323411968;1.3786762041843128;4.25871452073917;3.4431627711757993;0.031304170490465966;0.0006307826962740923;0.08361374528398091;-0.0652595085143265;0.0004473684485055973;0.061180789232180996;0.0
2.38403052081404;0.0101967982053635;2.384154140095802;0.7708991542574298;2.972704027560348;0.050267517651198676;0.0101967982053635;0.7674584233128156;0.5889924315137928;2.981455717841488;1.774196647572993;0.017028653002957195;0.0001135706914081856;0.022432956051800068;-0.0723972672580809;0.00017008526968091548;0.030590394616090588;0.9190088181072067;3.0074025093369885;0.04219029226562523;0.0101967982053635;0.9213713403439293;0.8489251468071689;3.025525906881949;2.209974157318578;0.0211073722851024;0.00014664764082269332;0.027531355154481463;-0.0652595085143265;0.0002698143299981469;0.04078719282145399;1.3719012547009988;4.116025751286684;0.03335464150824617;0.0101967982053635;1.1740581795144736;1.3784126088848399;4.156625258731328;3.6067413367642103;0.031304170490465966;0.0007929832183539042;0.08361374528398091;-0.0448659121035994;0.0006159460851287173;0.0815743856429081;0.0
1.202811940302631;-0.0193739165901906;1.207259070268495;1.0062435903088018;2.972704027560348;0.02675688229037801;0.0101967982053635;1.0080803956407092;1.0162260840751287;2.981455717841488;2.165903968278117;0.0211073722851024;7.689795050527806e-06;0.006118078923218029;-0.0652595085143265;0.00030733186528690977;0.03772815335984499;0.7821290731890366;2.972704027560348;0.04177255835438713;0.0101967982053635;0.7826786939613297;0.6125859379810128;2.981455717841488;2.165903968278117;0.031304170490465966;0.00014408293171288417;0.03670847353930884;-0.0652595085143265;0.00018441644828775104;0.03772815335984499;1.1743042517512123;3.3570393126119615;0.03313083422145043;0.0101967982053635;0.9581226993951951;0.9179991070963354;3.369295858215276;2.8194119362481582;0.031304170490465966;0.000824406681320933;0.08361374528398091;-0.0448659121035994;0.00044853527562312297;0.072397267258081;0.0
0.8140232563269518;-0.0050983991026817;0.815551749563371;0.7068347232034594;2.38403052081404;0.016596574724031192;0.0101967982053635;0.7056797078161161;0.49798385002343903;2.384154140095802;1.5686023905324311;0.031304170490465966;5.742435684209369e-05;0.016314877128581595;-0.0652595085143265;0.00014764406497008755;0.02753135515448149;1.2548303923181763;2.972704027560348;0.02759249951758121;0.0101967982053635;0.948033957292872;0.8987683841803831;2.981455717841488;2.4315717958743703;0.031304170490465966;0.0007442248634081869;0.07647598654022647;-0.0448659121035994;0.00043201485207795923;0.05812174977057209;1.0827254228359515;3.0074025093369885;0.03274642823172936;0.0101967982053635;0.8547810119365445;0.7306505783672631;3.025525906881949;2.4756419849148315;0.031304170490465966;0.00047262563450253836;0.07647598654022647;-0.0448659121035994;0.00034227963714047083;0.06118078923218109;0.0
1.9313215442991902;-0.0275313551544814;1.9322255091129201;1.039989165902586;1.9313215442991902;0.024273234861299092;-0.0050983991026817;0.6013568679514177;0.3616300826323388;1.9322255091129201;1.3823415871458025;0.031304170490465966;0.0011890372673617846;0.07647598654022647;-0.0448659121035994;0.00026574198783055027;0.0387478331803814;1.0476117247017938;2.38403052081404;0.024692257967028102;0.0101967982053635;0.709168915160315;0.502920550229658;2.384154140095802;1.8342702181286845;0.031304170490465966;0.0007554541303214036;0.07647598654022647;-0.0448659121035994;0.00028922293947778333;0.047924951565208596;1.0191442543779752;2.972704027560348;0.03279155477150632;0.0101967982053635;0.7995125304537005;0.6392202863524794;2.981455717841488;2.4315717958743703;0.031304170490465966;0.0005478571017235994;0.07647598654022647;-0.0448659121035994;0.0002870864039327572;0.05812174977057209;0.0
-0.5463188627825115;-0.0622004690527174;0.5498839219671176;1.148646113131067;1.9313215442991902;0.023495084116792655;-0.0050983991026817;0.6992997680863189;0.4890201656455793;1.9322255091129201;1.3823415871458025;0.031304170490465966;0.0012275945495869524;0.07647598654022647;-0.0448659121035994;0.0003315926271364559;0.0387478331803814;1.0783113833585163;2.5228945039913215;0.01923928037535759;-0.0050983991026817;0.7497045288845148;0.5620568806299522;2.532828731466912;1.9829448094997941;0.031304170490465966;0.0007476473637405322;0.07647598654022647;-0.0448659121035994;0.00031650979814016797;0.0512389109819517;1.071783450662303;2.972704027560348;0.02226813317059045;0.0101967982053635;0.8801801310230786;0.7747170630478037;2.981455717841488;2.4593001729214676;0.03232385031100238;0.0006000061869563817;0.07749566636076288;-0.0448659121035994;0.00032437866071862825;0.05812174977057209;0.0
1.8155782037371146;-0.0305903946160905;1.8211848578537126;1.3540366152899377;2.5228945039913215;0.01568672819987655;-0.0275313551544814;0.8335984100295938;0.6948863092038668;2.532828731466912;1.9829448094997941;0.031304170490465966;0.0011426818831135465;0.07647598654022647;-0.0448659121035994;0.0004908201228199719;0.0512389109819517;1.088411387375708;2.5228945039913215;0.020030069508841866;-0.0050983991026817;0.7723196112662174;0.5964775819464012;2.532828731466912;1.9829448094997941;0.031304170490465966;0.0008822945920054992;0.07647598654022647;-0.0448659121035994;0.0003186239502441997;0.0512389109819517;1.01621114541581;2.5228945039913215;0.024288460351183677;0.0101967982053635;0.7999860458150608;0.6399776734988166;2.532828731466912;2.168851592656388;0.03232385031100238;0.0006491746643047911;0.07749566636076288;-0.0448659121035994;0.0002856018763624393;0.0512389109819517;0.0
2.5228945039913215;-0.0387478331803813;2.532828731466912;1.3228554535873311;2.5228945039913215;0.014005912632498055;-0.0305903946160905;0.8844593796333724;0.7822683942214499;2.532828731466912;1.9829448094997941;0.020087692464565987;0.0008625567293293369;0.06525950851432649;-0.0448659121035994;0.0004744874313605466;0.0512389109819517;1.12083837055316;2.5228945039913215;0.01440602264704749;-0.0275313551544814;0.8269244825773827;0.6838040998858721;2.532828731466912;2.0106731865468914;0.03232385031100238;0.0009894231846868458;0.07749566636076288;-0.0448659121035994;0.00034576134528447623;0.0512389109819517;0.9447754231892459;2.5228945039913215;0.019405494966114253;-0.0050983991026817;0.7382325767586264;0.5449873373876812;2.532828731466912;2.168851592656388;0.03232385031100238;0.0006611057604000844;0.07749566636076288;-0.0448659121035994;0.0002481998685110577;0.0512389109819517;30.0
0.930322071693352;-0.0520036708473539;0.9727488758461765;0.9063946707366682;2.5228945039913215;0.010934847858431067;-0.0275313551544814;0.8941219129759231;0.7994539952637242;2.532828731466912;2.0106731865468914;0.03232385031100238;0.0005596437885221648;0.0550627103089627;-0.0591414295911083;0.0002531079794834535;0.0369633934944428;1.1457714579074303;2.5228945039913215;0.016627348266971653;-0.0275313551544814;0.8675418164328647;0.7526288032596342;2.532828731466912;2.168851592656388;0.03232385031100238;0.0008395609929190884;0.07749566636076288;-0.0448659121035994;0.0003691556513536799;0.0512389109819517;0.9409216135154994;2.5228945039913215;0.01843713458602869;-0.0050983991026817;0.7404431105656133;0.548255999984081;2.532828731466912;2.168851592656388;0.03232385031100238;0.0006594421653018299;0.07749566636076288;-0.0448659121035994;0.00024632254765365245;0.0512389109819517;0.0
0.4959827760159814;-0.0275313551544814;0.5221555449200204;1.0974254959178156;2.5228945039913215;0.017153669665810767;-0.0275313551544814;0.9907585829314622;0.9816025696523591;2.532828731466912;2.168851592656388;0.03232385031100238;0.0006172630979148345;0.0550627103089627;-0.0530233506678902;0.00036241137617345565;0.0430814724176609;0.972133104002962;2.5228945039913215;0.014729580014289414;-0.0275313551544814;0.8740569263488496;0.7639755104983982;2.532828731466912;2.168851592656388;0.03232385031100238;0.0004757881981007733;0.0550627103089627;-0.0530233506678902;0.0002824407568571655;0.0430814724176609;0.947089995463036;2.5228945039913215;0.014031047930827845;-0.0275313551544814;0.7407218000642715;0.5486687850904546;2.532828731466912;2.168851592656388;0.03232385031100238;0.0007668249183454083;0.07749566636076288;-0.0448659121035994;0.0002540166749830797;0.0512389109819517;0.0
-0.017895826012884974;-0.0672988681553992;0.3639771388105236;0.39365176874485935;0.930322071693352;0.016504959779992397;-0.0275313551544814;0.2644895814303061;0.06995473868517853;0.9727488758461765;0.6087717370356529;0.03232385031100238;0.0007197648167291577;0.0550627103089627;-0.0530233506678902;5.501994205165037e-05;0.017334556949118007;0.889122681278092;2.5228945039913215;0.013301513836612957;-0.0275313551544814;0.8040750665388184;0.6465367126294053;2.532828731466912;2.168851592656388;0.03232385031100238;0.00044310548606631676;0.0550627103089627;-0.0530233506678902;0.00024267043653951955;0.0430814724176609;0.8833237173553664;2.5228945039913215;0.013908240044917187;-0.0275313551544814;0.6894506532992334;0.47534220333473964;2.532828731466912;2.168851592656388;0.03232385031100238;0.0006448279444734136;0.07749566636076288;-0.0448659121035994;0.00022854287504105788;0.0512389109819517;0.0
0.3315221598856839;-0.0448659121035994;0.5023717913524532;0.3539303902683669;0.8332677467784655;0.016282980955104723;-0.0275313551544814;0.23365420429718348;0.054594287185749955;0.9084473621318507;0.5444702233213271;0.03232385031100238;0.0004744711853146631;0.047924951565208485;-0.0530233506678902;3.604456046218559e-05;0.014275517487509007;0.4646744302798285;1.2797450832670192;0.013842881216718833;-0.0275313551544814;0.40039896763378535;0.1603193332822011;1.4368309736002873;1.0728538347897638;0.03232385031100238;0.000669042495348003;0.0672988681553992;-0.0530233506678902;8.501664116704711e-05;0.024472315692872504;0.7694813692676278;2.5228945039913215;0.01954341988286589;0.0020393596410727;0.6835843046982485;0.4672875016297879;2.532828731466912;2.168851592656388;0.03232385031100238;0.00045245165575026326;0.0672988681553992;-0.0530233506678902;0.00018133836412808732;0.0430814724176609;0.0
0.8332677467784655;-0.0458855919241358;0.9084473621318507;0.5686725510888938;1.2797450832670192;0.013715230581802091;-0.0346691138982359;0.48165658825370955;0.2319930690082035;1.4368309736002873;1.0728538347897638;0.020087692464565987;0.0005316572668171582;0.055062710308962814;-0.0530233506678902;0.00012026406231131812;0.024472315692872504;0.46180639121296185;1.2797450832670192;0.015165487869952638;-0.0275313551544814;0.4288776255926984;0.1839360177340308;1.4368309736002873;1.0728538347897638;0.03232385031100238;0.0006144557811865306;0.0672988681553992;-0.0530233506678902;8.262522321330642e-05;0.024472315692872504;0.7050237427780249;2.5228945039913215;0.0193437797993604;0.0020393596410727;0.6333281715101456;0.40110457282838446;2.532828731466912;2.168851592656388;0.03232385031100238;0.0004166179328613001;0.0672988681553992;-0.0530233506678902;0.00015837728594905417;0.0430814724176609;0.0
1.2797450832670192;-0.0346691138982359;1.4368309736002873;0.390027941621502;1.2797450832670192;0.010930885239037184;-0.0346691138982359;0.40045157185452224;0.16036146140075758;1.4368309736002873;0.9344591822478341;0.020087692464565987;0.0005229927090137498;0.055062710308962814;-0.0571020699500356;7.035620936368308e-05;0.020393596410727105;0.48386784848896164;1.2797450832670192;0.024594513806366815;0.0020393596410727;0.41669430600165464;0.1736341446542006;1.4368309736002873;1.0728538347897638;0.020087692464565987;0.0003441215777201778;0.055062710308962814;-0.0530233506678902;8.720010973350626e-05;0.024472315692872504;0.8644648955225402;1.2797450832670192;0.019894937878853793;0.0020393596410727;0.4507402135833798;0.20316674014119085;1.7902416062558817;1.4262644674453582;0.03232385031100238;0.0004130827932775098;0.0672988681553992;-0.0214132762312633;0.00024025085877291347;0.05608239012949941;0.0
0.9064450908195782;-0.061180789232181;1.1858153652348258;0.41524647532822334;1.2797450832670192;0.026931582458580766;0.0020393596410727;0.3512206770321943;0.12335596397495292;1.4368309736002873;0.8140049125888873;0.0017334556949117896;0.00026409572184789976;0.03670847353930862;-0.0571020699500356;7.035620936368308e-05;0.020393596410727105;0.3827337496193103;1.2797450832670192;0.021625066792164437;0.0020393596410727;0.3464473747542632;0.12002578347412088;1.4368309736002873;0.9344591822478341;0.020087692464565987;0.0003737283717344264;0.055062710308962814;-0.0571020699500356;6.099848693599809e-05;0.020393596410727105;1.0434766555672863;1.2797450832670192;0.020401808844610334;0.0020393596410727;0.5025062281834268;0.25251250936313424;1.7902416062558817;1.4262644674453582;0.03232385031100238;0.00043734355512705547;0.0672988681553992;-0.0214132762312633;0.00033784843787050913;0.05608239012949941;0.0
0.2738144851897446;0.0020393596410727;0.6228260610114;0.41650786254207994;1.2797450832670192;0.027074371463957733;0.0020393596410727;0.3472786627535783;0.12060246960391359;1.4368309736002873;0.8140049125888873;0.010400734169470849;0.000395688693487171;0.045375752013867676;-0.0571020699500356;7.035620936368308e-05;0.020393596410727105;1.1187161238262027;1.2797450832670192;0.02287736762735385;0.0020393596410727;0.4176627325044832;0.17444215812311148;1.7902416062558817;1.1674155452444817;0.010400734169470849;0.00024376000468329692;0.045375752013867676;-0.0214132762312633;0.00039943611473714337;0.05608239012949941;1.3570051532659533;2.893394575566731;0.020201215799966497;0.0020393596410727;0.772476907452431;0.5967205725472717;2.968795844881705;2.6048187060711814;0.020087692464565987;0.00028524013107414966;0.055062710308962814;-0.0214132762312633;0.0005658649410250137;0.0815743856429082;0.0
0.886127561911346;-0.0469052717446721;0.943818599732414;1.272703081869463;0.9064450908195782;0.0291754375906663;0.0020393596410727;0.4935566197833625;0.24359813693197865;1.7902416062558817;1.1674155452444817;0.010400734169470849;0.0001232749961480016;0.023962475782604353;-0.0214132762312633;0.0004944863138405428;0.04792495156520861;1.3425218595975632;1.2797450832670192;0.023445984843453692;0.0020393596410727;0.43729363085442996;0.19122571958585047;1.7902416062558817;1.1674155452444817;0.010400734169470849;0.00029449965518005847;0.045375752013867676;-0.0214132762312633;0.0005685336248284683;0.05608239012949941;1.8292743132277625;4.355605769302245;0.018016267317605816;0.0020393596410727;1.210651114951521;1.4656761221333605;4.433984700162;3.931612908809547;0.020087692464565987;0.0002777308476445289;0.055062710308962814;-0.0214132762312633;0.001034617518189426;0.1080860609768533;0.0
-1.7879760771714328;-0.0571020699500356;1.7902416062558817;1.3334151383593487;0.886127561911346;0.02616129623874256;0.0020393596410727;0.5534142185647812;0.30626729730966745;1.7902416062558817;1.1674155452444817;0.010400734169470849;0.00027490475770765386;0.038237993270113235;-0.0214132762312633;0.0005205666328288042;0.04588559192413591;1.7506239390140728;2.893394575566731;0.023593343373125124;0.0020393596410727;0.8284223516540345;0.6862835927200008;2.968795844881705;2.345969783870305;0.010400734169470849;0.00019191129078769976;0.038237993270113235;-0.0214132762312633;0.0009263798621092486;0.0815743856429082;1.901421379422571;4.355605769302245;0.017906924783126582;0.0020393596410727;1.1884934337728061;1.4125166421210753;4.433984700162;3.8111586391506;0.018048332823493385;0.00026643226426888454;0.05302335066789021;-0.0214132762312633;0.001100849398038683;0.1080860609768533;0.0
-1.5797015614842684;-0.0254919955134087;1.624081878806335;2.221625960791524;2.893394575566731;0.01459662551365261;-0.0254919955134087;0.8418520098156721;0.7087148064306864;2.968795844881705;2.024977245149291;0.010400734169470849;0.00028079665701397213;0.038237993270113235;-0.0214132762312633;0.0014836322326776832;0.0815743856429082;2.43556238431708;4.355605769302245;0.0206141837798729;0.0020393596410727;1.4167387404046214;2.007148658563273;4.433984700162;3.8111586391506;0.010400734169470849;0.00017971159340050014;0.038237993270113235;-0.0214132762312633;0.0018199730374903959;0.1080860609768533;2.020485191101888;4.355605769302245;0.021156820558016216;0.0020393596410727;1.2384211750737966;1.5336870068711632;4.433984700162;3.8111586391506;0.018048332823493385;0.0002704526190896665;0.05302335066789021;-0.0214132762312633;0.0012444731081879862;0.1080860609768533;0.0
2.893394575566731;-0.0305903946160905;2.968795844881705;3.123522732212756;4.355605769302245;0.013940804551045512;-0.0254919955134087;1.2992486480219891;1.6880470493869666;4.433984700162;2.8099028213556654;0.002753135515448202;0.00017952963768663193;0.030590394616090588;-0.0214132762312633;0.0029899656068002865;0.1080860609768533;2.5146982738213186;4.355605769302245;0.01153185298062353;-0.0254919955134087;1.242017251899504;1.542606854015996;4.433984700162;3.490166100429586;0.018048332823493385;0.00026344588001264165;0.04588559192413577;-0.0214132762312633;0.0019213483637902779;0.1080860609768533;2.118211516011298;4.355605769302245;0.033582418669471696;0.0418068726419904;1.3011828449500706;1.6930767959923598;4.433984700162;3.8111586391506;0.018048332823493385;0.00017389478692848005;0.04588559192413577;-0.0214132762312633;0.0013635125796630841;0.1080860609768533;0.0
4.355605769302245;-0.040787192821454;4.433984700162;2.5518865386022767;4.355605769302245;0.006469143234653051;-0.0254919955134087;1.1520911332461548;1.3273139793044093;4.433984700162;2.8099028213556654;0.018048332823493385;0.0003639114277431686;0.04588559192413577;-0.0254919955134087;0.001976905508425736;0.1040073416947079;2.634665122621403;4.355605769302245;0.01819968998935718;-0.0254919955134087;1.0575723494354843;1.1184592742904902;4.433984700162;2.8099028213556654;0.018048332823493385;0.0002326607061371304;0.04588559192413577;-0.0214132762312633;0.0021134935976386696;0.1080860609768533;2.4955519066686374;5.8132013279384545;0.035436380082232176;0.0418068726419904;1.6778860600525052;2.815301630518519;6.082023121488853;5.459197060477453;0.018048332823493385;0.00016015063211282266;0.04588559192413577;-0.0214132762312633;0.001897607475408936;0.1325583766697257;0.0
2.6305167561807874;-0.0346691138982359;2.8032165348453377;0.7589539028854339;4.355605769302245;0.019489849001504196;-0.0305903946160905;0.7349942321907735;0.5402165213537047;4.433984700162;1.6307681653166624;0.018048332823493385;8.248659028845315e-05;0.020393596410727022;-0.0968695829509534;0.0002005845131489094;0.032629754257163204;2.0755396368232395;4.355605769302245;0.037822653946728686;0.0418068726419904;0.9540791384337608;0.9102670023945072;4.433984700162;2.8099028213556654;0.018048332823493385;0.00023515609878451216;0.04588559192413577;-0.0254919955134087;0.0013084175447771432;0.1040073416947079;2.7831712785574285;6.548416858357095;0.03484196194212165;0.0418068726419904;1.9060675821356479;3.633093627668435;6.874297843508284;5.93047924377587;0.018048332823493385;0.00017268535906842067;0.04588559192413577;-0.0214132762312633;0.00235127216925168;0.144794534516162;0.0
3.272081935881382;-0.0734169470786173;3.5142467558783497;0.7133873594186806;4.355605769302245;0.048777053285720226;0.0418068726419904;0.6696784649006519;0.44846924635169355;4.433984700162;1.6307681653166624;0.018048332823493385;8.205336239828285e-05;0.020393596410727022;-0.0968695829509534;0.00018056938462303513;0.032629754257163204;1.1840426644801814;5.8132013279384545;0.04219922485055585;0.0418068726419904;1.2089629351792783;1.461591378637296;6.082023121488853;3.2788065866435154;0.018048332823493385;5.146097493389421e-05;0.020393596410727022;-0.0968695829509534;0.0004437639924593768;0.0571020699500356;2.879125822611487;6.548416858357095;0.038770039140960506;0.0418068726419904;1.8643981825252065;3.4759805830032935;6.874297843508284;5.250215964701949;0.020087692464565987;0.00020056212970792032;0.047924951565208374;-0.0214132762312633;0.0024929550184530206;0.144794534516162;0.0
3.328158610705513;0.0418068726419904;3.6899323833341033;1.4042691095641666;5.8132013279384545;0.05196950368149112;0.0418068726419904;1.4256238577914029;2.032403383904042;6.082023121488853;3.2788065866435154;0.018048332823493385;5.139707382009686e-05;0.017334556949117785;-0.0968695829509534;0.0006214220856604688;0.0571020699500356;1.5577460910649867;6.548416858357095;0.04214004974715866;0.0418068726419904;1.5890297351977418;2.5250154993426053;6.874297843508284;4.071081308662946;0.018048332823493385;5.4736177783582756e-05;0.020393596410727022;-0.0968695829509534;0.0007488950600642184;0.0693382277964719;2.306053606743919;6.548416858357095;0.039395521909099146;0.0418068726419904;1.702292229419596;2.8977988343423378;6.874297843508284;5.250215964701949;0.020087692464565987;0.00018634647853846062;0.047924951565208374;-0.0254919955134087;0.00159415155564609;0.1407158152340166;0.0
5.8132013279384545;0.0183542367696543;6.082023121488853;1.6901884817624908;6.548416858357095;0.04972703642400984;0.0418068726419904;1.693228300555692;2.867022077802717;6.874297843508284;3.3600510876299343;0.011930253900275356;2.1504349398337417e-05;0.011216478025899757;-0.1101254206179259;0.0008570980579131864;0.05608239012949939;1.6808833447888663;6.548416858357095;0.044568290827850236;0.0418068726419904;1.7287351113950953;2.9885250853702123;6.874297843508284;4.071081308662946;0.020087692464565987;5.2829975066831874e-05;0.019373916590190388;-0.0968695829509534;0.0008565088679825543;0.0693382277964719;1.3725622017026913;6.548416858357095;0.04015073366611472;0.0418068726419904;1.446541287568425;2.0924816966401165;6.874297843508284;4.071081308662946;0.020087692464565987;5.490513666075041e-05;0.022432956051799624;-0.0968695829509534;0.0005673436922234672;0.0693382277964719;0.0
6.548416858357095;-0.0061180789232181;6.874297843508284;1.4140463375691932;6.548416858357095;0.02146985037538289;0.0418068726419904;1.4005448488057854;1.9615258735164203;6.874297843508284;3.1843654601741807;0.020087692464565987;3.5497610250841954e-05;0.013000917711838422;-0.1101254206179259;0.0006023600584929689;0.05608239012949939;1.4268034650417638;6.548416858357095;0.04396542813673992;0.0418068726419904;1.416018266861817;2.005107732086344;6.874297843508284;3.3600510876299343;0.020087692464565987;4.269244243684369e-05;0.019373916590190388;-0.1101254206179259;0.0006041969447472926;0.05608239012949939;1.278413167575009;6.548416858357095;0.03900043897867125;0.0418068726419904;1.3350949979260154;1.7824786534870671;6.874297843508284;4.071081308662946;0.020087692464565987;5.206316170123246e-05;0.022432956051799624;-0.0968695829509534;0.0004933483685823574;0.0693382277964719;0.0
5.865780592576828;0.0356887937187723;6.2679334119562515;1.0335815592511;6.548416858357095;0.020040016322048715;0.0367084735393086;0.884454643529253;0.782260016460458;6.874297843508284;2.100620922635068;0.020087692464565987;2.8782577953200675e-05;0.013000917711838422;-0.1233812582848985;0.00033089946251217266;0.0428265524625268;1.2096701386808517;6.548416858357095;0.017583687913996764;0.0418068726419904;1.150232892727499;1.3230357075122703;6.874297843508284;3.1843654601741807;0.020087692464565987;2.219209867397932e-05;0.013000917711838422;-0.1101254206179259;0.0004441798912339399;0.05608239012949939;1.2851136108574925;6.548416858357095;0.036674468461570735;0.0418068726419904;1.3374631089993867;1.7888075679343056;6.874297843508284;4.071081308662946;0.020087692464565987;3.665757792677175e-05;0.019373916590190388;-0.0968695829509534;0.0004982005209522663;0.0693382277964719;0.0
4.120144677929047;0.0367084735393086;4.773676920873216;1.061022763172514;6.548416858357095;0.020024877905788583;0.0367084735393086;0.913747179267399;0.8349339076191282;6.874297843508284;2.100620922635068;0.020087692464565987;1.3430064595285789e-05;0.008157438564290631;-0.1233812582848985;0.0003447627549976276;0.0428265524625268;0.8601762371894838;6.548416858357095;0.0167602196878952;0.0367084735393086;0.7220114684349382;0.5213005605515758;6.874297843508284;2.100620922635068;0.020087692464565987;1.794646535030944e-05;0.013000917711838422;-0.1233812582848985;0.00023068518695794848;0.0428265524625268;1.0690858152682552;6.548416858357095;0.034287297290836995;0.0418068726419904;1.0722490693052635;1.149718066626004;6.874297843508284;3.3600510876299343;0.020087692464565987;3.322063666475304e-05;0.019373916590190388;-0.1101254206179259;0.00033790620158920585;0.05608239012949939;0.0
4.944905846722455;0.0254919955134087;5.49994461735568;0.7132484978218104;5.865780592576828;0.013715230581801694;0.0367084735393086;0.6129141886383203;0.3756638026341704;6.2679334119562515;1.4942564910830356;0.020087692464565987;1.0050887051956613e-05;0.007137758743754441;-0.1233812582848985;0.00014591115340939788;0.02957071479555419;0.8378882107294954;6.548416858357095;0.021768830822624072;0.0367084735393086;0.7164002434335578;0.5132293087916608;6.874297843508284;2.100620922635068;0.020087692464565987;1.1125292219575956e-05;0.008157438564290631;-0.1233812582848985;0.0002161287298482222;0.0428265524625268;1.014760852623228;6.548416858357095;0.02519455307557028;0.0418068726419904;0.9400001532255261;0.8836002880640126;6.874297843508284;3.1843654601741807;0.020087692464565987;3.587199135259623e-05;0.0203935964107268;-0.1101254206179259;0.0003054660971732437;0.05608239012949939;0.0
5.013608840229345;0.0071377587437544;5.631041348087716;0.455089042380189;5.1042392542130095;0.022316782531088975;0.0367084735393086;0.41505516889235056;0.17227079322425765;5.648421069865685;0.8747441489924688;0.019068012644029797;7.191582976832194e-06;0.006118078923218251;-0.1233812582848985;5.917892979727689e-05;0.01631487712858161;0.5645972683178851;5.865780592576828;0.02122959346530465;0.0367084735393086;0.4872056966527237;0.23736939085086578;6.2679334119562515;1.4942564910830356;0.020087692464565987;1.2754229086617066e-05;0.009177118384827154;-0.1233812582848985;9.042332523636837e-05;0.02957071479555419;1.6807643851781338;6.548416858357095;0.02397271860346173;0.0367084735393086;1.262382211427789;1.5936088477293149;6.874297843508284;4.550973683664957;0.020087692464565987;0.00011752678409191858;0.036708473539308284;-0.0622004690527174;0.0008250969577592708;0.1040073416947079;0.0
5.1042392542130095;-0.0142755174875089;5.648421069865685;0.15066568986225254;5.1042392542130095;0.016886402734453753;0.0254919955134087;0.15322269092340038;0.02347719301380788;5.648421069865685;0.3315791743943661;0.019068012644029797;1.1350570722468523e-05;0.008157438564290964;-0.1345977363107984;4.852152369903925e-06;0.0050983991026817;0.5912753144694091;5.1042392542130095;0.026127823870635735;0.0367084735393086;0.5298247351023659;0.28071424992629224;5.648421069865685;1.303616453742019;0.019068012644029797;4.325347255461522e-05;0.01937391659019061;-0.116243499541144;9.29187178837506e-05;0.023452635872336106;2.022760131111882;6.548416858357095;0.026815834524036374;0.0479249515652085;1.5438292858840177;2.3834088639531563;6.874297843508284;4.637108941251496;0.020087692464565987;0.00014613065554042268;0.036708473539308284;-0.0622004690527174;0.0011899441577452037;0.1040073416947079;0.0
4.7493134943209405;-0.003059039461609;5.316841895471319;0.6824026248762759;5.1042392542130095;0.017914664971420705;0.0071377587437544;0.6128924158724566;0.3756371134339762;5.648421069865685;1.303616453742019;0.019068012644029797;6.957639916137417e-05;0.01937391659019061;-0.116243499541144;0.00011948425210900233;0.023452635872336106;1.7941456136401555;5.1042392542130095;0.024860120253159135;0.0316100744366268;1.3044853858686993;1.7016821219450093;5.648421069865685;3.3250969100223577;0.019068012644029797;0.00017693027034560268;0.035688793718772094;-0.0622004690527174;0.000920557279265352;0.07749566636076272;1.8409209898210301;5.865780592576828;0.02778489783209547;0.0479249515652085;1.401062028974631;1.9629748090345096;6.2679334119562515;4.030744509699463;0.020087692464565987;0.0001513987066848953;0.036708473539308284;-0.0622004690527174;0.000976449453469212;0.0907515040277353;0.0
3.6245519727509796;-0.0346691138982359;4.344804616123666;2.093856854180758;5.1042392542130095;0.027750781927126898;0.0316100744366268;1.4960508628130365;2.2381681841236305;5.648421069865685;3.3250969100223577;0.019068012644029797;0.00023879521306194342;0.035688793718772094;-0.0622004690527174;0.001256707463806399;0.07749566636076272;2.1441757594290074;5.1042392542130095;0.03020502074933439;0.0479249515652085;1.5983418976369796;2.554696821741781;5.648421069865685;3.411232167608897;0.019068012644029797;0.00019367019602179028;0.035688793718772094;-0.0622004690527174;0.0013265784579330844;0.07749566636076272;1.7053432898034009;5.1042392542130095;0.026654221596298162;0.0479249515652085;1.317745706462746;1.7364537469010015;5.648421069865685;3.411232167608897;0.019068012644029797;0.0001344854898526418;0.035688793718772094;-0.0622004690527174;0.0008401270773622479;0.07749566636076272;0.0
0.4995077250102846;0.0316100744366268;2.323324159843327;2.122367983781736;4.7493134943209405;0.036834536870113545;0.0479249515652085;1.5255084939028711;2.327176164969806;5.316841895471319;3.079652993214531;0.010910574079738833;0.00013516710173317682;0.02753135515448113;-0.0622004690527174;0.001326283862967773;0.07239726725808102;1.9757119387571527;5.1042392542130095;0.03148428291927843;0.0479249515652085;1.4488146617769113;2.099063924179746;5.648421069865685;3.411232167608897;0.019068012644029797;0.0001985570066229131;0.035688793718772094;-0.0622004690527174;0.0011265658055991973;0.07749566636076272;1.7279496634680407;5.1042392542130095;0.02517712247564538;0.0479249515652085;1.321016065283171;1.7450834447362311;5.648421069865685;3.411232167608897;0.019068012644029797;0.00013753541419944182;0.035688793718772094;-0.0622004690527174;0.0008618808938206731;0.07749566636076272;0.0
0.7021144107193238;0.0479249515652085;2.2371889022567877;1.66617342311587;3.6245519727509796;0.03898858834364241;0.0479249515652085;1.0723845513381671;1.150008625948762;4.344804616123666;2.107615713866878;0.016008973182420783;0.00019018704378482416;0.03262975425716308;-0.0622004690527174;0.0008085765342141022;0.054043030488426604;1.6898402480151993;4.7493134943209405;0.030576795862532927;0.0479249515652085;1.1949675549272565;1.427947457328826;5.316841895471319;3.079652993214531;0.016008973182420783;0.00015013945761746533;0.03262975425716308;-0.0622004690527174;0.0008329066125260696;0.07239726725808102;1.7232563715322275;5.1042392542130095;0.028262284090938374;0.0479249515652085;1.2893587598100773;1.6624460114989807;5.648421069865685;3.411232167608897;0.019068012644029797;0.00013558300050774033;0.035688793718772094;-0.0622004690527174;0.0008674377635585929;0.07749566636076272;0.0
3.32629566978044;-0.0163148771285816;3.8663952058116235;1.455697463919753;3.32629566978044;0.029416481567760826;0.0479249515652085;0.7887347610308216;0.6221025232583474;3.8663952058116235;1.6292063035548359;0.016008973182420783;0.00021652729950718728;0.03262975425716308;-0.0622004690527174;0.000592655753753158;0.046905271744672204;1.6404737140868557;4.547533541517136;0.031133927002274166;0.0479249515652085;1.0662767914169191;1.1369461959143599;4.849380871255469;2.612191968998681;0.016008973182420783;0.00016788447199884683;0.03262975425716308;-0.0622004690527174;0.0007763443791854176;0.06831854797593562;1.8238586033112243;5.873361387546828;0.02798727529024377;0.0479249515652085;1.341289140276259;1.7990565578230258;6.029250526583773;3.7920616243269856;0.019068012644029797;0.00012749607989122547;0.035688793718772094;-0.0622004690527174;0.0009937208053573407;0.0938105434893444;0.0
2.8679636263347;-0.0010196798205363;3.30612667219699;1.6043410822435848;4.547533541517136;0.029416481567760867;0.0479249515652085;1.0909584161639412;1.1901902657989352;4.849380871255469;2.612191968998681;0.016008973182420783;0.00011714482150209244;0.02345263587233648;-0.0652595085143265;0.0007377870969602525;0.0652595085143265;1.86579730676159;4.892209633402296;0.0343113800052511;0.0479249515652085;1.231069654979659;1.5155324954117364;5.141027710765457;2.9038388085086697;0.016008973182420783;0.00016694869975607864;0.03262975425716308;-0.0622004690527174;0.0010279631377964073;0.07647598654022641;1.7987237076053721;5.873361387546828;0.029308971550937805;0.0479249515652085;1.2835221255202864;1.647429046700114;6.029250526583773;3.7920616243269856;0.018048332823493385;0.00012431907536330876;0.03466911389823568;-0.0622004690527174;0.0009688246426022133;0.0938105434893444;0.0
4.547533541517136;-0.0112164780258998;4.849380871255469;0.9656994593001554;4.892209633402296;0.019746014817005074;-0.0010196798205363;0.8533464953815245;0.7282002411799303;5.141027710765457;1.8349010385684674;0.016008973182420783;5.060101757190886e-05;0.015295197308045183;-0.1019679820536351;0.00030109338366845237;0.036708473539308714;1.8266044520840028;5.873361387546828;0.030785212887632318;0.0479249515652085;1.3716812183124;1.8815093646709904;6.029250526583773;3.7920616243269856;0.016008973182420783;8.387291953699731e-05;0.02345263587233648;-0.0652595085143265;0.0010279631377964065;0.09075150402773528;1.755072126234377;5.873361387546828;0.02936567730480927;0.0479249515652085;1.226739800135249;1.5048905372358707;6.029250526583773;3.7920616243269856;0.018048332823493385;0.00013419667125919498;0.03466911389823568;-0.0622004690527174;0.0009230642246564771;0.0938105434893444;0.0
4.892209633402296;-0.0469052717446721;5.141027710765457;1.251340033407514;5.873361387546828;0.020814127177722987;-0.0010196798205363;1.1339455058806323;1.2858324103068828;6.029250526583773;2.7231238543867833;0.01498929336188437;4.670196656037494e-05;0.014275517487508771;-0.1019679820536351;0.0005083496063259884;0.054043030488426694;1.103971336241915;5.873361387546828;0.01760732456127174;-0.0010196798205363;0.970618771551836;0.9421007996887951;6.029250526583773;2.7231238543867833;0.018048332823493385;6.0478613467791024e-05;0.017334556949117785;-0.1019679820536351;0.0003963515321591244;0.054043030488426694;1.7604130092397725;5.873361387546828;0.02795175318739371;0.0479249515652085;1.245091475311786;1.55025278189408;6.029250526583773;3.7920616243269856;0.018048332823493385;0.00013775491633046137;0.03466911389823568;-0.0622004690527174;0.0009297186050494952;0.0938105434893444;0.0
5.873361387546828;-0.0061180789232181;6.029250526583773;0.5818631462601185;5.873361387546828;0.019148997003505152;-0.0061180789232181;0.5300469202461048;0.28094973766238057;6.029250526583773;1.1798696553283046;0.018048332823493385;8.482602089537232e-05;0.017334556949117785;-0.130519017028653;0.00012572273372745766;0.025491995513408777;1.0280621698810077;5.873361387546828;0.01764566658483875;-0.0010196798205363;0.9389559075824752;0.8816381963840296;6.029250526583773;2.7231238543867833;0.018048332823493385;6.0478613467791024e-05;0.017334556949117785;-0.1019679820536351;0.0003442255524138176;0.054043030488426694;1.4509506175571807;5.873361387546828;0.028670204134885028;0.0479249515652085;1.1284456195248007;1.2733895162247115;6.029250526583773;3.7920616243269856;0.018048332823493385;8.082299519019813e-05;0.025491995513409083;-0.0652595085143265;0.0006422054716449181;0.09075150402773528;0.0
4.800465689604527;-0.0336494340776996;4.9983489397589285;0.8492890756241097;5.873361387546828;0.01829750019876227;-0.0061180789232181;0.8026675369321716;0.644275174844759;6.029250526583773;1.9607214640569044;0.018048332823493385;8.94182365311792e-05;0.017334556949117785;-0.1172631793616804;0.0002530050878595326;0.038747833180381386;0.9814352114807844;5.873361387546828;0.01597570701587903;-0.0061180789232181;0.9193212830315337;0.8451516214347453;6.029250526583773;2.6579139757792247;0.018048332823493385;6.214220856604538e-05;0.017334556949117785;-0.1040073416947078;0.0003221829173619457;0.052003670847353994;1.1833302437803888;5.873361387546828;0.0217638549305712;0.0361986336290404;1.073002247955462;1.1513338241174744;6.029250526583773;3.476374513785963;0.018048332823493385;5.273827516341468e-05;0.018354236769654197;-0.0876924645661262;0.00043887718185826066;0.06831854797593559;0.0
3.7951308321511323;-0.0152951973080452;4.068529062526869;1.2377082744443562;5.873361387546828;0.011989370874176113;-0.0061180789232181;1.1535996258192076;1.330792096690216;6.029250526583773;2.6579139757792247;0.018048332823493385;6.125842367010117e-05;0.017334556949117785;-0.1040073416947078;0.0005063567580312055;0.052003670847353994;1.1661149118167091;5.873361387546828;0.02846791325380602;0.0361986336290404;1.0808671828971574;1.1682738670640371;6.029250526583773;2.7057780757015473;0.018048332823493385;7.513904527115844e-05;0.018354236769654197;-0.1040073416947078;0.00043572328281781404;0.052003670847353994;1.3242428230533019;5.873361387546828;0.02178560778186953;0.0361986336290404;1.2078044046361445;1.4587914798584716;6.029250526583773;3.6286594801065752;0.018048332823493385;5.078586147171324e-05;0.018354236769654197;-0.0856531049250535;0.0005422395800810576;0.07035790761700829;0.0
3.020956205800955;-0.0112164780258998;3.3713365508045485;0.8669769480729429;4.800465689604527;0.029770387238263394;0.0361986336290404;0.7831785288126278;0.6133686079931121;4.9983489397589285;1.6748764888767025;0.018048332823493385;6.931646242727168e-05;0.018354236769654197;-0.1040073416947078;0.00021028881788873123;0.030590394616090616;1.3956696537258733;5.873361387546828;0.023795381650542062;0.0361986336290404;1.2685920019356676;1.609325667375145;6.029250526583773;3.476374513785963;0.018048332823493385;6.422170243886382e-05;0.018354236769654197;-0.0876924645661262;0.0006055486157646249;0.06831854797593559;1.3060791922916073;5.873361387546828;0.022722125909159972;0.0361986336290404;1.200031778674907;1.4400762698296612;6.029250526583773;3.6286594801065752;0.018048332823493385;5.186026663933599e-05;0.018354236769654197;-0.0856531049250535;0.0005268513254222038;0.07035790761700829;0.0
2.9321741419190763;0.0361986336290404;3.323472450882226;0.7183876429499007;3.7951308321511323;0.02618736505922803;0.0361986336290404;0.6194337746976514;0.38369820123618076;4.068529062526869;1.5156530497290586;0.016008973182420783;5.6839499190363514e-05;0.016314877128581595;-0.0876924645661262;0.0001465176724556438;0.029570714795554204;1.0910355806771928;4.800465689604527;0.02401863699523254;0.0361986336290404;0.9703826178619684;0.9416424250486471;4.9983489397589285;2.5977578932817305;0.018048332823493385;5.8121853745264454e-05;0.018354236769654197;-0.0856531049250535;0.000340101222899395;0.04894463138574491;1.3386206045293465;5.873361387546828;0.022882227598598395;0.0361986336290404;1.2206696596429154;1.490034417972751;6.029250526583773;3.6286594801065752;0.018048332823493385;4.5471599352289376e-05;0.018354236769654197;-0.0856531049250535;0.0005562674991647763;0.07035790761700829;0.0
2.039681322485788;-0.020393596410727;2.5528760127978103;0.5824373372833509;3.020956205800955;0.02653250195764499;0.0361986336290404;0.5068888049052871;0.25693626053831026;3.3713365508045485;0.9707455043273505;0.013969613541347958;3.769082644483002e-05;0.014275517487508771;-0.0856531049250535;0.00010085545283168051;0.018354236769654295;0.719267841550435;3.7951308321511323;0.022078874214451576;0.0361986336290404;0.6185584664699411;0.3826145764416452;4.068529062526869;1.6679380160496708;0.016008973182420783;4.145124453150643e-05;0.016314877128581595;-0.0856531049250535;0.000149065052449839;0.0316100744366269;1.3177841116799887;5.873361387546828;0.019065028498983828;0.0361986336290404;1.19714308441159;1.4331515645544952;6.029250526583773;3.6286594801065752;0.018048332823493385;4.100068752573063e-05;0.018354236769654197;-0.0856531049250535;0.0005329165158845894;0.07035790761700829;0.0
1.9083242968807408;-0.0173345569491179;2.400591046477198;0.6414910579307013;3.198079912972201;0.02653250195764498;0.0361986336290404;0.5276918757338165;0.27845871571547365;3.438001608088898;1.0374105616117002;0.005812174977057216;7.278228554865976e-06;0.006118078923218029;-0.0856531049250535;0.00012858203780258812;0.022432956051799693;1.083997304967677;4.927986293412617;0.021263238011640363;0.0361986336290404;0.9557721948812316;0.913500488508087;5.088605698456176;2.688014651978978;0.013969613541347958;2.3706230150125316e-05;0.014275517487508771;-0.0856531049250535;0.0003568844713645971;0.0525135107576221;1.1521718681373319;4.927986293412617;0.01938591349354266;0.0361986336290404;1.0350546904435358;1.071338212209164;5.088605698456176;2.688014651978978;0.018048332823493385;3.6287168080676364e-05;0.018354236769654197;-0.0856531049250535;0.0003924467047757271;0.0525135107576221;0.0
3.198079912972201;0.0101967982053635;3.438001608088898;1.3986854475817705;4.927986293412617;0.014092255492082057;0.0101967982053635;1.2336497468511258;1.521891697905847;5.088605698456176;2.688014651978978;0.00785153461813004;4.5055700577755745e-06;0.005098399102681839;-0.0856531049250535;0.0005944536494973653;0.0525135107576221;1.2768430908612323;4.927986293412617;0.0211684892214557;0.0361986336290404;1.1394967601751245;1.2984528664496051;5.088605698456176;2.688014651978978;0.009890894259202643;1.3170127861180644e-05;0.010196798205363455;-0.0856531049250535;0.0004907258957538511;0.0525135107576221;1.105005651959189;4.927986293412617;0.01923995590002832;0.0361986336290404;0.9910378726959024;0.9821560651176195;5.088605698456176;2.688014651978978;0.016008973182420783;2.675615449692687e-05;0.016314877128581595;-0.0856531049250535;0.0003660024743597234;0.0525135107576221;0.0
4.927986293412617;-0.003059039461609;5.088605698456176;1.399673545995175;4.927986293412617;0.011744775869732701;0.0101967982053635;1.2682123512392585;1.608362567835808;5.088605698456176;2.688014651978978;0.009890894259202643;1.0050887051957115e-05;0.007137758743754441;-0.0856531049250535;0.0005886700571635877;0.0525135107576221;1.3917792500737556;4.927986293412617;0.011727056811310426;0.0101967982053635;1.248636505025383;1.5590931216820032;5.088605698456176;2.688014651978978;0.012949933720811546;1.3620684866957642e-05;0.010196798205363344;-0.0856531049250535;0.0005801441322850294;0.0525135107576221;1.104243142177003;4.927986293412617;0.019082593398274308;0.0361986336290404;0.9918773196381291;0.9838206172125192;5.088605698456176;2.688014651978978;0.013969613541347958;2.1904002127017948e-05;0.014275517487508771;-0.0856531049250535;0.00036592160515355824;0.0525135107576221;0.0
4.654142745868822;-0.0101967982053635;4.880520932174735;0.7999097969697755;4.927986293412617;0.012104448457308188;0.0101967982053635;0.7756068383328755;0.6015659676687192;5.088605698456176;1.6506040903672776;0.012949933720811546;1.1783798612638414e-05;0.008157438564290742;-0.1080860609768532;0.00018940723358251284;0.03008055470582241;1.1812604178950235;4.927986293412617;0.014630421592538193;0.0101967982053635;1.075277788970835;1.1562223234540074;5.088605698456176;2.688014651978978;0.012949933720811546;1.3170127861180371e-05;0.010196798205363344;-0.0856531049250535;0.0004165919391878863;0.0525135107576221;1.1030555749650328;4.927986293412617;0.019696294649093046;0.0361986336290404;0.9977454753904086;0.9954960336620324;5.088605698456176;2.688014651978978;0.018048332823493385;3.02219776182903e-05;0.018354236769654197;-0.0856531049250535;0.00036592160515355824;0.0525135107576221;0.0
4.763840234617953;-0.0183542367696543;4.970347078540189;0.2617769384145204;4.927986293412617;0.012691498318376722;-0.003059039461609;0.23356352901381675;0.05455192208538801;5.088605698456176;0.5437085510583;0.012949933720811546;7.2782285548656e-06;0.006118078923217918;-0.1274599775670439;1.9841837369802846e-05;0.010706638115631717;0.7600395153094632;4.927986293412617;0.01451268655643255;0.0101967982053635;0.7277131169939478;0.5295663806450472;5.088605698456176;1.6506040903672776;0.012949933720811546;1.5284279965212222e-05;0.011216478025899757;-0.1080860609768532;0.00016871626954796998;0.03008055470582241;1.0844103485289918;4.927986293412617;0.013672415529913254;0.0101967982053635;0.9838171640781213;0.967896212334717;5.088605698456176;2.688014651978978;0.018048332823493385;6.942043712091165e-05;0.03161007443662689;-0.0856531049250535;0.0003561595366950511;0.0525135107576221;0.0
4.309278084893375;-0.0326297542571632;4.544897147397876;0.6689727898662742;4.763840234617953;0.011700427910715428;-0.0061180789232181;0.6363159207004876;0.4048979509369092;4.970347078540189;1.390567191368831;0.012949933720811546;2.2874432601001474e-05;0.011216478025899757;-0.1101254206179259;0.0001258743634890187;0.024472315692872504;0.8012381284025617;4.927986293412617;0.01423174982960566;0.0091771183848271;0.7762264909354762;0.602527565230003;5.088605698456176;1.8241038507746876;0.018048332823493385;3.1053775167415787e-05;0.016314877128581595;-0.1040073416947078;0.00019949277886567772;0.03415927398796781;0.9424330799103632;4.927986293412617;0.014042570379451513;0.0101967982053635;0.8722503882475771;0.7608207397980489;5.088605698456176;2.688014651978978;0.018048332823493385;7.302489316712958e-05;0.03161007443662689;-0.0856531049250535;0.00026809297118120495;0.0525135107576221;0.0
3.295106383237095;-0.0061180789232181;3.579779887171358;0.8165911610821188;4.763840234617953;0.017786033998686758;0.0091771183848271;0.8007733970445581;0.6412380334142814;4.970347078540189;1.7058452308587007;0.018048332823493385;5.060101757190915e-05;0.016314877128581595;-0.1040073416947078;0.00020612983014309423;0.030590394616090616;0.7289901385696247;4.763840234617953;0.014252434639145422;0.0091771183848271;0.7241538453651312;0.5243987917571064;4.970347078540189;1.7058452308587007;0.018048332823493385;0.00012203163210320757;0.03161007443662689;-0.1040073416947078;0.00015863938882260543;0.030590394616090616;0.7740948856310633;5.129474446709224;0.013891617306761785;0.0101967982053635;0.7390132256400903;0.546140547670971;5.162788503259427;1.8982866555779387;0.02212705210563881;0.00010046265954459045;0.035688793718772316;-0.1040073416947078;0.00017196259053831977;0.035688793718772316;0.0
3.045906698446564;0.0091771183848271;3.264501847681488;0.5469045858181903;4.309278084893375;0.01805678017095681;0.0091771183848271;0.5449963941482182;0.29702106963456004;4.544897147397876;1.2803952997163877;0.018048332823493385;0.00017225140913176837;0.03161007443662689;-0.1040073416947078;0.00010154861745595148;0.02345263587233609;0.6423544974612734;4.763840234617953;0.014852597135679137;0.0091771183848271;0.6341728543886669;0.4021752092434692;4.970347078540189;1.7058452308587007;0.018048332823493385;0.00012341796135175267;0.03161007443662689;-0.1040073416947078;0.00012535882229971275;0.030590394616090616;0.7508603197191525;5.129474446709224;0.014470434694543509;0.0091771183848271;0.7065303577908364;0.4991851464800473;5.162788503259427;1.8982866555779387;0.02212705210563881;0.00010933516673528115;0.035688793718772316;-0.1040073416947078;0.00015889643737077936;0.035688793718772316;0.0
3.5981232079752994;-0.020393596410727;3.7603316857160354;0.37602506852447026;3.914410882487208;0.015269684033722428;0.0091771183848271;0.3120785290415157;0.09739300828871615;4.005658023878694;0.7411561761972059;0.018048332823493385;0.00016800577580809774;0.03161007443662689;-0.1040073416947078;5.8918993063181154e-05;0.017334556949118007;0.7568212030203242;5.129474446709224;0.014824568935576403;0.0091771183848271;0.6938524254569272;0.4814311883124606;5.162788503259427;1.8982866555779387;0.02212705210563881;0.00016927080124739185;0.035688793718772316;-0.1040073416947078;0.00016123009160582446;0.035688793718772316;0.7430615499037242;5.129474446709224;0.015648385100964002;0.0091771183848271;0.7135267732622932;0.5091204561620999;5.162788503259427;1.8982866555779387;0.02212705210563881;0.00011239664382581887;0.035688793718772316;-0.1040073416947078;0.00015333090307505633;0.035688793718772316;0.0
3.914410882487208;-0.0244723156928724;4.005658023878694;0.8813791809437355;5.129474446709224;0.014994841612982961;0.0091771183848271;0.8043979641180982;0.6470560846773411;5.162788503259427;1.8982866555779387;0.02212705210563881;0.00027544629257036544;0.035688793718772316;-0.1040073416947078;0.0002172204641314564;0.035688793718772316;0.86988272255355;5.129474446709224;0.01673849279747202;0.0091771183848271;0.7740642913588942;0.599175527156947;5.162788503259427;1.8982866555779387;0.02212705210563881;0.0001907589045998459;0.035688793718772316;-0.1040073416947078;0.00020905845068064046;0.035688793718772316;0.7911889124242991;5.129474446709224;0.015297463095378478;0.0091771183848271;0.7746457767585133;0.6000760794498005;5.162788503259427;2.131400697875011;0.02212705210563881;0.0001132284413749462;0.035688793718772316;-0.1040073416947078;0.00017509338409128428;0.035688793718772316;0.0
5.129474446709224;-0.0122361578464362;5.162788503259427;0.75954446647073;5.129474446709224;0.011547620733053748;-0.0122361578464362;0.6978059980748696;0.48693321094926506;5.162788503259427;1.4024568175433916;0.02212705210563881;0.00026790812728140105;0.035688793718772316;-0.1172631793616804;0.00012858203780258268;0.022432956051799707;0.8372260119531314;5.129474446709224;0.01866877535041627;0.0091771183848271;0.7787812088980639;0.6065001713327298;5.162788503259427;1.8982866555779387;0.02212705210563881;0.00018857543603338674;0.035688793718772316;-0.1040073416947078;0.00019297703139751387;0.035688793718772316;0.8880252440020968;5.129474446709224;0.01528537501518541;0.0091771183848271;0.8848802342595626;0.7830130289832585;5.162788503259427;2.8488792843984485;0.02212705210563881;0.00013457791180254553;0.035688793718772316;-0.0938105434893443;0.0002194559200447365;0.04588559192413581;0.0
4.965509833758756;-0.0397675130009177;4.981696504395246;0.7848151692580522;5.129474446709224;0.013613775795674965;-0.0122361578464362;0.7747832843218321;0.6002891376645249;5.162788503259427;1.615728593694525;0.02212705210563881;0.00011818456843849712;0.022432956051799624;-0.1142041399000713;0.00015483564794691181;0.025491995513408805;0.8440987102212931;5.129474446709224;0.011507784385679886;-0.0122361578464362;0.8338826651022616;0.6953602991580506;5.162788503259427;2.131400697875011;0.02212705210563881;0.000163344243709861;0.035688793718772316;-0.1050270215152442;0.00018566414461143648;0.034669113898235904;0.9827223360064149;5.129474446709224;0.014729972170411462;0.0091771183848271;0.9832947170951946;0.9668685006673188;5.162788503259427;3.0017884658493195;0.02212705210563881;0.0001442822165423637;0.035688793718772316;-0.0907515040277353;0.0002693637729923702;0.04894463138574481;0.0
3.5276093034194096;-0.040787192821454;3.547059909564902;1.0480606466521725;5.129474446709224;0.014236010923770843;-0.0122361578464362;1.0533298800759787;1.1095038362608756;5.162788503259427;2.131400697875011;0.02212705210563881;9.323064196468111e-05;0.01937391659019061;-0.1050270215152442;0.0002962412312985428;0.034669113898235904;1.1001943191069128;5.129474446709224;0.011325639660595846;-0.0122361578464362;1.1089907593739359;1.2298605043767787;5.162788503259427;2.8488792843984485;0.02212705210563881;0.00013534039288924383;0.03161007443662689;-0.0938105434893443;0.0003267578038821441;0.04588559192413581;1.062124735052595;5.129474446709224;0.01700689543160434;0.0091771183848271;1.0725200931134042;1.1502993501319851;5.162788503259427;3.0017884658493195;0.02212705210563881;0.00014630394669649238;0.035688793718772316;-0.0907515040277353;0.0003209467737819964;0.04894463138574481;0.0
3.0169126761695866;-0.020393596410727;3.031387805384416;1.124671509456299;4.965509833758756;0.010930885239037121;-0.020393596410727;1.1284328752985713;1.273360754054601;4.981696504395246;2.6677872855342675;0.017028653002957195;0.00011740475823619212;0.026511675333945273;-0.0938105434893443;0.0003469288944484876;0.0438462322830631;1.2853412397209505;5.129474446709224;0.011709310939638532;-0.0122361578464362;1.2942419269897458;1.6750621655781306;5.162788503259427;3.0017884658493195;0.02212705210563881;0.0001524962173399942;0.03161007443662689;-0.0907515040277353;0.00044944794237841105;0.04894463138574481;1.1714707298749476;5.129474446709224;0.012599454420814803;-0.0122361578464362;1.1902389166254412;1.416668678649704;5.162788503259427;3.3416144626439155;0.02212705210563881;0.00012713794483535247;0.035688793718772316;-0.0846334251045171;0.0003905289493152374;0.05506271030896301;0.0
2.3079051894408913;-0.0224329560517997;2.3139092188609784;0.6385484845964113;3.5276093034194096;0.010107182421534768;-0.0193739165901906;0.6457212969967648;0.41695599339518413;3.547059909564902;1.3860598721547945;0.003772815335984392;4.1156649566194605e-05;0.01325583766697247;-0.0907515040277353;0.00011575849225354684;0.02345263587233601;1.0887313941520116;4.965509833758756;0.01358000177789938;-0.0193739165901906;1.0944246333503063;1.1977652780839523;4.981696504395246;2.8206964669851384;0.017028653002957195;9.167102156006498e-05;0.026511675333945273;-0.0907515040277353;0.0003363234756971068;0.0469052717446721;1.2112868592578308;5.129474446709224;0.014114372568980073;-0.0122361578464362;1.224843530656154;1.5002416745902332;5.162788503259427;3.3416144626439155;0.02212705210563881;9.681199252342194e-05;0.03161007443662689;-0.0846334251045171;0.0004151593989643935;0.05506271030896301;0.0
2.1567990598639586;-0.0193739165901906;2.1610000374101075;0.398413942885447;3.0169126761695866;0.015686728199876515;-0.0193739165901906;0.40367159061050256;0.16295075306601317;3.031387805384416;0.8703877679743086;0.00887121443866623;7.026956378564786e-05;0.01835423676965431;-0.0907515040277353;4.6008801936108926e-05;0.01427551748750891;0.6353114497262118;3.5276093034194096;0.01330542164079162;-0.0193739165901906;0.6422039656782322;0.41242593353284807;3.547059909564902;1.7258858689493906;0.00887121443866623;4.592215635806599e-05;0.01835423676965431;-0.0846334251045171;0.00012005611292402604;0.029570714795554204;1.2368199562045386;5.129474446709224;0.014462448802823477;-0.0122361578464362;1.242239695465729;1.5431594609907873;5.162788503259427;3.3416144626439155;0.02212705210563881;9.922651596463847e-05;0.03161007443662689;-0.084123585194249;0.0004339239429806419;0.055572550219231104;0.0
2.22448376845451;-0.0520036708473539;2.2265590084840734;0.2148189650386233;2.3079051894408913;0.014963026887634581;-0.0193739165901906;0.21562233416032284;0.04649299098874593;2.3139092188609784;0.492735178245467;0.00887121443866623;6.238481618454603e-05;0.01835423676965431;-0.0846334251045171;1.4816393843839413e-05;0.009177118384827196;0.39590118483859377;3.0169126761695866;0.015415949254972704;-0.0193739165901906;0.3995426544269575;0.1596343327065392;3.031387805384416;1.2102137647689046;0.00887121443866623;4.4778434728015946e-05;0.01835423676965431;-0.0846334251045171;4.592215635806132e-05;0.020393596410727105;1.0089630117883932;4.965509833758756;0.012240405774995666;-0.0193739165901906;1.0079457680303465;1.015954671290285;4.981696504395246;3.2230977097118725;0.017028653002957195;6.364406525197315e-05;0.026511675333945273;-0.0825940654634444;0.0002961228156752296;0.055062710308962995;0.0
1.818254337171715;-0.0367084735393086;1.8211740406155115;0.18770997920595464;2.22448376845451;0.01553966621202002;-0.0193739165901906;0.18982569939704563;0.03603379615157753;2.2265590084840734;0.40538496786856193;0.00887121443866623;4.04634849419225e-05;0.014275517487509104;-0.0846334251045171;9.35772242769228e-06;0.006118078923218195;0.20396712895943436;2.3079051894408913;0.014458853712540453;-0.0193739165901906;0.19873654326503595;0.0394962136289355;2.3139092188609784;0.492735178245467;0.010910574079738833;6.588529753711938e-05;0.02039359641072691;-0.084123585194249;1.5015678673302257e-05;0.009686958295095291;0.7348727266132995;3.815416719239394;0.013167958488764266;-0.0193739165901906;0.7336252482345061;0.5382060048471408;3.8326933441014823;2.074094549418109;0.010910574079738833;4.229459482437373e-05;0.02039359641072691;-0.0825940654634444;0.0001712145503812895;0.037728153359845;0.0
2.1874333484689643;-0.0520036708473539;2.2032231741309958;0.21398603425413848;2.22448376845451;0.007228228244497446;-0.0367084735393086;0.20929926583153438;0.0438061826776193;2.2265590084840734;0.40538496786856193;0.010910574079738833;4.3236143439012184e-05;0.014275517487508882;-0.084123585194249;1.3581694356854507e-05;0.00662791883348629;0.22075263231610506;2.22448376845451;0.0123993513404405;-0.0193739165901906;0.2097741965032862;0.04400521351859933;2.2265590084840734;0.4679602138007002;0.010910574079738833;4.3114839629761416e-05;0.016314877128581706;-0.0825940654634444;1.5015678673302411e-05;0.008157438564290895;0.7613323015174808;3.815416719239394;0.013129298888854867;-0.0193739165901906;0.7590663004665941;0.5761816485040416;3.8326933441014823;2.074094549418109;0.01753849291322518;7.186095423553871e-05;0.027021515244213257;-0.0825940654634444;0.0001755121710517804;0.037728153359845;0.0
1.8561971969544917;-0.0458855919241358;1.8911105114052045;0.2038013485251421;2.1874333484689643;0.007493085783980062;-0.0367084735393086;0.19736447245967365;0.03895273498928528;2.2032231741309958;0.44462437944762256;0.010910574079738833;3.777747202286431e-05;0.014275517487508882;-0.0825940654634444;1.2888529732582523e-05;0.008157438564290895;0.7846456262574217;3.815416719239394;0.0074930857839802835;-0.0367084735393086;0.7813767625676047;0.6105496450806309;3.8326933441014823;2.074094549418109;0.010910574079738833;4.311483962976142e-05;0.016314877128581706;-0.0825940654634444;0.00020196217783964842;0.037728153359845;0.8143207041017027;3.815416719239394;0.014116418693658327;-0.0142755174875089;0.8109375016992048;0.6576196316621478;3.8326933441014823;2.074094549418109;0.01753849291322518;7.58899736141238e-05;0.027021515244213257;-0.0825940654634444;0.0001988949243772461;0.037728153359845;0.0
1.7169761934880663;-0.0367084735393086;1.7585987946833732;0.9679339441421924;3.815416719239394;0.007228228244497447;-0.0367084735393086;0.9591423964090692;0.919954136589332;3.8326933441014823;2.074094549418109;0.010910574079738833;4.644202982627369e-05;0.016314877128581706;-0.0825940654634444;0.00031008286238949753;0.037728153359845;0.9718476426686731;3.815416719239394;0.007596443573850926;-0.0367084735393086;0.9666831073072558;0.9344762299532114;3.8326933441014823;2.074094549418109;0.01753849291322518;7.920272288095862e-05;0.022942795962068052;-0.0825940654634444;0.00028763732539975406;0.037728153359845;0.8153356455558024;3.815416719239394;0.01334294867782458;-0.0142755174875089;0.812131086265535;0.6595569012788378;3.8326933441014823;2.074094549418109;0.01753849291322518;5.9210699842562175e-05;0.022942795962068052;-0.0825940654634444;0.0002000819687963132;0.037728153359845;0.0
3.815416719239394;-0.0520036708473539;3.8326933441014823;1.1362381807268704;3.815416719239394;0.007493085783980062;-0.0367084735393086;1.1228570097517692;1.2608078643486846;3.8326933441014823;2.074094549418109;0.01753849291322518;0.00010889183019434205;0.022942795962068052;-0.0825940654634444;0.00039950109892067376;0.037728153359845;0.9754496768363626;3.815416719239394;0.014179294738113551;-0.0142755174875089;0.9643661345320145;0.9300020414322194;3.8326933441014823;2.074094549418109;0.01753849291322518;6.983633589547371e-05;0.022942795962068052;-0.0825940654634444;0.0002905486168216994;0.037728153359845;0.80773572466706;3.815416719239394;0.01304303070450323;-0.0142755174875089;0.8043240688137374;0.6469372076730858;3.8326933441014823;2.074094549418109;0.01753849291322518;5.181694385031963e-05;0.022942795962068052;-0.0825940654634444;0.0001971360191431543;0.037728153359845;0.0
3.6845122675636777;-0.0367084735393086;3.6974812762865956;0.984573640237007;3.815416719239394;0.01553966621201997;-0.0142755174875089;0.9704675887713724;0.9418073408557216;3.8326933441014823;2.074094549418109;0.01753849291322518;0.00010163526303398749;0.022942795962068052;-0.0825940654634444;0.0002920822435529123;0.037728153359845;0.9650122475078758;3.815416719239394;0.012988832554530096;-0.0142755174875089;0.9552684328461453;0.9125377787923303;3.8326933441014823;2.074094549418109;0.01753849291322518;7.064213977119075e-05;0.022942795962068052;-0.0825940654634444;0.00028464805295757856;0.037728153359845;0.8784870622455782;3.815416719239394;0.01389101955683597;-0.0142755174875089;0.8762840851853207;0.7678737979490744;3.8326933441014823;2.397405009955407;0.01753849291322518;4.906739084070457e-05;0.022942795962068052;-0.0774956663607627;0.0002324296512623723;0.0428265524625267;0.0
3.510824732151886;-0.0142755174875089;3.5162315010387077;0.7081348049809624;3.815416719239394;0.01554297647186376;-0.0142755174875089;0.7138247974868341;0.5095458415071198;3.8326933441014823;1.5544621599862931;0.01753849291322518;9.67614492695706e-05;0.022942795962068052;-0.0922810237585397;0.00015256120152352297;0.02804119506474971;0.884367602797804;3.815416719239394;0.013195319442853511;-0.0142755174875089;0.8796905455701162;0.7738554559654486;3.8326933441014823;2.074094549418109;0.01753849291322518;6.682973433769087e-05;0.022942795962068052;-0.0825940654634444;0.00023377843409376646;0.037728153359845;0.897404732021403;3.815416719239394;0.013967943953630964;-0.0142755174875089;0.8927223569246422;0.7969532065530882;3.8326933441014823;2.397405009955407;0.01753849291322518;4.386865615865924e-05;0.022942795962068052;-0.0774956663607627;0.0002438899730503475;0.0428265524625267;0.0
2.27613431418634;-0.0318649943917609;2.278231184115189;0.7439258900876735;3.6845122675636777;0.010125115547992485;-0.0142755174875089;0.7486224982393103;0.5604356448700661;3.6974812762865956;1.4192500921714064;0.01753849291322518;6.643549695763825e-05;0.01784439685938599;-0.0922810237585397;0.00015030841649463935;0.02294279596206801;0.9643748495304505;3.815416719239394;0.01701400534246806;-0.0142755174875089;0.9694129965847702;0.9397615579474637;3.8326933441014823;2.397405009955407;0.01753849291322518;6.44036581527366e-05;0.022942795962068052;-0.0774956663607627;0.00027952729929576385;0.0428265524625267;1.0000889475415242;3.815416719239394;0.013417203558937892;-0.0142755174875089;0.9797767328701925;0.9599624462737886;3.8326933441014823;2.6511905949336603;0.01753849291322518;5.6553568782850306e-05;0.024982155603140876;-0.0713775874375446;0.0002998630164603674;0.0489446313857448;0.0
2.356414304547865;-0.0214132762312633;2.3572998567117764;0.8542042270683077;3.510824732151886;0.019211535224496496;-0.0142755174875089;0.8550341881959239;0.7310834629838626;3.5162315010387077;2.0809431668926326;0.008361374528398025;1.472974826579729e-05;0.008667278474558837;-0.0774956663607627;0.00021442614423986664;0.0356887937187723;0.9402182159108353;3.6845122675636777;0.01573119835113035;-0.0142755174875089;0.9383022034448174;0.8804110249893995;3.6974812762865956;2.26219294214052;0.01753849291322518;4.527231452280935e-05;0.01784439685938599;-0.0774956663607627;0.00025249387894912855;0.037728153359845;1.022709561387089;3.815416719239394;0.013417203558937892;-0.0142755174875089;0.99247639913209;0.9850094028341996;3.8326933441014823;2.6511905949336603;0.01753849291322518;8.337903974220276e-05;0.034159273987967476;-0.0713775874375446;0.00030825319660000166;0.0489446313857448;0.0
1.4315071890238729;-0.058121749770572;1.4352883341460754;0.4653742198794084;2.356414304547865;0.015802809938112793;-0.0214132762312633;0.4584354962561594;0.21016310422763115;2.3572998567117764;0.9220115225657011;0.002753135515448202;1.6246045881419415e-06;0.0030590394616090144;-0.0774956663607627;6.747524389405732e-05;0.016314877128581595;0.8779477166641949;3.510824732151886;0.016315209052230037;-0.0142755174875089;0.8475145434687948;0.7182809013911198;3.5162315010387077;2.3347287518708857;0.008361374528398025;2.6166964566294712e-05;0.015805037218313722;-0.0713775874375446;0.0002256684079897741;0.0418068726419904;1.0021399313341097;3.815416719239394;0.017735643551040604;-0.0020393596410727;0.9721763117271269;0.9451267810833599;3.8326933441014823;2.6511905949336603;0.01753849291322518;8.462673606589359e-05;0.034159273987967476;-0.0713775874375446;0.0002955451784883356;0.0489446313857448;0.0
1.6137216835278636;-0.0438462322830631;1.6438064015666805;0.5489686291641322;2.356414304547865;0.01522422153153255;-0.0214132762312633;0.5052465215938662;0.25527404758270106;2.3572998567117764;1.1757971075439542;0.002753135515448202;2.1141521040321775e-05;0.0101967982053639;-0.0713775874375446;8.967817326529423e-05;0.022432956051799693;0.5092048035029884;2.356414304547865;0.012705571320281427;-0.0214132762312633;0.4655747371343338;0.216759835857704;2.3572998567117764;1.1757971075439542;0.002753135515448202;5.716008782908627e-05;0.0193739165901905;-0.0713775874375446;7.594484914687074e-05;0.022432956051799693;0.864349041878625;3.6845122675636777;0.02009084456921153;0.0020393596410727;0.8352194776201005;0.6975915757959936;3.6974812762865956;2.515978527118773;0.01753849291322518;9.918319317561983e-05;0.034159273987967476;-0.0713775874375446;0.00020939348024904254;0.0438462322830631;0.0
1.0486460245047473;-0.0448659121035994;1.1815027491678223;0.24891769559029966;1.6137216835278636;0.0066800054406827595;-0.0438462322830631;0.2320696564053305;0.053856325424088164;1.6894329338289826;0.5079301846611604;0.002753135515448202;8.214000797631658e-05;0.0193739165901905;-0.0713775874375446;1.871544485537815e-05;0.009177118384827099;0.5333967839857977;2.3794297251007093;0.0204614621437645;-0.0020393596410727;0.5295104406140066;0.28038130671923944;2.534465510729997;1.3529627615621747;0.003772815335984392;6.266208203425057e-05;0.02039359641072669;-0.0713775874375446;8.220932443873555e-05;0.022432956051799693;0.6903910990814057;3.510824732151886;0.020044501584285355;0.0020393596410727;0.671484956844788;0.4508920472688469;3.5162315010387077;2.3347287518708857;0.008361374528398025;6.855398134057038e-05;0.02498215560314032;-0.0713775874375446;0.0001368538023189043;0.0418068726419904;0.0
1.5259319592338576;-0.0458855919241358;1.6894329338289826;0.5508003191299031;2.3794297251007093;0.021429455512930226;-0.0020393596410727;0.5635942289516317;0.3176384549075843;2.534465510729997;1.3529627615621747;0.003772815335984392;9.219089502827016e-05;0.02039359641072669;-0.0713775874375446;8.52592487855555e-05;0.022432956051799693;0.4698672079934131;2.3794297251007093;0.025445047009229727;0.0020393596410727;0.5077278567154471;0.2577875764848615;2.534465510729997;1.3529627615621747;0.003772815335984392;7.597084282028608e-05;0.02039359641072669;-0.0713775874375446;6.575532917006234e-05;0.022432956051799693;0.48772799054143723;2.3954346809124285;0.020126034050753933;0.0020393596410727;0.49852035203043826;0.24852254138855207;2.569691942647165;1.3881891934793427;0.006831854797593628;6.5530050667181e-05;0.023452635872335925;-0.0713775874375446;6.771063104770233e-05;0.022432956051799693;0.0
2.3794297251007093;-0.0020393596410727;2.534465510729997;0.5830627758315451;2.3794297251007093;0.026253867777170564;0.0020393596410727;0.6004458026214069;0.3605351618856656;2.534465510729997;1.3529627615621747;0.003772815335984392;7.789437465264498e-05;0.02039359641072669;-0.0713775874375446;9.814777851812501e-05;0.022432956051799693;0.5085205532604438;2.3794297251007093;0.022102995887150565;0.0020393596410727;0.5261005808746831;0.276781821196679;2.534465510729997;1.3529627615621747;0.006831854797593628;9.347324958317205e-05;0.023452635872335925;-0.0713775874375446;7.303355772492591e-05;0.022432956051799693;0.5018782447030505;2.3954346809124285;0.023734433580826962;0.0122361578464362;0.4933573571595482;0.243401481863454;2.569691942647165;1.3881891934793427;0.006831854797593628;6.474157590707085e-05;0.023452635872335925;-0.0713775874375446;7.227685301009868e-05;0.022432956051799693;0.0
2.0357050816400513;0.0020393596410727;2.2451387910044556;0.3808948172527213;2.3794297251007093;0.021986261161283514;0.0020393596410727;0.3712961076331883;0.13786079954355615;2.534465510729997;0.8450325769010143;0.006831854797593628;0.00013612020309155184;0.023452635872335925;-0.0805547058223717;3.403005077289895e-05;0.013255837666972595;0.545849527617707;2.3954346809124285;0.02069389052052973;0.0020393596410727;0.553692967032968;0.3065759017417714;2.569691942647165;1.3881891934793427;0.006831854797593628;0.00010705927621891709;0.023452635872335925;-0.0713775874375446;8.114358382891665e-05;0.022432956051799693;0.4873479348881666;2.3954346809124285;0.024313419017561014;0.0122361578464362;0.4764739420266419;0.22702741743040772;2.569691942647165;1.3881891934793427;0.006831854797593628;8.618346828457224e-05;0.023452635872335925;-0.0713775874375446;6.65466921161108e-05;0.022432956051799693;0.0
2.2779414702678986;-0.0224329560517997;2.4005207183541613;0.16597970812658636;2.3954346809124285;0.011088285495529055;0.0020393596410727;0.14747577608268472;0.021749104531190167;2.569691942647165;0.32455315164270937;0.006831854797593628;8.629899572195378e-05;0.01937391659019072;-0.0892219842969307;4.743845397376106e-06;0.004588559192413591;0.44936366211206397;2.3954346809124285;0.02069389052052973;0.0122361578464362;0.36566010792573383;0.13370731452825932;2.569691942647165;0.8802590088181823;0.006831854797593628;0.00010272699731721206;0.023452635872335925;-0.0764759865402263;5.4110163482281886e-05;0.017334556949117993;0.47595951511856055;2.3954346809124285;0.020848511467103266;0.0122361578464362;0.4583711009259584;0.21010406616407515;2.569691942647165;1.3881891934793427;0.006831854797593628;8.300646375665573e-05;0.023452635872335925;-0.0713775874375446;6.275739217008687e-05;0.022432956051799693;0.0
2.3954346809124285;-0.0132558376669725;2.569691942647165;0.4617824364210399;2.3954346809124285;0.015472612323333515;0.0122361578464362;0.30503044573618904;0.09304357282601818;2.569691942647165;0.7140371395783756;0.006831854797593628;8.525924878554515e-05;0.01937391659019072;-0.0764759865402263;6.0716888807398136e-05;0.017334556949117993;0.48781341318851434;2.3954346809124285;0.012099436707813773;0.0122361578464362;0.29212368965192864;0.08533625005585632;2.569691942647165;0.7140371395783756;0.006831854797593628;0.00010272699731721206;0.023452635872335925;-0.0764759865402263;6.429968345909031e-05;0.017334556949117993;0.47615207368930945;2.3954346809124285;0.019929748680101236;0.0122361578464362;0.46871973321885163;0.21969818830875146;2.648330701044754;1.4668279518769316;0.006831854797593628;7.866263211121344e-05;0.023452635872335925;-0.0713775874375446;6.227217693309608e-05;0.022432956051799693;0.0
1.3627221282607103;0.0122361578464362;1.8556548030687894;0.565421353445146;2.3954346809124285;0.014670637881041925;0.0122361578464362;0.3361248937768214;0.11297994421647949;2.569691942647165;0.7140371395783756;0.006831854797593628;0.0001226901384962688;0.023452635872335925;-0.0764759865402263;8.413285627111105e-05;0.017334556949117993;0.44432190917869735;2.3954346809124285;0.0138115496813299;0.0122361578464362;0.2739277115629485;0.07503639116211389;2.569691942647165;0.7140371395783756;0.006831854797593628;9.375051543288107e-05;0.023452635872335925;-0.0764759865402263;5.34863153204361e-05;0.017334556949117993;0.3939373484491494;2.3954346809124285;0.018199055201334947;0.0122361578464362;0.3223089793119096;0.10388307814508499;2.648330701044754;0.9588977672157712;0.01498929336188437;0.00011322844137494485;0.03161007443662667;-0.0764759865402263;4.228593026656689e-05;0.017334556949117993;0.0
1.3590446035659518;-0.0071377587437544;1.9912917427436991;0.4952474504079087;2.3954346809124285;0.014670637881041925;0.0122361578464362;0.3394426302534087;0.11522129923335232;2.569691942647165;0.7140371395783756;0.006831854797593628;9.323064196467924e-05;0.023452635872335925;-0.0764759865402263;6.541741141574877e-05;0.017334556949117993;0.44240613224378456;2.3954346809124285;0.014143808205893425;0.0122361578464362;0.31921684602500755;0.10189939478615337;2.648330701044754;0.7926758979759645;0.006831854797593628;7.43072477220318e-05;0.023452635872335925;-0.0764759865402263;5.174473920195095e-05;0.017334556949117993;0.37598240617595485;2.3954346809124285;0.013655505727474806;0.0122361578464362;0.2512237608638733;0.06311337802258862;2.648330701044754;0.7926758979759645;0.01498929336188437;8.784706338282698e-05;0.03161007443662667;-0.0764759865402263;3.965190469433065e-05;0.017334556949117993;0.0
1.8780606270830473;-0.0224329560517997;2.417126776862832;0.3392030890257776;2.004945960715533;0.015017937262577644;0.0122361578464362;0.36838319717813833;0.13570617996318715;2.648330701044754;0.7926758979759645;-0.0013255837666972248;5.1640764508317154e-05;0.015295197308045072;-0.0764759865402263;3.214550945065994e-05;0.011216478025899895;0.3979814575663327;2.3954346809124285;0.01422687844495851;0.0122361578464362;0.3171195185535709;0.10056478904764861;2.648330701044754;0.7926758979759645;0.01498929336188437;0.0001131244666813025;0.03161007443662667;-0.0764759865402263;4.342676371067845e-05;0.017334556949117993;0.4720161072441503;2.3954346809124285;0.014893377043748896;0.0122361578464362;0.286489665286616;0.08207632831603727;2.648330701044754;0.809778955387729;0.01498929336188437;9.88481636072218e-05;0.03161007443662667;-0.0662791883348628;6.834892013921985e-05;0.02753135515448149;0.0
2.004945960715533;0.0040787192821454;2.648330701044754;0.2794990915435498;2.004945960715533;0.015017937262577644;0.0122361578464362;0.27213284670000754;0.07405628625304982;2.648330701044754;0.6570389583010547;0.01498929336188437;0.00016800577580809573;0.03161007443662667;-0.0774956663607627;2.0448356416057615e-05;0.010196798205363497;0.26763204080707553;2.004945960715533;0.015779250078465392;0.0122361578464362;0.2981458376631444;0.08889094051585807;2.648330701044754;0.7926758979759645;0.01498929336188437;0.0001013406680686666;0.03161007443662667;-0.0764759865402263;1.9859166485406642e-05;0.011216478025899895;0.9748349378463204;2.3954346809124285;0.015814719383578396;0.0122361578464362;0.2997495594392038;0.08984979838399675;2.648330701044754;0.809778955387729;0.01498929336188437;9.612171608508295e-05;0.03161007443662667;-0.0356887937187723;0.00028517947916952176;0.058121749770571995;0.0
1.7338251805607117;0.0122361578464362;2.34961217300858;0.1236007684926421;2.004945960715533;0.017688334638429868;0.0122361578464362;0.12981049494779068;0.01685076459859039;2.648330701044754;0.29871852803617394;0.01498929336188437;7.90207671670909e-05;0.01835423676965442;-0.0815743856429081;6.931646242739561e-06;0.006118078923218098;0.43260943701077925;2.004945960715533;0.015656872911729104;0.0122361578464362;0.3030734007733208;0.09185348625630592;2.648330701044754;0.809778955387729;0.01498929336188437;0.00012668449964363724;0.03161007443662667;-0.0662791883348628;6.0062714693222906e-05;0.021413276231263392;1.0110723553718632;2.3954346809124285;0.015405829005638572;0.0122361578464362;0.3269859058714108;0.10691978263854712;2.648330701044754;0.8615319643079411;0.01498929336188437;0.00010640365801179462;0.03161007443662667;-0.0356887937187723;0.0003121089248225154;0.058121749770571995;0.0
1.762562230527867;-0.0214132762312633;2.4274147534011306;0.5161960625570571;2.004945960715533;0.018626027339410666;0.0122361578464362;0.34251206977688425;0.11731451794284524;2.648330701044754;0.809778955387729;0.01498929336188437;7.960562481882096e-05;0.01835423676965442;-0.0662791883348628;8.759867939247633e-05;0.021413276231263392;1.14880324431912;2.004945960715533;0.017409371957748325;0.0122361578464362;0.3020188626643248;0.09121539340505229;2.648330701044754;0.809778955387729;0.01498929336188437;9.68784207999135e-05;0.026511675333945273;-0.0356887937187723;0.00039967872235562973;0.0520036708473539;0.9383372098436826;2.004945960715533;0.016651301742178656;0.0122361578464362;0.30693302840414394;0.09420788392533903;2.648330701044754;0.8615319643079411;0.01498929336188437;0.00013586315454338377;0.03364943407769949;-0.0356887937187723;0.00027384623756266237;0.0520036708473539;0.0
0.8304404247484825;-0.0254919955134087;1.8385517456570248;1.2862259658978503;1.762562230527867;0.019155783016477006;0.0122361578464362;0.2811931037606685;0.07906956160255807;2.4274147534011306;0.5888630077441057;0.01498929336188437;0.0001497885430264329;0.026511675333945273;-0.0356887937187723;0.0004897208070486781;0.0479249515652085;1.1654041271718216;2.004945960715533;0.017119287460127926;0.0122361578464362;0.350389912433779;0.1227730907353513;2.648330701044754;0.8615319643079411;0.01498929336188437;0.00010935538403682213;0.026511675333945273;-0.0356887937187723;0.0004114971791994787;0.0520036708473539;0.9511679585610133;2.004945960715533;0.0160521773080676;0.0122361578464362;0.29419652363464394;0.08655159451870961;2.648330701044754;0.8615319643079411;0.01498929336188437;0.00013604799844318984;0.03364943407769949;-0.0356887937187723;0.00028120533532369077;0.0520036708473539;0.0
-0.9801759092834437;-0.0295707147955541;1.9968871211917065;1.1567389384996405;1.762562230527867;0.010726850778735565;-0.0050983991026817;0.2907444695881311;0.0845323465960837;2.4274147534011306;0.6406160166643178;0.011930253900275356;0.0001269141104254341;0.023452635872336258;-0.0356887937187723;0.0004078407358064677;0.0479249515652085;1.0962502888606658;1.762562230527867;0.016747807773316005;0.0122361578464362;0.28886418651343176;0.0834425182500667;2.4274147534011306;0.6406160166643178;0.01498929336188437;0.00019302035418653583;0.03364943407769949;-0.0356887937187723;0.0003699073017431168;0.0479249515652085;0.9574272057436044;2.004945960715533;0.037696140817101806;0.095849903130417;0.28846148786337766;0.0832100299803536;2.648330701044754;0.8615319643079411;0.01498929336188437;0.00013285944117153597;0.03364943407769949;-0.0356887937187723;0.0002816558923294678;0.0520036708473539;0.0
0.13066383406586413;-0.0050983991026817;1.7867987367368128;1.0872824736337119;1.5765606059761437;0.011715229216963122;-0.0050983991026817;0.26598523561801557;0.07074814556677125;2.375121543934608;0.5883228071977953;0.011930253900275356;0.000238686906089405;0.030590394616090477;-0.0356887937187723;0.0003766483277141965;0.0458855919241358;1.0057783914433984;1.762562230527867;0.015375428290236363;0.0081574385642908;0.2705291830610309;0.07318603888766877;2.4274147534011306;0.6406160166643178;0.011930253900275356;0.0001437363494007471;0.030590394616090477;-0.0356887937187723;0.0003199994487954823;0.0479249515652085;1.1329888100160637;2.004945960715533;0.03696501478886887;0.095849903130417;0.2776926257869316;0.07711319441644082;2.648330701044754;0.8615319643079411;0.01498929336188437;0.0003873894912044716;0.06729886815539932;-0.0326297542571632;0.0003825806616235717;0.055062710308963;0.0
1.5765606059761437;-0.0295707147955541;2.375121543934608;1.062373896627793;1.5765606059761437;0.018753517036554757;0.0081574385642908;0.2452836662030433;0.060164076906005955;2.375121543934608;0.5883228071977953;0.011930253900275356;0.00017259799144390451;0.030590394616090477;-0.0356887937187723;0.0003649511746795948;0.0458855919241358;0.8494857409266209;1.5765606059761437;0.04825862103947233;0.095849903130417;0.20986424048840824;0.04404299943577645;2.375121543934608;0.5883228071977953;0.011930253900275356;0.00017326516239476368;0.030590394616090477;-0.0356887937187723;0.00023110108573250844;0.0458855919241358;1.126029029429227;1.762562230527867;0.0406333843537874;0.095849903130417;0.2429906578481711;0.059044459801486954;2.4274147534011306;0.6406160166643178;0.01498929336188437;0.00040129899466487707;0.06729886815539932;-0.0326297542571632;0.0003808824082941026;0.0509839910268176;0.0
0.6052150483969609;0.0081574385642908;1.9927340699170715;0.6075849661679976;1.5765606059761437;0.05462667578659664;0.095849903130417;0.24474920431138106;0.059902173011054154;2.375121543934608;0.5883228071977953;0.011930253900275356;0.00019339293017208453;0.030590394616090477;-0.0540430304884266;0.00013204786092396714;0.027531355154481504;1.058992699045721;1.5765606059761437;0.046431461471861266;0.095849903130417;0.2012459012689049;0.04049991277753382;2.375121543934608;0.5883228071977953;0.011930253900275356;0.0004556864239968723;0.0642398286937903;-0.0326297542571632;0.000346616970367553;0.048944631385744904;1.0281669521253183;1.762562230527867;0.04244027242406518;0.095849903130417;0.2608170252808234;0.06802552067633769;2.4274147534011306;0.7885976645443313;0.011930253900275356;0.0003464696728849066;0.0642398286937903;-0.0326297542571632;0.00032435483318466363;0.0509839910268176;0.0
0.603339254068628;0.095849903130417;2.0956033886972136;1.1697026306496083;1.5765606059761437;0.05410392045225172;0.095849903130417;0.16328745104399078;0.026662791668443684;2.375121543934608;0.3823874740175366;-0.003364943407770049;0.0004390331438987246;0.0489446313857449;-0.0326297542571632;0.0004140792174249224;0.048944631385744904;1.0291506186743775;1.5765606059761437;0.05084819275813417;0.095849903130417;0.2300898375778742;0.05294133335661253;2.375121543934608;0.5883228071977953;0.011930253900275356;0.0005293351653258466;0.0642398286937903;-0.0326297542571632;0.0003313673486335537;0.048944631385744904;0.8895777786763793;1.5765606059761437;0.04228578324654578;0.095849903130417;0.27665097009007483;0.07653575925177948;2.375121543934608;0.9480701168197347;0.011930253900275356;0.0003507672935553976;0.0642398286937903;-0.0326297542571632;0.00024377444561296194;0.048944631385744904;0.0
-1.2239565799114718;-0.0010196798205363;2.2017795043588038;0.9554017880663541;0.6052150483969609;0.06175800919299832;0.095849903130417;0.17044618521573485;0.029051902054596592;2.2017795043588038;0.40015324465913604;0.005812174977057216;0.0006511415189261703;0.05812174977057216;-0.0326297542571632;0.0002762261027726916;0.031610074436626896;1.035036249887246;1.5765606059761437;0.055301690575626596;0.095849903130417;0.26779385223974134;0.07171354729740043;2.375121543934608;0.7363044550778088;0.005812174977057216;0.0004095563182515239;0.05812174977057216;-0.0326297542571632;0.00033386274128093554;0.048944631385744904;0.868711861359756;1.5765606059761437;0.04302691751974872;0.095849903130417;0.32243928745320155;0.10396709409332833;2.375121543934608;0.9817563400719636;0.011930253900275356;0.00031843982839087955;0.0642398286937903;-0.0326297542571632;0.00023665795547042845;0.048944631385744904;0.0
