acc_X;acc_Z;acc;acc_X_std_ws4;acc_X_max_ws4;acc_Z_std_ws4;acc_Z_max_ws4;acc_std_ws4;acc_var_ws4;acc_max_ws4;acc_range_ws4;fb_tilt_max_ws4;fb_tilt_var_ws4;fb_tilt_range_ws4;tilt_max_ws4;tilt_var_ws4;tilt_range_ws4;acc_X_std_ws6;acc_X_max_ws6;acc_Z_std_ws6;acc_Z_max_ws6;acc_std_ws6;acc_var_ws6;acc_max_ws6;acc_range_ws6;fb_tilt_max_ws6;fb_tilt_var_ws6;fb_tilt_range_ws6;tilt_max_ws6;tilt_var_ws6;tilt_range_ws6;acc_X_std_ws10;acc_X_max_ws10;acc_Z_std_ws10;acc_Z_max_ws10;acc_std_ws10;acc_var_ws10;acc_max_ws10;acc_range_ws10;fb_tilt_max_ws10;fb_tilt_var_ws10;fb_tilt_range_ws10;tilt_max_ws10;tilt_var_ws10;tilt_range_ws10;class
-2.773041152220669;-0.0402773529111858;2.7886598756224372;1.8785813676993597;-0.036030187500020405;0.023145365574780866;-0.0061180789232181;1.3641799355650241;1.8609868965981933;4.08365898428616;2.918820816217131;-0.003874783318037922;0.00013384575666815882;0.024982155603140876;0.0540430304884266;0.001121778637412814;0.07137758743754449;2.0328154562340264;0.9949173226704404;0.050834644112825594;-0.0061180789232181;1.0717932806703674;1.1487408364901488;4.08365898428616;2.918820816217131;0.004792495156520804;0.00019759524070673694;0.0336494340776996;0.0540430304884266;0.0013023610188725567;0.0887121443866625;2.3532529034725087;1.2726553050075058;0.04376567240478508;-0.0061180789232181;1.4777640463864625;2.1837865767924907;5.603508683323828;4.438670515254799;0.004792495156520804;0.0006007686680430803;0.09075150402773513;0.0693382277964719;0.0017633068294560976;0.1101254206179259;0.0
-4.027739289399076;-0.0061180789232181;4.08365898428616;1.8785813676993597;-0.036030187500020405;0.023145365574780866;-0.0061180789232181;1.3641799355650241;1.8609868965981933;4.08365898428616;2.918820816217131;-0.003874783318037922;0.00013384575666815882;0.024982155603140876;0.0540430304884266;0.001121778637412814;0.07137758743754449;2.0328154562340264;0.9949173226704404;0.050834644112825594;-0.0061180789232181;1.0717932806703674;1.1487408364901488;4.08365898428616;2.918820816217131;0.004792495156520804;0.00019759524070673694;0.0336494340776996;0.0540430304884266;0.0013023610188725567;0.0887121443866625;2.3532529034725087;1.2726553050075058;0.04376567240478508;-0.0061180789232181;1.4777640463864625;2.1837865767924907;5.603508683323828;4.438670515254799;0.004792495156520804;0.0006007686680430803;0.09075150402773513;0.0693382277964719;0.0017633068294560976;0.1101254206179259;30.0
-0.545299261416902;-0.0091771183848271;1.164838168069029;1.8785813676993597;-0.036030187500020405;0.023145365574780866;-0.0061180789232181;1.3641799355650241;1.8609868965981933;4.08365898428616;2.918820816217131;-0.003874783318037922;0.00013384575666815882;0.024982155603140876;0.0540430304884266;0.001121778637412814;0.07137758743754449;2.0328154562340264;0.9949173226704404;0.050834644112825594;-0.0061180789232181;1.0717932806703674;1.1487408364901488;4.08365898428616;2.918820816217131;0.004792495156520804;0.00019759524070673694;0.0336494340776996;0.0540430304884266;0.0013023610188725567;0.0887121443866625;2.3532529034725087;1.2726553050075058;0.04376567240478508;-0.0061180789232181;1.4777640463864625;2.1837865767924907;5.603508683323828;4.438670515254799;0.004792495156520804;0.0006007686680430803;0.09075150402773513;0.0693382277964719;0.0017633068294560976;0.1101254206179259;30.0
-0.036030187500020405;-0.0530233506678902;1.359869517685136;2.179118407936919;0.9949173226704404;0.021750513926482636;-0.0061180789232181;1.3390645038201598;1.793093745391131;4.08365898428616;2.918820816217131;0.004792495156520804;0.0002491060368480003;0.0336494340776996;0.0540430304884266;0.001493423182995523;0.0887121443866625;2.0328154562340264;0.9949173226704404;0.050834644112825594;-0.0061180789232181;1.0717932806703674;1.1487408364901488;4.08365898428616;2.918820816217131;0.004792495156520804;0.00019759524070673694;0.0336494340776996;0.0540430304884266;0.0013023610188725567;0.0887121443866625;2.3532529034725087;1.2726553050075058;0.04376567240478508;-0.0061180789232181;1.4777640463864625;2.1837865767924907;5.603508683323828;4.438670515254799;0.004792495156520804;0.0006007686680430803;0.09075150402773513;0.0693382277964719;0.0017633068294560976;0.1101254206179259;0.0
0.9949173226704404;-0.0152951973080452;1.9350722357869854;0.7227457035434949;0.9949173226704404;0.06062594675719284;-0.0091771183848271;0.447778998382556;0.2005060313924851;2.0984750565456496;0.9336368884766206;0.004792495156520804;0.00025820382254157937;0.0336494340776996;-0.0081574385642908;0.0001603809649410949;0.0265116753339451;1.969222689580506;1.2726553050075058;0.05134976368722004;-0.0061180789232181;1.0496161448547094;1.1016940515396623;4.08365898428616;2.918820816217131;0.004792495156520804;0.00016220052207981112;0.0336494340776996;0.0540430304884266;0.0012327239678065626;0.0948302233098806;2.3532529034725087;1.2726553050075058;0.04376567240478508;-0.0061180789232181;1.4777640463864625;2.1837865767924907;5.603508683323828;4.438670515254799;0.004792495156520804;0.0006007686680430803;0.09075150402773513;0.0693382277964719;0.0017633068294560976;0.1101254206179259;0.0
0.8067845710834096;-0.1407158152340165;2.0984750565456496;0.5638716656660235;1.2726553050075058;0.05263875891348577;-0.0152951973080452;0.48050313993392707;0.23088326748636312;2.520409726278009;1.160540208592873;0.004792495156520804;0.00024745977086535305;0.0336494340776996;-0.0173345569491179;9.938247800509794e-05;0.023452635872336102;1.9353541579204137;1.2726553050075058;0.04881924577801332;-0.0091771183848271;1.24164699123217;1.5416872508359005;4.6056160449060455;3.4407778768370165;0.004792495156520804;0.00017249401675026088;0.0336494340776996;0.0520036708473539;0.001178518494188438;0.0927908636688079;2.3532529034725087;1.2726553050075058;0.04376567240478508;-0.0061180789232181;1.4777640463864625;2.1837865767924907;5.603508683323828;4.438670515254799;0.004792495156520804;0.0006007686680430803;0.09075150402773513;0.0693382277964719;0.0017633068294560976;0.1101254206179259;30.0
1.2726553050075058;-0.0632201488732537;2.520409726278009;2.489371483493325;1.2726553050075058;0.05705021837407213;-0.0152951973080452;1.2353472820869555;1.5260829073596283;4.6056160449060455;2.67054380911906;0.004792495156520804;0.00020309723491190057;0.030590394616090588;0.0520036708473539;0.0019494388601889233;0.0927908636688079;2.239114923998098;1.2726553050075058;0.04707999597088399;-0.0152951973080452;1.2556515916640436;1.576660919648446;4.6056160449060455;3.245746527220909;0.004792495156520804;0.0009370199390918293;0.09075150402773513;0.0520036708473539;0.0016203849484888709;0.0927908636688079;2.329001265206879;1.2726553050075058;0.05088425517733001;-0.0061180789232181;1.4862205549752774;2.208851538031021;5.603508683323828;4.438670515254799;0.004792495156520804;0.0006262626852866417;0.09075150402773513;0.0693382277964719;0.001732128862293499;0.1101254206179259;30.0
-3.9392254402108757;-0.0247272356480065;4.6056160449060455;2.630019120127899;1.2726553050075058;0.05573072434712984;-0.020393596410727;1.1745324289998267;1.3795264267722331;4.6056160449060455;2.507140988360396;-0.012542061792597092;0.0010899147260907786;0.07341694707861723;0.0520036708473539;0.0022518102661333783;0.0927908636688079;2.7887962124619614;1.2726553050075058;0.05084881045621865;-0.0152951973080452;1.495248384299599;2.2357677307505615;5.603508683323828;3.668436447536843;0.004792495156520804;0.000987101083195531;0.09075150402773513;0.0693382277964719;0.002480602247211288;0.1101254206179259;2.1760767306660287;1.2726553050075058;0.048293327928005524;-0.0091771183848271;1.456897203693047;2.1225494621286196;5.603508683323828;4.438670515254799;0.004792495156520804;0.000649033143194;0.09075150402773513;0.0693382277964719;0.0015141285879597358;0.1101254206179259;30.0
-2.962544123144059;-0.020393596410727;3.9191262516802627;2.7214837563624528;1.2726553050075058;0.037263900488544686;-0.020393596410727;1.2946748182026795;1.676182884888141;5.603508683323828;3.083098957045819;-0.011522381972060902;0.001244230500569486;0.07443662689915342;0.0693382277964719;0.002364449517577693;0.1101254206179259;2.519659655199285;1.2726553050075058;0.0520101059284659;-0.020393596410727;1.300540815570607;1.6914064129650597;5.603508683323828;3.5050336267781788;-0.011522381972060902;0.0008349861063988873;0.07443662689915342;0.0693382277964719;0.0020400268120235624;0.1101254206179259;2.1824763811644567;1.2726553050075058;0.04687817867479169;-0.0152951973080452;1.3027865568836674;1.6972528127968014;5.603508683323828;4.243639165638692;0.02212705210563881;0.0008986763826258118;0.10808606097685314;0.0693382277964719;0.0015212681835897446;0.1101254206179259;30.0
-4.90246116120436;-0.0999286224125624;5.603508683323828;1.1705641163921932;-2.2107977660369187;0.054965997730564924;-0.020393596410727;0.8899671590275873;0.7920415441476347;5.603508683323828;2.014443175996103;-0.011522381972060902;0.0012840008208871323;0.07443662689915342;0.0693382277964719;0.00040366008666630425;0.046905271744672204;2.122986657383144;1.2726553050075058;0.04322360597386398;-0.020393596410727;1.0464168444213853;1.0949882122888097;5.603508683323828;3.083098957045819;-0.011522381972060902;0.0009131750760168481;0.07443662689915342;0.0693382277964719;0.001439053082779135;0.1101254206179259;2.163351153650223;1.2726553050075058;0.04776529284931397;-0.0152951973080452;1.1395756646886297;1.298632695550532;5.603508683323828;3.668436447536843;0.02212705210563881;0.0009105988141633023;0.10808606097685314;0.0693382277964719;0.0014931025943567976;0.1101254206179259;30.0
-2.2107977660369187;-0.130519017028653;3.5890655073277253;1.298774383631773;-2.092306060223339;0.04642133679560806;-0.020393596410727;0.9670701865965962;0.9352247458039753;5.603508683323828;2.0253943583397875;-0.011522381972060902;0.0012840008208871323;0.07443662689915342;0.0693382277964719;0.000522884402041209;0.04996431120628131;1.5700680435456955;-0.4027114456873353;0.047790364627332216;-0.020393596410727;0.9318050005052037;0.8682605589665027;5.603508683323828;2.6338525615355324;0.02212705210563881;0.001445837431539202;0.10808606097685314;0.0693382277964719;0.0007704958026681201;0.0795350260018354;1.960877028658698;1.2726553050075058;0.04372526662536407;-0.020393596410727;1.0046452545015747;1.0093120873925339;5.603508683323828;3.5050336267781788;0.02212705210563881;0.000822047033412466;0.10808606097685314;0.0693382277964719;0.001233960111386516;0.1101254206179259;30.0
-2.092306060223339;-0.0851432650147853;3.578114324984041;1.860280386895134;-0.4027114456873353;0.04595611279456053;-0.0214132762312633;1.149325607778478;1.3209493526953675;5.603508683323828;2.6338525615355324;0.02212705210563881;0.0009533612951090594;0.07545630671968995;0.0693382277964719;0.0010809035859752375;0.0795350260018354;1.4590582509229528;-0.4027114456873353;0.04522187078525535;-0.020393596410727;0.8903157994951484;0.7926622228306852;5.603508683323828;2.6338525615355324;0.02212705210563881;0.0014122882637244033;0.10808606097685314;0.0693382277964719;0.0006721357424838242;0.0795350260018354;2.1386340825804067;1.843707780693752;0.040569442783687855;-0.0193739165901906;0.8685439876994826;0.754368658568919;5.603508683323828;3.083098957045819;0.03538288977261139;0.0011948887320650115;0.12134189864382572;0.0693382277964719;0.0014230207626568943;0.1172631793616804;0.0
-0.4027114456873353;-0.0214132762312633;2.969656121788296;0.9814211156445746;-0.4027114456873353;0.04584284932050232;-0.0214132762312633;0.4064129208946724;0.16517146227013926;3.9495332643585157;0.9798771425702197;0.02212705210563881;0.0010549965581430438;0.07545630671968995;0.0295707147955541;0.00030707192855280356;0.039767513000917604;1.4656113805496278;-0.4027114456873353;0.03629317762103505;-0.0214132762312633;0.91279384207942;0.8331925981381092;5.603508683323828;2.6338525615355324;0.02212705210563881;0.0006439845941805484;0.07545630671968995;0.0693382277964719;0.0006728982235705244;0.0795350260018354;1.8680800156238346;1.843707780693752;0.04118225541417361;-0.0193739165901906;0.8493254988804251;0.721353803048483;5.603508683323828;2.9552028912726334;0.03538288977261139;0.0011909145882191814;0.12134189864382572;0.0693382277964719;0.0010689869308096152;0.1172631793616804;30.0
-2.629158461603639;-0.0989089425920261;3.9495332643585157;0.9506673094371855;-0.4027114456873353;0.03405734416756273;-0.0214132762312633;0.40483815321386;0.1638939302976088;3.9495332643585157;0.9798771425702197;0.02212705210563881;0.0005683949919036102;0.05710206995003564;0.0295707147955541;0.00028530222707173904;0.039767513000917604;1.682598692898555;1.843707780693752;0.0439998045668414;-0.0193739165901906;0.33772004998786787;0.11405483216380796;3.9495332643585157;0.9798771425702197;0.03538288977261139;0.0011286452994720177;0.08871214438666253;0.0295707147955541;0.0008482688735115141;0.0774956663607626;1.7541627366979649;1.843707780693752;0.041751050044513134;-0.0193739165901906;0.8817414770693717;0.7774680323844774;5.603508683323828;3.1542164109953275;0.03538288977261139;0.0012368367445772478;0.12134189864382572;0.0693382277964719;0.000947847748160158;0.1172631793616804;30.0
-1.8308198912566112;-0.0774956663607627;3.4444803432608353;1.961907870202707;1.843707780693752;0.04012216587243651;-0.0193739165901906;0.41744997933766764;0.17426448524901914;3.9495332643585157;0.9798771425702197;0.03538288977261139;0.0010774377628538702;0.07035790761700822;0.0295707147955541;0.0011488120577594493;0.0774956663607626;1.61470256713946;1.843707780693752;0.03429483548280272;-0.0193739165901906;0.46063883933701794;0.212188140305755;3.9495332643585157;1.3012274723073207;0.03538288977261139;0.0007472314649659667;0.07035790761700822;0.0295707147955541;0.0007752093221131717;0.0774956663607626;1.798958642012013;1.843707780693752;0.04008349139735319;-0.0193739165901906;1.0375220721899334;1.0764520502812935;5.603508683323828;3.8898032510999103;0.03538288977261139;0.000723305732684821;0.08871214438666253;0.0693382277964719;0.00098799064446335;0.1172631793616804;0.0
1.843707780693752;-0.0193739165901906;3.2163366423249586;1.9587660806830887;1.843707780693752;0.03559033162644488;-0.0193739165901906;0.5396334547242317;0.2912042654576095;3.9495332643585157;1.3012274723073207;0.03538288977261139;0.0009544876876235032;0.07035790761700822;0.0295707147955541;0.0011384145883953593;0.0774956663607626;1.5432338862430208;1.843707780693752;0.0341478577539316;-0.0193739165901906;0.5472370013089335;0.29946833560159364;3.9495332643585157;1.5002409920300148;0.03538288977261139;0.0007383936160064898;0.07035790761700822;0.0295707147955541;0.0007076171066887805;0.0774956663607626;1.4621207421395706;1.843707780693752;0.03826615627460299;-0.0193739165901906;0.7563095090235908;0.5720040734395051;3.9495332643585157;2.2358278321345972;0.03538288977261139;0.0007771559594330053;0.08871214438666253;0.0295707147955541;0.0006460178770784133;0.0774956663607626;0.0
-1.2856656698980218;-0.0418068726419904;2.648305792051195;1.6725680750084155;1.843707780693752;0.027441514511671067;-0.0193739165901906;0.46788221935253055;0.21891377118624952;3.4444803432608353;0.9951880709323344;0.03538288977261139;0.0006691637991572538;0.05710206995003575;0.014785357397777;0.0008083165974799964;0.0627103089629855;1.6008405404952804;1.843707780693752;0.03226189712547099;-0.0193739165901906;0.7964611569494315;0.6343503745292269;3.9495332643585157;2.2358278321345972;0.03538288977261139;0.0006774991037641336;0.07035790761700822;0.0295707147955541;0.0007637634412548687;0.0774956663607626;1.385985017119934;1.843707780693752;0.029896313686217126;-0.0193739165901906;0.8048737728931464;0.6478217902912483;3.9495332643585157;2.2358278321345972;0.03538288977261139;0.0006516007404897468;0.07545630671969028;0.0295707147955541;0.0005757309841771617;0.0774956663607626;0.0
-1.2635792917065327;-0.0193739165901906;2.449292272328501;1.484969073617326;1.843707780693752;0.012260033299083407;-0.0193739165901906;0.6206910717721831;0.3852574065777013;3.2163366423249586;1.5026312101010404;0.03538288977261139;0.0005697813211521585;0.05710206995003575;0.0050983991026817;0.0006334441596127005;0.0530233506678902;1.4387856141063253;1.843707780693752;0.025606790913516704;-0.0193739165901906;0.6959401911946765;0.484332749720083;3.4444803432608353;1.730774911036917;0.03538288977261139;0.00046834534294764956;0.05710206995003575;0.014785357397777;0.0006057219069206933;0.0627103089629855;1.3047838648891341;1.843707780693752;0.028006102299998285;-0.0193739165901906;0.8580335298253765;0.7362215383045954;3.9495332643585157;2.5910301347972466;0.03538288977261139;0.0006414112205129381;0.07545630671969028;0.0295707147955541;0.000510368448294181;0.0774956663607626;0.0
0.18513796011620265;-0.0392576730906495;1.7137054322239182;1.0642906285292362;0.8356635490828972;0.022802158941382045;-0.0193739165901906;0.44846222796835106;0.20111836991433726;2.648305792051195;0.9346003598272767;0.016518813092688767;0.0003125089385744441;0.038237993270113124;0.0050983991026817;0.00033815602967253097;0.0367084735393085;1.2607924030487063;1.843707780693752;0.023921762479510753;-0.0193739165901906;0.6026278459509715;0.3631603207155078;3.2163366423249586;1.5026312101010404;0.03538288977261139;0.0007648811692115159;0.07545630671969028;0.0050983991026817;0.00045857172174540423;0.0530233506678902;1.4781424858970345;1.843707780693752;0.0258654649686888;-0.0193739165901906;0.8563735958690483;0.7333757357016839;3.9495332643585157;2.5910301347972466;0.03538288977261139;0.0005705004794498412;0.07545630671969028;0.0316100744366268;0.0006572038212026136;0.07953502600183529;0.0
0.8356635490828972;-0.0744366268991536;1.8727226454573185;0.9437086244802376;0.8356635490828972;0.02621712625651228;-0.0193739165901906;0.3434418835696947;0.1179523273898997;2.449292272328501;0.7355868401045826;0.016518813092688767;0.0007008544193232285;0.056592230039767655;0.0045885591924135;0.00026329425025108035;0.0361986336290403;0.8409622676748932;0.8356635490828972;0.02095787271476277;-0.0193739165901906;0.4879042104042027;0.23805051853014847;2.648305792051195;1.289802662489926;0.016518813092688767;0.0004869914713405904;0.056592230039767655;0.0050983991026817;0.0002106527293164709;0.0367084735393085;1.4231947924824226;1.843707780693752;0.02195201437181369;-0.0193739165901906;0.7771677628588484;0.6039897316270272;3.4444803432608353;2.1553621031483265;0.03538288977261139;0.0004687670180940856;0.07545630671969028;0.0316100744366268;0.0006048005756075977;0.07953502600183529;0.0
-0.7758241579507811;-0.0703579076170082;1.7429466967155416;0.6934348230555566;0.8356635490828972;0.01579338335397544;-0.0392576730906495;0.2201080350640131;0.04844754709974083;1.8727226454573185;0.5142195158960494;0.016518813092688767;0.0006930563173001602;0.056592230039767655;-0.0040787192821454;0.00013991094713054165;0.0275313551544814;1.2615625983918486;0.8356635490828972;0.02051664891368468;-0.0193739165901906;0.575950925758009;0.3317194688815076;2.939119306910233;1.580616177348964;0.016518813092688767;0.00043673703608082006;0.056592230039767655;0.0316100744366268;0.00048459138882903964;0.0632201488732536;1.774829254838363;3.403025747062502;0.020640297145727706;-0.0193739165901906;0.7933245134517376;0.6293637836434361;3.538136672324496;2.2490184322119875;0.03538288977261139;0.00045143790248726917;0.07545630671969028;0.0316100744366268;0.0009465278471881027;0.10808606097685311;30.0
-0.33153565552793707;-0.058121749770572;1.358503129561269;1.5100186448928405;0.8356635490828972;0.010072833358986767;-0.0530233506678902;0.6767224084242133;0.4579532180634677;2.939119306910233;1.580616177348964;0.016518813092688767;0.0005511308604803233;0.056592230039767655;0.0316100744366268;0.0006966954315775824;0.0632201488732536;1.3850679735924405;0.9858539510173641;0.013727544123634628;-0.0392576730906495;0.5945175752795666;0.3534511473162952;2.939119306910233;1.6500010667977245;0.016518813092688767;0.00043673703608082006;0.056592230039767655;0.0316100744366268;0.0005866685443109978;0.0662791883348627;1.9910124558872258;3.403025747062502;0.03738706271585539;0.0499643112062812;0.8317308645669373;0.691776231073265;3.538136672324496;2.2490184322119875;0.016518813092688767;0.00031474295039475835;0.056592230039767655;0.0316100744366268;0.0012019936694638053;0.10808606097685311;0.0
-2.7874581095430075;-0.0530233506678902;2.939119306910233;1.5639833644186856;0.9858539510173641;0.009396373982379342;-0.0530233506678902;0.7643216666399708;0.5841876100953026;2.939119306910233;1.6500010667977245;0.002753135515448202;0.00035871269306112587;0.04282655246252709;0.0316100744366268;0.0007554411334846943;0.0662791883348627;2.0706459203011573;3.403025747062502;0.008517022832547615;-0.0530233506678902;0.9116528906824161;0.8311109930896052;3.538136672324496;2.2490184322119875;0.016518813092688767;0.0003978505006591213;0.056592230039767655;0.0316100744366268;0.0013034007658089659;0.10808606097685311;2.0855038393281164;3.403025747062502;0.04133251046293248;0.0499643112062812;0.8630666217285973;0.7448839935420136;3.538136672324496;2.2490184322119875;0.016518813092688767;0.00027675752898461445;0.056592230039767655;0.0316100744366268;0.0013285193188810483;0.10808606097685311;0.0
0.9858539510173641;-0.0723972672580809;1.2891182401125085;2.5838716609342143;3.403025747062502;0.008341246858915788;-0.0530233506678902;1.1325992736713466;1.2827811147208619;3.538136672324496;2.2490184322119875;0.00887121443866623;7.590152635786167e-05;0.020393596410727133;0.0316100744366268;0.0020350230298920914;0.10808606097685311;2.440153843210353;3.403025747062502;0.04694257128443344;0.0499643112062812;1.0493692042253921;1.1011757267766327;3.538136672324496;2.2490184322119875;0.00887121443866623;0.00034045646976934245;0.04894463138574512;0.0316100744366268;0.0018071234982679353;0.10808606097685311;2.1181254010428727;3.403025747062502;0.04163189666835828;0.0499643112062812;0.9294414899301974;0.8638614832036652;3.538136672324496;2.2490184322119875;0.016518813092688767;0.00027993453351253034;0.056592230039767655;0.0316100744366268;0.0013787159904221297;0.10808606097685311;0.0
3.403025747062502;-0.0642398286937901;3.538136672324496;2.9096668132094363;3.403025747062502;0.05714681514907698;0.0499643112062812;1.0505451345854067;1.1036450798010704;3.538136672324496;2.2490184322119875;0.00887121443866623;9.034967649504551e-05;0.020393596410727133;0.0316100744366268;0.0025792655669187015;0.10808606097685311;2.4865491899024494;3.403025747062502;0.049752643462523775;0.0499643112062812;1.0265529004181275;1.0538108573568699;3.538136672324496;2.2490184322119875;0.00887121443866623;7.740049485785059e-05;0.020393596410727133;0.0316100744366268;0.0018927293293656128;0.10808606097685311;2.151104728477002;3.403025747062502;0.04164490232825966;0.0499643112062812;1.0030261488203658;1.0060614552174147;3.538136672324496;2.454542359398733;0.016518813092688767;0.0002515147839173496;0.056592230039767655;0.0316100744366268;0.0014208257413466964;0.10808606097685311;0.0
3.3459044679414163;0.0499643112062812;3.4815764335235775;1.144604631107617;3.403025747062502;0.05934910309551193;0.0499643112062812;1.059184073427051;1.1218709014015205;3.538136672324496;2.2490184322119875;0.00887121443866623;7.28472697321588e-05;0.01835423676965431;-0.0346691138982359;0.00039579700045971157;0.04180687264199041;2.462322995258442;3.403025747062502;0.048185311304004476;0.0499643112062812;0.8530475144661046;0.727690061936799;3.538136672324496;2.2490184322119875;0.00887121443866623;8.710479959766745e-05;0.020393596410727133;0.0316100744366268;0.0018665277065681037;0.10808606097685311;2.174470948925304;3.403025747062502;0.039731909947325436;0.0499643112062812;1.0790738161051856;1.164400300603808;3.538136672324496;2.478811831761511;0.00887121443866623;0.00020624246939453958;0.04894463138574512;0.0316100744366268;0.0014513134320709572;0.10808606097685311;0.0
2.986649591473723;0.0112164780258998;3.0884153097038136;0.1869092554237938;3.403025747062502;0.04788063647450716;0.0499643112062812;0.20249415962839756;0.04100388468361096;3.538136672324496;0.4497213626206822;0.00887121443866623;0.00010334651320015576;0.01835423676965431;-0.0703579076170082;8.036377362662993e-06;0.006118078923218098;1.5855316049326567;3.403025747062502;0.04702813741193326;0.0499643112062812;1.148099861185573;1.3181332912543322;3.538136672324496;2.454542359398733;0.00887121443866623;6.65871267191948e-05;0.01835423676965431;-0.0112164780258998;0.0007704264862056931;0.0652595085143265;2.0995372252927864;3.403025747062502;0.037815475305994925;0.0499643112062812;1.112277207259668;1.2371605857893664;3.538136672324496;2.478811831761511;0.00887121443866623;5.5017053865710746e-05;0.020393596410727133;0.0316100744366268;0.0013542703846727798;0.10808606097685311;0.0
3.307445865845901;-0.0142755174875089;3.432660078058582;1.7913438524198564;3.3459044679414163;0.039018578288258284;0.0499643112062812;1.1388301156743685;1.2969340323668954;3.4815764335235775;2.3979821205978142;0.008361374528398025;8.289815678411132e-05;0.017844396859386102;-0.0112164780258998;0.0009895574853328029;0.0647496686040583;1.7730300114698774;3.403025747062502;0.04148480600345443;0.0499643112062812;1.205084899148883;1.4522296141566735;3.538136672324496;2.478811831761511;0.00887121443866623;6.617122794463112e-05;0.01835423676965431;-0.0112164780258998;0.0009628489859037935;0.0652595085143265;2.1212473399393317;3.403025747062502;0.0372154420942678;0.0499643112062812;1.0980227875798083;1.205654042044533;3.538136672324496;2.478811831761511;0.00887121443866623;7.255411885981017e-05;0.023452635872336147;0.0316100744366268;0.00138184967216103;0.10808606097685311;0.0
-0.3548446765791904;-0.0418068726419904;1.083594312925763;1.916487191956366;3.307445865845901;0.0247048872021733;0.0112164780258998;1.2716930626585294;1.6172032456138303;3.432660078058582;2.3733352374955974;0.004792495156520804;4.644202982627001e-05;0.014275517487508882;-0.0112164780258998;0.0011496785135397944;0.0647496686040583;1.764213210491306;3.3459044679414163;0.03646787145049178;0.0499643112062812;1.2068536362165172;1.4564956992490299;3.4815764335235775;2.422251592960593;0.008361374528398025;5.3070416545877765e-05;0.017844396859386102;-0.0112164780258998;0.0009593138463200028;0.0647496686040583;1.6962364422368175;3.403025747062502;0.03861941502094622;0.0499643112062812;1.0870710230938514;1.1817234092503126;3.538136672324496;2.478811831761511;0.00887121443866623;0.00010339994463994522;0.030590394616090588;-0.0071377587437544;0.0008780345177521601;0.0693382277964719;0.0
0.05039317652093378;-0.0387478331803813;1.0593248405629847;1.6671904114975256;3.307445865845901;0.012694911387772694;-0.0142755174875089;1.1465811370350922;1.3146483038046848;3.432660078058582;2.3733352374955974;0.004792495156520804;3.396506658936163e-05;0.013255837666972248;-0.0112164780258998;0.0008689468407093514;0.0647496686040583;1.7274509975654422;3.307445865845901;0.022648984087437717;0.0112164780258998;1.0600677033830603;1.1237435357558359;3.432660078058582;2.3733352374955974;0.004792495156520804;4.800165023088436e-05;0.01937391659019072;-0.0071377587437544;0.00093144862842424;0.0688283878862037;1.6922191432512912;3.403025747062502;0.036222003721040875;0.0499643112062812;1.0497708933142609;1.1020189284498212;3.538136672324496;2.478811831761511;0.00887121443866623;0.00010035002029314522;0.030590394616090588;-0.0071377587437544;0.0008738495363331138;0.0693382277964719;0.0
0.3933678037831869;-0.037728153359845;1.3086110196515284;0.4379611482489311;0.3933678037831869;0.005064295715900556;-0.037728153359845;0.22089747037869722;0.048795692419707416;1.5310337361113513;0.4717088955483666;0.004792495156520804;6.827671549086174e-05;0.01937391659019072;-0.0071377587437544;5.891899306318031e-05;0.017334556949118;1.431723141100869;3.307445865845901;0.017848766380781932;-0.0142755174875089;0.8914915027215315;0.7947570994246944;3.432660078058582;2.3733352374955974;0.004792495156520804;9.208692033462829e-05;0.02651167533394516;-0.0071377587437544;0.0006380320429696072;0.0688283878862037;1.5594435912159297;3.3459044679414163;0.03435176060061318;0.0499643112062812;0.9971939488836361;0.9943957716901399;3.4815764335235775;2.422251592960593;0.008361374528398025;7.893123340311894e-05;0.030080554705822382;-0.0071377587437544;0.000747970840565192;0.0688283878862037;0.0
-0.5973889571844454;-0.0489446313857448;1.5310337361113513;0.4126529690721475;0.3933678037831869;0.014667684556828943;-0.037728153359845;0.2601239770298282;0.0676644834258146;1.6491676858400162;0.5898428452770315;-0.0003059039461608126;9.080456577972429e-05;0.021413276231263545;-0.0071377587437544;5.224728355455555e-05;0.017334556949118;0.7641862463183292;1.574181035971133;0.01199009353900783;-0.037728153359845;0.5605699953992294;0.31423871974189205;2.5727200083368524;1.5133951677738677;0.004792495156520804;9.208692033462837e-05;0.02651167533394516;-0.0071377587437544;0.00018158313788603706;0.0382379932701132;1.413100139334855;3.307445865845901;0.02362686135343159;0.0112164780258998;0.9849497303706891;0.9701259713572933;3.432660078058582;2.3733352374955974;0.019068012644029797;0.0001256938518681161;0.040787192821454155;-0.0071377587437544;0.0006175057055333321;0.0688283878862037;0.0
0.02679354856476701;-0.0693382277964719;1.6491676858400162;0.9133283274714302;1.574181035971133;0.014236010923771088;-0.037728153359845;0.5564348610550802;0.30961975459738644;2.5727200083368524;1.264108988685324;-0.005404303048842873;5.198734682045225e-05;0.016314877128581484;-0.0071377587437544;0.0002577489332569018;0.0382379932701132;0.9862031650652214;1.9468277349397107;0.012277159587954292;-0.037728153359845;0.7866774570465854;0.6188614214252822;3.080179651753886;2.0208548111909015;-0.0003059039461608126;5.5210562323320884e-05;0.021413276231263545;-0.0071377587437544;0.0003021937825094862;0.0448659121035995;1.2613388226449158;3.307445865845901;0.017683925475997366;-0.0142755174875089;1.0018929137729302;1.003789410668412;3.432660078058582;2.3733352374955974;0.04252064851636583;0.0003489968355775652;0.06423982869379019;-0.0071377587437544;0.00048730917179337814;0.0688283878862037;0.0
1.574181035971133;-0.040787192821454;2.5727200083368524;1.2178588960214436;1.9468277349397107;0.013968745173878881;-0.0387478331803813;0.7448253943290103;0.5547648680373657;3.080179651753886;1.549145915642535;-0.008463342510451666;3.6737725086453814e-05;0.013255837666972692;-0.0071377587437544;0.00045893996545205246;0.0448659121035995;1.102949299662472;2.027349520012479;0.014630421592538233;-0.037728153359845;0.8786676774009694;0.772056887309214;3.3914887313479407;2.0828777116964123;0.019068012644029797;0.00019283839847266526;0.040787192821454155;-0.0071377587437544;0.00036624219379228346;0.0448659121035995;1.041921197533125;2.027349520012479;0.013495089932412992;-0.037728153359845;1.0631528633131189;1.130294010770883;3.8445235702942777;2.785198729731293;0.04252064851636583;0.00034722926578567017;0.06423982869379019;-0.0071377587437544;0.00032809792215574316;0.0458855919241358;0.0
1.9468277349397107;-0.0387478331803813;3.080179651753886;0.9324642309036718;2.027349520012479;0.01680410482034346;-0.0387478331803813;0.7616450189728377;0.5801031349261343;3.3914887313479407;1.7423210455079245;0.019068012644029797;0.0002969343959228181;0.040787192821454155;-0.0183542367696543;0.0002568824774765607;0.033649434077699596;1.084451266339397;2.027349520012479;0.014740164567543936;-0.0387478331803813;0.8153017784635722;0.6647169899658638;3.3914887313479407;1.8604549952365894;0.04252064851636583;0.000601701552099916;0.06423982869379019;-0.0071377587437544;0.0003509145910380534;0.0448659121035995;1.1239906634259402;2.85759385509203;0.016457293951036404;-0.037728153359845;1.1748232412467916;1.380209648173617;4.4729630563027;3.4136382157397156;0.04252064851636583;0.0003627561533693783;0.06423982869379019;-0.0071377587437544;0.00037878269711974987;0.0596512695013766;0.0
2.027349520012479;-0.0683185479759355;3.3914887313479407;0.3215728142848387;2.027349520012479;0.01680410482034346;-0.0387478331803813;0.3572462735993134;0.12762490000059548;3.3914887313479407;0.8187687230110883;0.04252064851636583;0.000618996009475518;0.05200367084735391;-0.0392576730906495;3.7517535288760644e-05;0.012745997756704396;0.7664075071207495;2.027349520012479;0.014649360657545015;-0.0387478331803813;0.7661446443552502;0.5869776160742328;3.8445235702942777;2.1953558844542616;0.04252064851636583;0.0005650678017071028;0.06423982869379019;-0.0183542367696543;0.00017779672612594656;0.0346691138982359;1.093605616870719;2.85759385509203;0.019444227414627195;-0.037728153359845;1.0978660247424545;1.2053098082837999;4.4729630563027;3.164352036651172;0.04252064851636583;0.0003833315899665396;0.06423982869379019;-0.0071377587437544;0.00036253953942429304;0.0596512695013766;0.0
1.3417473902286536;-0.0693382277964719;3.2493768396320064;0.3281540275988105;2.027349520012479;0.014858429689265762;-0.0387478331803813;0.3277954956113896;0.10744988694311652;3.8445235702942777;0.7643439185403915;0.04252064851636583;0.0006060858183484383;0.05200367084735391;-0.0392576730906495;4.304119088843356e-05;0.013765677577240697;0.5184371614312469;2.85759385509203;0.017725035005652322;-0.0387478331803813;0.6558734712429436;0.4301700102802684;4.4729630563027;1.9002430479658479;0.04252064851636583;0.0004307324975230528;0.05200367084735391;-0.0392576730906495;8.47826981063541e-05;0.027531355154481497;1.6932888745779062;5.720834347202639;0.01966577070839453;-0.0387478331803813;1.4318110202428365;2.050082797688832;6.479530413032413;4.948496676921062;0.04252064851636583;0.0003885072191611088;0.06423982869379019;-0.0071377587437544;0.0008713685846154051;0.110125420617926;0.0
2.009095882880098;-0.0499643112062812;3.8445235702942777;0.6206705014266974;2.85759385509203;0.013408563473419908;-0.0499643112062812;0.550857068486731;0.303443509901795;4.4729630563027;1.223586216670694;0.04252064851636583;0.0004230903575404459;0.04996431120628109;-0.0392576730906495;0.00012658918950780228;0.027531355154481497;0.48808064765640824;2.85759385509203;0.020151902135728112;-0.0387478331803813;0.5159679194517953;0.26622289390341436;4.4729630563027;1.392783404548814;0.04252064851636583;0.0004690298430141199;0.05608239012949934;-0.0392576730906495;7.940200771043717e-05;0.027531355154481497;1.5015615850941726;5.720834347202639;0.023487153971258903;-0.0387478331803813;1.297523352593972;1.6835668505267007;6.479530413032413;4.830362727192397;0.04252064851636583;0.0003592441192730628;0.06423982869379019;-0.0183542367696543;0.0006877954866205192;0.0989089425920261;0.0
2.85759385509203;-0.0825940654634444;4.4729630563027;0.6243344175902033;2.85759385509203;0.01866958754329146;-0.0499643112062812;0.5001626702256043;0.25016269668720664;4.4729630563027;1.223586216670694;0.04252064851636583;0.0006393577203135277;0.05608239012949934;-0.0392576730906495;0.0001304882405193361;0.027531355154481497;1.5597373610874052;5.720834347202639;0.01602038909311412;-0.0499643112062812;1.1865129565109227;1.4078129959682908;6.479530413032413;3.2301535734004068;0.04252064851636583;0.00040165424153481384;0.05608239012949934;-0.0392576730906495;0.0007537125542029176;0.0780055062710309;1.8066015831500075;6.645203554685122;0.02461593583916019;-0.0387478331803813;1.4813511785730613;2.194401314259798;7.160906701791551;4.588186693454698;0.04252064851636583;0.0003004175481597864;0.05608239012949934;-0.0392576730906495;0.0009866880726069076;0.09330070357907619;0.0
2.210975584282955;-0.0933007035790761;3.9035341411969746;1.719328272166873;5.720834347202639;0.019615589480178063;-0.0499643112062812;1.2358532186068647;1.5273331779409471;6.479530413032413;2.6350068427381355;0.012949933720811546;0.00016185393976767345;0.02651167533394505;-0.0530233506678902;0.000882810133194808;0.0642398286937902;1.5477402732110461;5.720834347202639;0.02101237425871477;-0.0499643112062812;1.11490287065994;1.243008411005775;6.479530413032413;3.2301535734004068;0.04252064851636583;0.0003894545441476141;0.05608239012949934;-0.0392576730906495;0.0007410969580411546;0.0780055062710309;2.344261240120183;8.11304635011683;0.02180098083945416;-0.0387478331803813;1.8499913735648292;3.4224680822642837;8.427636342590572;5.347456690836687;0.04252064851636583;0.00027385779030640427;0.05608239012949934;-0.0392576730906495;0.0016726177911137595;0.1198123789130213;0.0
5.720834347202639;-0.0887121443866625;6.479530413032413;1.5263987305499251;5.720834347202639;0.01228121695773016;-0.0825940654634444;1.1297407032263616;1.276314056526394;6.479530413032413;2.5759962718354386;0.012949933720811546;0.00013586026635744819;0.02651167533394505;-0.0571020699500356;0.0006965221404215201;0.060161109411644806;1.9240125720322996;6.645203554685122;0.020384459732307684;-0.0499643112062812;1.4088438844184;1.9848410906631258;7.160906701791551;3.316383131497273;0.017028653002957195;0.00014251464675046666;0.0305903946160907;-0.0530233506678902;0.0010946888974404626;0.0795350260018355;2.576675791292032;8.11304635011683;0.019360868046271417;-0.0499643112062812;1.9651128137308405;3.861668370689141;8.427636342590572;5.178259502958566;0.04252064851636583;0.00023586081615252247;0.05608239012949934;-0.0392576730906495;0.0020188881791691864;0.1198123789130213;0.0
3.474142457413997;-0.1111451004384623;4.480365331375631;2.031723163157469;6.645203554685122;0.009783746845312344;-0.0887121443866625;1.5605875955896016;2.435433643508134;7.160906701791551;3.2573725605945762;0.017028653002957195;0.00016774583907399416;0.0305903946160907;-0.0571020699500356;0.001202294040800997;0.0754563067196901;2.343274483686621;8.11304635011683;0.01329662746633734;-0.0713775874375446;1.8063634929983783;3.2629490688373024;8.427636342590572;4.524102201393598;0.017028653002957195;0.00011880841660034066;0.0305903946160907;-0.0571020699500356;0.0016461706725118205;0.1019679820536352;2.607202579472568;8.11304635011683;0.023336649887880593;-0.0367084735393086;1.9288111118139097;3.7203123050568103;8.427636342590572;5.178259502958566;0.04252064851636583;0.00022760060437993938;0.05608239012949934;-0.0392576730906495;0.0020631005294540474;0.1198123789130213;0.0
6.645203554685122;-0.0948302233098807;7.160906701791551;1.9441017940326462;8.11304635011683;0.016428663231565204;-0.0713775874375446;1.6489114045521673;2.7189088200622016;8.427636342590572;3.9472710112149416;0.017028653002957195;3.465823121363523e-05;0.014275517487508993;-0.078515346181299;0.0011329775783737255;0.0805547058223718;2.35718281844026;8.11304635011683;0.020347020332340406;-0.0530233506678902;1.8395819897540502;3.3840618970274705;8.427636342590572;4.524102201393598;0.017028653002957195;0.00012161573332864521;0.0305903946160907;-0.0571020699500356;0.0016447410204742587;0.1019679820536352;2.4028043515348845;8.11304635011683;0.029692016912141607;-0.0173345569491179;1.7605586243915043;3.099566669919306;8.427636342590572;4.583112772296294;0.017028653002957195;9.639609374885575e-05;0.0305903946160907;-0.0530233506678902;0.0017362647445516672;0.1060467013357806;0.0
8.11304635011683;-0.0713775874375446;8.427636342590572;2.0969539134994717;8.11304635011683;0.0255937603711862;-0.0530233506678902;1.756568381026506;3.0855324772220807;8.427636342590572;3.9472710112149416;0.017028653002957195;3.769082644482811e-05;0.014275517487508993;-0.078515346181299;0.0013131137351065929;0.0805547058223718;1.6888261217768707;8.11304635011683;0.02772891738735019;-0.0367084735393086;1.3887639114670058;1.9286652017931374;8.427636342590572;3.9472710112149416;0.017028653002957195;2.4815293548962724e-05;0.014275517487508993;-0.078515346181299;0.0008528697537051282;0.0805547058223718;2.131710721226633;8.11304635011683;0.03433632904263196;-0.0132558376669725;1.5725083300893925;2.47278244820053;8.427636342590572;4.524102201393598;0.017028653002957195;7.76806488934931e-05;0.0305903946160907;-0.0571020699500356;0.0013657220419029585;0.1019679820536352;0.0
7.6892707203316455;-0.0530233506678902;7.918716691752221;0.6348255906027404;8.11304635011683;0.024968278554102587;-0.0367084735393086;0.574652184550693;0.33022513320888375;8.427636342590572;1.2667296407990216;0.017028653002957195;1.559620404613582e-05;0.009177118384827154;-0.1325583766697257;0.00012858203780258506;0.026511675333945106;1.6586196894143468;8.11304635011683;0.03541338866114595;-0.0173345569491179;1.368645320157974;1.8731900123903231;8.427636342590572;3.9472710112149416;0.017028653002957195;4.034218113267069e-05;0.016314877128581595;-0.078515346181299;0.0008262522321330566;0.0805547058223718;1.8708955756195664;8.11304635011683;0.03984300948984389;0.0020393596410727;1.4278290182449558;2.038695705342354;8.427636342590572;4.524102201393598;0.017028653002957195;8.359565368728716e-05;0.0305903946160907;-0.0571020699500356;0.0010416415863820625;0.1019679820536352;0.0
7.1822793528217215;-0.0367084735393086;7.348517494040876;0.48143280370630287;8.11304635011683;0.023048297961606398;-0.0173345569491179;0.568826613429157;0.3235637161452836;8.427636342590572;1.24843497875914;0.013969613541347958;3.223215502867925e-05;0.013255837666972359;-0.1417354950545528;6.541741141573586e-05;0.017334556949118007;0.574615026511784;8.11304635011683;0.03174737818976109;-0.0132558376669725;0.6076210340373077;0.3692033210045671;8.427636342590572;1.6877608180294912;0.017028653002957195;3.1469673941980144e-05;0.016314877128581595;-0.1325583766697257;0.00010383606071605081;0.026511675333945106;1.4566065658114538;8.11304635011683;0.0407317809020544;0.0020393596410727;1.3419344409541687;1.8007880438189774;8.427636342590572;4.091317967794255;0.017028653002957195;5.292311906321999e-05;0.021413276231263434;-0.078515346181299;0.0006323971922114613;0.0805547058223718;0.0
7.0716000674193396;-0.0173345569491179;7.1792013638314325;0.41178609083870393;7.6892707203316455;0.018401383615294052;-0.0132558376669725;0.48766422317485686;0.2378163945647366;7.918716691752221;1.1788411671911394;0.013969613541347958;3.223215502867925e-05;0.013255837666972359;-0.133578056490262;5.02544352597704e-05;0.017334556949118007;0.7220364190957717;8.11304635011683;0.027345676014049934;0.0020393596410727;0.8327584158266851;0.6934865791301702;8.427636342590572;2.345908515218829;0.013969613541347958;4.533296642743407e-05;0.017334556949118007;-0.1244009381054349;0.00015041672346717582;0.034669113898235904;1.714936856781761;8.11304635011683;0.042018287792311475;0.0101967982053635;1.6785917302906193;2.817670197000055;8.427636342590572;4.989697642734978;0.017028653002957195;5.656223334065158e-05;0.021413276231263434;-0.0774956663607627;0.0008806541023947274;0.0815743856429081;0.0
6.690665896047844;-0.0132558376669725;6.739875524561081;0.503109966826342;7.1822793528217215;0.015949652570137033;0.0020393596410727;0.5652788991681075;0.3195402338447075;7.348517494040876;1.2667896666691325;0.010910574079738833;4.254297881473674e-05;0.014275517487508882;-0.1244009381054349;7.278228554863218e-05;0.01835423676965431;1.1927229526467729;7.6892707203316455;0.02048177801387944;0.0020393596410727;1.2686361901760974;1.6094377830245232;7.918716691752221;3.582398316955903;0.013969613541347958;5.9369550068956164e-05;0.018354236769654197;-0.0938105434893443;0.00041659193918789137;0.05710206995003571;1.6516393376962033;8.11304635011683;0.033583966686282295;0.0101967982053635;1.7552446132134016;3.080883652214664;8.427636342590572;4.989697642734978;0.017028653002957195;5.776660687532546e-05;0.021413276231263434;-0.0774956663607627;0.0008188151533517992;0.0815743856429081;0.0
6.067663133350758;0.0020393596410727;6.0817278273717434;1.2099947496186938;7.0716000674193396;0.0085109167095264;0.0020393596410727;1.2495378667820114;1.5613448805221395;7.1792013638314325;2.8428829890351146;0.010910574079738833;4.878146043319029e-05;0.015295197308045072;-0.0938105434893443;0.00043877320716461613;0.0479249515652085;1.5591165896820913;7.1822793528217215;0.01640385647165506;0.0101967982053635;1.6104090346931623;2.5934172590213627;7.348517494040876;3.9105787941852816;0.010910574079738833;3.802007964135736e-05;0.015295197308045072;-0.0774956663607627;0.000736002198052749;0.0652595085143265;1.7876855976150943;8.11304635011683;0.02525660900102558;0.0101967982053635;1.8687805983820243;3.492340924889077;8.427636342590572;4.989697642734978;0.013969613541347958;5.245234475590124e-05;0.020393596410727022;-0.0774956663607627;0.0009589037239173115;0.0815743856429081;0.0
4.335904834031989;-0.0061180789232181;4.336318374796318;1.5095651806605284;6.690665896047844;0.010141415144172935;0.0101967982053635;1.526329838373353;2.3296827755088256;6.739875524561081;3.301936824705487;0.010910574079738833;4.9214688323360664e-05;0.015295197308045072;-0.0774956663607627;0.0006844134208912532;0.056082390129499296;1.5564791590771352;7.0716000674193396;0.013352226082677584;0.0101967982053635;1.5833143349171752;2.506884283154217;7.1792013638314325;3.741262663975838;0.010910574079738833;2.957213578303357e-05;0.015295197308045072;-0.0774956663607627;0.0007408976732116744;0.0642398286937901;1.6560761030897964;7.6892707203316455;0.020307307563222195;0.0101967982053635;1.7048254690645908;2.9064298799713018;7.918716691752221;4.480777991896627;0.013969613541347958;4.559001497560174e-05;0.020393596410727022;-0.0774956663607627;0.00082267376976025;0.0734169470786173;0.0
3.4297389240465863;0.0101967982053635;3.4379386998555943;1.1552655432856984;6.067663133350758;0.01575287070630693;0.0101967982053635;1.1530049749452471;1.3294204722484897;6.0817278273717434;2.643789127516149;0.0012236157846435836;6.823339270184441e-06;0.005608239012949823;-0.0774956663607627;0.00042306869614593844;0.0469052717446722;1.3464767600331162;6.690665896047844;0.01270991800472175;0.0101967982053635;1.3466096763532738;1.8133576204482686;6.739875524561081;3.301936824705487;0.010910574079738833;3.830601004886963e-05;0.017334556949117896;-0.0774956663607627;0.0005448707174673556;0.056082390129499296;1.4933173758331983;7.1822793528217215;0.016034895217313314;0.0101967982053635;1.5147623690140182;2.2945050345809603;7.348517494040876;3.9105787941852816;0.010910574079738833;3.0409709704029855e-05;0.017334556949117896;-0.0774956663607627;0.0006750297047901649;0.0652595085143265;0.0
3.870838475757923;-0.026511675333945;3.912616907071645;0.37174063789123607;4.335904834031989;0.015078395032676465;0.0101967982053635;0.36697440109208657;0.1346702110568956;4.336318374796318;0.8983796749407236;0.0012236157846435836;1.2541947420434288e-05;0.007647598654022647;-0.0774956663607627;4.4600811293044646e-05;0.016314877128581595;0.9297906145257885;6.067663133350758;0.014050383802333014;0.0101967982053635;0.9203201274933123;0.8469891370693066;6.0817278273717434;2.643789127516149;0.0012236157846435836;8.56924766757156e-06;0.007647598654022647;-0.0774956663607627;0.00027266496951546725;0.0469052717446722;1.2987792394587714;7.0716000674193396;0.01550747928090418;0.0244723156928724;1.3044929735618958;1.7017019180723567;7.1792013638314325;3.741262663975838;0.012949933720811546;4.173139856715e-05;0.01937391659019061;-0.0774956663607627;0.0005125981278355955;0.0642398286937901;0.0
3.8066309872367476;-0.0101967982053635;3.8888415112716133;0.3094422382676007;4.183628751394273;0.0177787251699425;0.0101967982053635;0.3468775335654126;0.12032402329242398;4.285484647987675;0.8475459481320811;0.0012236157846435836;1.1502200484025399e-05;0.007647598654022647;-0.0774956663607627;2.9524480715113695e-05;0.013255837666972595;0.3240004789804032;4.335904834031989;0.014729580014289336;0.0101967982053635;0.3415099615833451;0.11662905386065785;4.336318374796318;0.8983796749407236;0.0012236157846435836;9.193095829416903e-06;0.007647598654022647;-0.0774956663607627;3.345385767895857e-05;0.016314877128581595;1.171847881136112;6.690665896047844;0.016911526364433008;0.0244723156928724;1.1690515651178415;1.3666815619044745;6.739875524561081;3.301936824705487;0.012949933720811546;4.1823820517053006e-05;0.01937391659019061;-0.0774956663607627;0.0004149774432505244;0.056082390129499296;0.0
4.183628751394273;0.0101967982053635;4.285484647987675;0.1812472761505556;4.183628751394273;0.017254396718666246;0.0101967982053635;0.2082178458706918;0.04335467133903117;4.285484647987675;0.3966431367160621;0.0012236157846435836;1.2541947420434288e-05;0.007647598654022647;-0.0846334251045171;9.769288923342032e-06;0.006118078923218195;0.5543334563913261;5.071849681985452;0.018087943571802465;0.0244723156928724;0.5805874065854393;0.33708173668560615;5.164261102087415;1.7263224022318204;0.012949933720811546;4.572287152858732e-05;0.01937391659019061;-0.0774956663607627;8.530257157455661e-05;0.027531355154481504;0.9713629067773881;6.316278851440387;0.017432250895427936;0.0244723156928724;0.9710076308218801;0.9428558191143206;6.3838005979364425;2.945861898080848;0.012949933720811546;2.860748168092058e-05;0.01937391659019061;-0.0774956663607627;0.0002917327730548388;0.050983991026817596;0.0
4.105089267532289;0.0081574385642908;4.232582640185122;0.5448022252629626;5.071849681985452;0.01422687844495855;0.0244723156928724;0.5435416504532816;0.29543752577747734;5.164261102087415;1.2754195908158015;0.012949933720811546;7.581488077982532e-05;0.01937391659019061;-0.0846334251045171;7.650804540409805e-05;0.020393596410727105;0.9734071792965902;6.316278851440387;0.021249990458408332;0.0244723156928724;0.9695935914924843;0.9401117326632944;6.3838005979364425;2.4949590866648292;0.012949933720811546;4.572287152858732e-05;0.01937391659019061;-0.0846334251045171;0.0002880532241743213;0.0438462322830632;0.8271665302818467;6.316278851440387;0.017327557733382872;0.0244723156928724;0.8367040370905576;0.7000736456836372;6.3838005979364425;2.945861898080848;0.012949933720811546;4.505858876365877e-05;0.01937391659019061;-0.0774956663607627;0.00020864544009201755;0.050983991026817596;0.0
5.071849681985452;0.0244723156928724;5.164261102087415;1.0293966822861194;6.316278851440387;0.022127678628148576;0.0244723156928724;1.0066866669334578;1.0134180453815944;6.3838005979364425;2.151217957751321;0.012949933720811546;5.709943592446209e-05;0.017334556949117785;-0.0897318242071989;0.00032613395572030323;0.0387478331803814;0.9211135632625232;6.316278851440387;0.019863265193215754;0.0244723156928724;0.9080073196787842;0.8244772925902499;6.3838005979364425;2.4949590866648292;0.012949933720811546;4.564489050835664e-05;0.01937391659019061;-0.0846334251045171;0.00025730270853002366;0.0438462322830632;0.8537859926476302;6.316278851440387;0.01761847528854439;0.0244723156928724;0.8588420189069166;0.7376096134401084;6.3838005979364425;2.945861898080848;0.017028653002957195;6.49524134802856e-05;0.023452635872336258;-0.0774956663607627;0.00021904290945610805;0.050983991026817596;0.0
6.316278851440387;-0.0275313551544814;6.3838005979364425;0.9091470103853674;6.316278851440387;0.02413720917382949;0.0244723156928724;0.8859777473873262;0.7849565688655207;6.3838005979364425;2.151217957751321;0.012949933720811546;5.709943592446209e-05;0.017334556949117785;-0.0897318242071989;0.00025577774635662467;0.0387478331803814;0.8184349504852766;6.316278851440387;0.019568822056512464;0.0244723156928724;0.8052686767477998;0.6484576417511525;6.3838005979364425;2.151217957751321;0.012949933720811546;5.683949919035984e-05;0.017334556949117785;-0.0897318242071989;0.00020947434945520703;0.0387478331803814;0.7705532897150116;6.316278851440387;0.01734088713858757;0.0244723156928724;0.7629165961136203;0.5820417326255929;6.3838005979364425;2.4949590866648292;0.017028653002957195;7.638962978078513e-05;0.023452635872336258;-0.0846334251045171;0.0001772450826124648;0.0438462322830632;0.0
4.992688406292443;-0.0193739165901906;5.069812772926166;0.7770923957458111;6.316278851440387;0.022867139380248525;0.0244723156928724;0.7803465106145316;0.6089406766282753;6.3838005979364425;1.8462198695015646;0.012949933720811546;5.857241075104116e-05;0.013255837666972359;-0.0948302233098807;0.0002033571716460016;0.0336494340776996;0.7513772333319447;6.316278851440387;0.019182451376066587;0.0244723156928724;0.7389963756524219;0.5461156432274155;6.3838005979364425;2.151217957751321;0.017028653002957195;8.0996286346264e-05;0.021413276231263434;-0.0897318242071989;0.00017776206789473113;0.0387478331803814;0.7146003119474827;6.316278851440387;0.016109650378816304;0.0244723156928724;0.7032150838341047;0.49451145413180686;6.3838005979364425;2.4949590866648292;0.017028653002957195;7.487333216518856e-05;0.023452635872336258;-0.0846334251045171;0.00015291211611455867;0.0438462322830632;0.0
4.487740407590401;-0.0050983991026817;4.537580728434878;0.77294691615205;6.316278851440387;0.009396373982379273;-0.0050983991026817;0.7789305259841359;0.6067327643099226;6.3838005979364425;1.8462198695015646;0.017028653002957195;8.075367872776875e-05;0.017334556949118007;-0.0948302233098807;0.00020136432335121773;0.0336494340776996;0.6044113759696809;6.316278851440387;0.018617652117481415;0.0244723156928724;0.608823909568443;0.3706665528622037;6.3838005979364425;1.8462198695015646;0.017028653002957195;6.058258816143328e-05;0.017334556949118007;-0.0948302233098807;0.00012421510066966507;0.0336494340776996;0.7611091950286767;6.316278851440387;0.016562256709524235;0.0244723156928724;0.7432543751257287;0.5524270661435373;6.3838005979364425;2.151217957751321;0.017028653002957195;6.589685028085691e-05;0.021413276231263434;-0.0897318242071989;0.00017324494509322462;0.0387478331803814;0.0
5.156828085363002;-0.0142755174875089;5.193395001845867;0.3027449644257051;5.156828085363002;0.0069905726525961226;-0.0050983991026817;0.29908514928461993;0.08945192652260338;5.193395001845867;0.6558142734109893;0.017028653002957195;6.125842367009937e-05;0.017334556949118007;-0.0948302233098807;2.7986521705009037e-05;0.011216478025899798;0.6482902594073598;6.316278851440387;0.009448788472937826;-0.003059039461609;0.656701321873401;0.4312566261502722;6.3838005979364425;1.8462198695015646;0.017028653002957195;6.0582588161433616e-05;0.017334556949118007;-0.0948302233098807;0.0001394993806348782;0.0336494340776996;0.71488373485606;6.316278851440387;0.015510831323346725;0.0244723156928724;0.69872264915493;0.4882133404420833;6.3838005979364425;2.151217957751321;0.017028653002957195;6.771063104770389e-05;0.021413276231263434;-0.0897318242071989;0.00015660899411068022;0.0387478331803814;0.0
5.084888111395783;-0.020393596410727;5.117904437286313;0.333605049686894;5.156828085363002;0.008093457666150461;-0.003059039461609;0.3290839774221251;0.10829626419596572;5.193395001845867;0.6558142734109893;0.017028653002957195;2.8766331907317628e-05;0.01223615784643639;-0.0948302233098807;2.980607884372492e-05;0.011216478025899798;0.62560616701963;6.255132251266237;0.007559856035089784;-0.003059039461609;0.6156056350148356;0.37897029786201897;6.2729176554871495;1.7353369270522716;0.017028653002957195;4.758575145632081e-05;0.017334556949118007;-0.0948302233098807;0.00011381763130557437;0.030590394616090505;0.615383072688363;6.316278851440387;0.014589698535967293;0.0244723156928724;0.6130089221570831;0.3757799386441888;6.3838005979364425;1.8462198695015646;0.017028653002957195;5.199889956418958e-05;0.01835423676965442;-0.0948302233098807;0.00012039114249243184;0.0336494340776996;0.0
4.617554222421084;-0.003059039461609;4.649923473615844;0.6935294881491457;6.255132251266237;0.007737706018036225;-0.003059039461609;0.6863915985077077;0.4711334265019662;6.2729176554871495;1.6229941818713058;0.017028653002957195;3.049924346799939e-05;0.01223615784643639;-0.0978892627714897;0.00013897950716667472;0.027531355154481504;0.6491758882798455;6.255132251266237;0.00698809328644167;-0.003059039461609;0.6385423915845568;0.4077363858505255;6.2729176554871495;1.7353369270522716;0.017028653002957195;5.226461267016177e-05;0.01835423676965442;-0.0948302233098807;0.00012837408841530104;0.030590394616090505;0.7526791715570705;6.316278851440387;0.008463956753113913;-0.0020393596410727;0.7570132323258784;0.5730690339164742;6.3838005979364425;2.479827205938973;0.017028653002957195;8.98341353057411e-05;0.029570714795554287;-0.0866727847455898;0.00016946719789093896;0.0418068726419905;0.0
6.255132251266237;-0.0183542367696543;6.2729176554871495;0.6995379469727013;6.255132251266237;0.007854403322994679;-0.003059039461609;0.6918284054376397;0.4786265425703872;6.2729176554871495;1.6229941818713058;0.01498929336188437;6.481089236949724e-05;0.016314877128581595;-0.0978892627714897;0.0001444381785828221;0.027531355154481504;0.5631467647556126;6.255132251266237;0.007675870834190651;-0.0020393596410727;0.5575159740034931;0.3108240612690636;6.2729176554871495;1.6229941818713058;0.017028653002957195;5.396286599963002e-05;0.01835423676965442;-0.0978892627714897;9.4409021825939e-05;0.027531355154481504;0.8155522097402961;6.255132251266237;0.007227029433933922;-0.0020393596410727;0.8187008076446737;0.670271012438041;6.2729176554871495;2.8972572671210797;0.017028653002957195;9.127822827297596e-05;0.029570714795554287;-0.0764759865402263;0.00019126722532431475;0.0489446313857449;0.0
5.563819083864576;-0.0112164780258998;5.578304281182015;0.707691362176853;6.255132251266237;0.0076532614453605555;-0.0020393596410727;0.7023185019248511;0.4932512781459671;6.2729176554871495;1.6229941818713058;0.01498929336188437;4.531563731182759e-05;0.016314877128581595;-0.0978892627714897;0.0001444381785828221;0.027531355154481504;0.8051787706385897;6.255132251266237;0.007648731547689134;-0.0020393596410727;0.8050414191341678;0.6480916865215549;6.2729176554871495;2.3689442634896802;0.01498929336188437;0.00010924274478537703;0.027531355154481463;-0.0866727847455898;0.00018067335931667666;0.0387478331803814;1.0861573073939212;6.255132251266237;0.00652116935059423;-0.0020393596410727;1.0909332692529479;1.1901353979629248;6.2729176554871495;3.7101948451781226;0.017028653002957195;9.491734255040772e-05;0.029570714795554287;-0.061180789232181;0.0003517232830997062;0.06423982869379019;0.0
5.030405484725332;-0.0020393596410727;5.04784685680735;0.9972346441621187;6.255132251266237;0.0067829788394259075;-0.0020393596410727;0.9995164928650105;0.9990332195091706;6.2729176554871495;2.3689442634896802;0.01498929336188437;0.00013516710173317579;0.027531355154481463;-0.0866727847455898;0.0002731068619634422;0.0387478331803814;1.064167540027468;6.255132251266237;0.006343359239317084;-0.0020393596410727;1.0668332051986378;1.1381330877143987;6.2729176554871495;2.8972572671210797;0.01498929336188437;8.484335001097806e-05;0.027531355154481463;-0.0764759865402263;0.00032623793041394354;0.0489446313857449;1.1045136753505524;6.255132251266237;0.006424117746246198;-0.0020393596410727;1.1105957343005315;1.2334228850465367;6.2729176554871495;3.7101948451781226;0.017028653002957195;9.191362917855951e-05;0.029570714795554287;-0.061180789232181;0.00036299876098787537;0.06423982869379019;0.0
3.892388236861513;-0.0081574385642908;3.9039733919974693;1.0098803453194294;5.563819083864576;0.004326135094441938;-0.0020393596410727;1.013252923453773;1.0266814868876175;5.578304281182015;2.202643892815945;0.005812174977057216;5.753266381463386e-05;0.01835423676965431;-0.0764759865402263;0.0003063787639285323;0.0387478331803814;1.4080700406299436;6.255132251266237;0.005936953860715608;-0.0020393596410727;1.4119065147456848;1.9934800063813065;6.2729176554871495;3.7101948451781226;0.01498929336188437;0.00011464942885470405;0.027531355154481463;-0.061180789232181;0.0005982357289785508;0.06423982869379019;1.1673266046384752;6.255132251266237;0.008515157537289491;-0.0020393596410727;1.1736658870711965;1.3774916144746183;6.2729176554871495;3.7101948451781226;0.01498929336188437;7.735717206883262e-05;0.027531355154481463;-0.061180789232181;0.0004101339554384182;0.06423982869379019;0.0
3.367451472015526;-0.003059039461609;3.37566038836607;1.0376818187108545;5.030405484725332;0.0035809978426472517;-0.0020393596410727;1.0416105667715332;1.0849525728101144;5.04784685680735;2.4851240464983233;0.01498929336188437;0.00013516710173317579;0.027531355154481463;-0.061180789232181;0.0003385242733791789;0.043846232283063204;1.0942970024679965;5.563819083864576;0.0035676652608122605;-0.0020393596410727;1.0975364194919524;1.2045861921112149;5.578304281182015;3.015581470872988;0.01498929336188437;8.304112198786915e-05;0.027531355154481463;-0.061180789232181;0.000376977580910706;0.0540430304884267;1.150120446542534;6.255132251266237;0.011665323334072969;-0.0020393596410727;1.155592652959204;1.3353943795732914;6.2729176554871495;3.7101948451781226;0.01498929336188437;8.156525897535513e-05;0.027531355154481463;-0.061180789232181;0.00039921661260612293;0.06423982869379019;0.0
2.554024385675268;-0.0091771183848271;2.562722810309027;0.6513062278824289;3.9671035218323034;0.0026776709249495545;-0.003059039461609;0.6501078184510078;0.4226401756111286;3.968721677777068;1.4059988674680413;0.01498929336188437;0.00012918855684882383;0.027531355154481463;-0.061180789232181;0.0001451313432070952;0.025491995513408798;0.8530295598953003;5.030405484725332;0.009299513505330339;-0.0020393596410727;0.8565205699028811;0.7336274866667561;5.04784685680735;2.4851240464983233;0.01498929336188437;8.525924878554187e-05;0.027531355154481463;-0.061180789232181;0.00022943749063426204;0.043846232283063204;1.1859685131344957;6.255132251266237;0.014249597325431596;0.0142755174875089;1.1901541959143886;1.416467010052625;6.2729176554871495;3.7101948451781226;0.01498929336188437;8.098762178846124e-05;0.027531355154481463;-0.061180789232181;0.000425325813453728;0.06423982869379019;0.0
3.9671035218323034;-0.0066279188334862;3.968721677777068;0.5865886136506219;3.9671035218323034;0.01091402805578035;-0.003059039461609;0.5842900597558078;0.3413948739294455;3.968721677777068;1.4059988674680413;0.01498929336188437;4.8521523699088705e-05;0.016314877128581595;-0.061180789232181;0.00011263925144431237;0.025491995513408798;0.5419645873417733;3.9671035218323034;0.013737323937297269;-0.003059039461609;0.5412371827051773;0.29293768794263747;3.968721677777068;1.4059988674680413;0.01498929336188437;0.00010360211765535863;0.027531355154481463;-0.061180789232181;0.00010206849092415338;0.025491995513408798;0.9593291070516397;5.563819083864576;0.015303126096014795;0.0142755174875089;0.9623348882946883;0.9260884372291502;5.578304281182015;3.015581470872988;0.01498929336188437;6.171764523368032e-05;0.027531355154481463;-0.061180789232181;0.00028784816297297566;0.0540430304884267;0.0
3.1091257419793514;-0.0275313551544814;3.1101509947113883;0.6376031527800063;3.9671035218323034;0.014708977134767551;-0.0066279188334862;0.6347399082947531;0.4028947511820316;3.968721677777068;1.4059988674680413;0.01498929336188437;9.953410776665862e-05;0.023962475782604353;-0.061180789232181;0.00013750653234009507;0.025491995513408798;0.8986596448555833;5.185196621632306;0.018347626543453326;0.0142755174875089;0.8983019213191221;0.8069463418456262;5.19184549067485;2.629122680365823;0.01498929336188437;6.409173407181498e-05;0.023962475782604353;-0.061180789232181;0.0002556391134317693;0.04690527174467219;0.8026126725026078;5.185196621632306;0.01649480729716991;0.0142755174875089;0.8044213204635525;0.6470936608163255;5.19184549067485;2.629122680365823;0.01498929336188437;0.000129740200362308;0.03976751300091774;-0.061180789232181;0.00019981625569034242;0.04690527174467219;0.0
3.734079457514394;-0.0372183134495767;3.735571212872308;0.8698924911042567;5.185196621632306;0.022918234967872923;0.0142755174875089;0.872394779461547;0.7610726512317613;5.19184549067485;2.0816944959634616;0.006831854797593628;4.6507014009797385e-05;0.01580503721831361;-0.0713775874375446;0.00023316325048972718;0.03670847353930859;0.9097571566199791;5.185196621632306;0.01907010278222612;0.0142755174875089;0.9106284878200237;0.829244242829383;5.19184549067485;2.629122680365823;0.01498929336188437;6.007137925103334e-05;0.023962475782604353;-0.061180789232181;0.00026243212674964187;0.04690527174467219;0.7783144103169813;5.185196621632306;0.01763756272322741;0.0142755174875089;0.7822459235262426;0.6119086848734242;5.19184549067485;2.629122680365823;0.01498929336188437;0.0001238454128700556;0.03976751300091774;-0.061180789232181;0.0001913596472742154;0.04690527174467219;0.0
5.185196621632306;0.0142755174875089;5.19184549067485;0.8746985943406795;5.185196621632306;0.023235036805133003;0.0142755174875089;0.8778003707616296;0.7705334909092545;5.19184549067485;2.0816944959634616;0.006831854797593628;4.6507014009797385e-05;0.01580503721831361;-0.0713775874375446;0.0002352427443625454;0.03670847353930859;0.6909161884440407;5.185196621632306;0.019660703261217983;0.0142755174875089;0.6916390772481014;0.47836461317660517;5.19184549067485;2.0816944959634616;0.006831854797593628;0.0001411716402909395;0.031610074436627;-0.0713775874375446;0.00014365836838051453;0.03670847353930859;0.8528890697788255;5.185196621632306;0.01737025896145765;0.0142755174875089;0.8603160375027522;0.7401436843844369;5.19184549067485;2.629122680365823;0.01498929336188437;0.00011164571548285609;0.03976751300091774;-0.061180789232181;0.00022690743975566712;0.04690527174467219;0.0
4.197439151714433;-0.0295707147955541;4.211926368774699;0.6877015293356377;5.185196621632306;0.023758667460477785;0.0142755174875089;0.6837882669137451;0.467566393968903;5.19184549067485;1.456274277802542;0.002753135515448202;0.00017006360828640584;0.027531355154481574;-0.0836137452839807;0.00012823545549044854;0.02447231569287249;0.7790310436182638;5.185196621632306;0.019829211611122742;0.0142755174875089;0.7838843485975702;0.6144746719762368;5.19184549067485;2.0816944959634616;0.006831854797593628;0.00013492449411468165;0.031610074436627;-0.0713775874375446;0.00018247558733978553;0.03670847353930859;0.8909052311835649;5.185196621632306;0.01654594380935806;0.0142755174875089;0.9012880056740817;0.8123200691719635;5.19184549067485;2.629122680365823;0.01498929336188437;0.00013419667125919452;0.03976751300091774;-0.061180789232181;0.0002417873736900549;0.04690527174467219;0.0
3.718941645504424;-0.0316100744366268;3.7472527450695643;0.6603990482443909;5.185196621632306;0.0242388531753182;0.0142755174875089;0.6558408073378617;0.4301271645695781;5.19184549067485;1.4445927456052856;0.002753135515448202;0.00017630208990485977;0.027531355154481574;-0.0846334251045171;0.00011671159361191493;0.02345263587233609;0.6461886867703465;5.185196621632306;0.020245202946190564;0.0142755174875089;0.6509469596275707;0.42373194424837807;5.19184549067485;1.456274277802542;0.003772815335984392;0.0001235912525078224;0.028551034975017764;-0.0836137452839807;0.00011371365661193378;0.02447231569287249;0.7588281533831889;5.185196621632306;0.01670705962911713;0.0142755174875089;0.7614437055303416;0.5797965166917776;5.19184549067485;2.0816944959634616;0.01498929336188437;0.00011260748139903453;0.03976751300091774;-0.0713775874375446;0.00016950474430808498;0.03670847353930859;0.0
4.870785689942585;-0.0392576730906494;4.903560846457574;0.5871472766327924;4.959550437423364;0.010468285189973125;-0.0142755174875089;0.5939378375188371;0.35276215483655254;5.000486756706456;1.2532340116368919;0.003772815335984392;0.00018184740689904046;0.028551034975017764;-0.0846334251045171;8.967817326527977e-05;0.019373916590190693;0.581238609307027;5.185196621632306;0.01904850879027921;0.0142755174875089;0.5840747931487064;0.3411433639917041;5.19184549067485;1.4445927456052856;0.01498929336188437;0.00017368106116932817;0.03976751300091774;-0.0846334251045171;8.678421095893886e-05;0.02345263587233609;0.849256039414333;5.185196621632306;0.016137236336978913;0.0142755174875089;0.8432298010686287;0.7110364974102391;5.19184549067485;2.103457553352265;0.01498929336188437;0.0001129540637111709;0.03976751300091774;-0.0703579076170082;0.0002129430607625071;0.03772815335984499;0.0
4.959550437423364;-0.0142755174875089;5.000486756706456;0.6324338365520493;5.0844708993694026;0.010737951525726886;-0.0142755174875089;0.6391517596421163;0.4085149718536137;5.13146555842867;1.3842128133591056;0.01498929336188437;0.0002806233658579;0.03976751300091774;-0.0846334251045171;9.453032563518913e-05;0.020393596410727105;0.7199305130600773;5.0844708993694026;0.00907457753086035;-0.0142755174875089;0.7134397281656516;0.5089962457250788;5.13146555842867;1.6981411231820407;0.01498929336188437;0.0001743309030045839;0.03976751300091774;-0.0759661466299581;0.00014519199511171815;0.02906087488528611;1.0121145834186305;5.185196621632306;0.017883118864948564;0.0142755174875089;0.9871820228571668;0.9745283462523678;5.19184549067485;2.9162388757224167;0.01498929336188437;0.00012325622293942354;0.03976751300091774;-0.0560823901294992;0.00029854889186018584;0.052003670847353994;0.0
5.0844708993694026;-0.023452635872336;5.13146555842867;0.8127900991495292;5.0844708993694026;0.01158507662360504;-0.0142755174875089;0.7947623731454029;0.6316472297677126;5.13146555842867;1.6981411231820407;0.01498929336188437;4.5922156358066494e-05;0.0158050372183135;-0.0759661466299581;0.0001972703197891084;0.02906087488528611;0.9128952879320578;5.0844708993694026;0.009677561950049408;-0.0142755174875089;0.8977793258989298;0.8060077180115368;5.13146555842867;2.043077621106085;0.01498929336188437;0.00017349910545545662;0.03976751300091774;-0.0703579076170082;0.00024015554863707813;0.034669113898236;1.036651569032593;5.185196621632306;0.018993313980424417;0.0142755174875089;1.011104808417075;1.02233293360413;5.19184549067485;2.9162388757224167;0.01498929336188437;0.00015401251495558992;0.03976751300091774;-0.0560823901294992;0.0003108410111972882;0.052003670847353994;0.0
3.355502230309874;-0.0361986336290404;3.4333244352466292;1.0729878669126482;5.0844708993694026;0.010970447023223199;-0.0142755174875089;1.0530157371054067;1.108842142591643;5.13146555842867;2.043077621106085;0.01498929336188437;5.794423031029635e-05;0.01835423676965442;-0.0703579076170082;0.00033313058614655686;0.034669113898236;1.2313728702107747;5.0844708993694026;0.01275075537461057;-0.0142755174875089;1.2015525825654176;1.4437286086696246;5.13146555842867;2.8558589434762367;0.01498929336188437;9.143707849937218e-05;0.02906087488528597;-0.0560823901294992;0.0004429755176992709;0.04894463138574501;1.0082290582922937;5.0844708993694026;0.011384648962320077;-0.0142755174875089;0.9899854245726877;0.9800711408663647;5.13146555842867;2.8558589434762367;0.01498929336188437;0.00015731659966462295;0.03976751300091774;-0.0560823901294992;0.00029774019979853346;0.04894463138574501;0.0
3.008378425120669;-0.0372183134495768;3.088387937322585;1.2283438633364498;5.0844708993694026;0.011040320054212743;-0.023452635872336;1.2018626156290462;1.4444737468466926;5.13146555842867;2.8558589434762367;0.01498929336188437;0.00014816393843828906;0.02906087488528597;-0.0560823901294992;0.00042272211383380447;0.04894463138574501;1.1509221348483296;5.0844708993694026;0.01436777956631477;-0.0142755174875089;1.1274607434455726;1.271167728010843;5.13146555842867;2.8558589434762367;0.01498929336188437;0.00016882024424161538;0.035688793718772316;-0.0560823901294992;0.00037719419485579206;0.04894463138574501;0.9962756528585214;5.0844708993694026;0.012777003629957893;-0.0142755174875089;0.9792459701026364;0.9589226699622534;5.13146555842867;2.8558589434762367;0.01498929336188437;0.00016156800936016207;0.03976751300091774;-0.0560823901294992;0.00029173277305483657;0.04894463138574501;0.0
2.161565179368606;-0.0504741511165493;2.275606614952433;0.5471797085358057;3.355502230309874;0.007814311941529027;-0.0361986336290404;0.5232105924166424;0.2737493240169738;3.4333244352466292;1.157717820294196;0.003262975425716408;0.00011480539089516583;0.023962475782604353;-0.0560823901294992;9.034967649504455e-05;0.020393596410727105;0.9865692335605202;5.0844708993694026;0.01154274253992594;-0.023452635872336;0.9715988061627945;0.9440042401369675;5.13146555842867;2.8558589434762367;0.01498929336188437;0.00017162756096991992;0.035688793718772316;-0.0560823901294992;0.00027578421032469673;0.04894463138574501;0.9998159951668184;5.0844708993694026;0.013750352868712682;-0.0142755174875089;0.9818664935471394;0.9640618111505547;5.13146555842867;2.8558589434762367;0.01498929336188437;0.00011665094170729133;0.035688793718772316;-0.0560823901294992;0.0002930497858409547;0.04894463138574501;0.0
3.2797789550856153;-0.0499643112062812;3.3233580678225416;0.4773742184792847;3.2797789550856153;0.011898692134335555;-0.0254919955134087;0.45216426927028924;0.20445252640473466;3.3233580678225416;1.0477514528701084;0.004792495156520804;0.00012760727504970115;0.02549199551340875;-0.0560823901294992;7.442855153128103e-05;0.020393596410727105;0.5716393456129782;3.8298726512865517;0.013746466496323365;-0.0152951973080452;0.5426615807316963;0.2944815912022234;3.832941495356855;1.5573348804044218;0.004792495156520804;0.0001075791496871227;0.02549199551340875;-0.0560823901294992;0.0001045725481293402;0.0295707147955543;0.9508260552341415;5.0844708993694026;0.01479424274168968;-0.0101967982053635;0.9332596183784911;0.870973515295967;5.13146555842867;2.8558589434762367;0.01498929336188437;0.00013163196214938512;0.035688793718772316;-0.0560823901294992;0.00026040173203771035;0.04894463138574501;0.0
2.750502403445178;-0.0254919955134087;2.7873300373100864;0.7146255311703064;3.8298726512865517;0.017717089710869268;-0.0152951973080452;0.672386331038966;0.4521033781680419;3.832941495356855;1.5573348804044218;0.004792495156520804;0.00011980917302663363;0.02549199551340875;-0.0560823901294992;0.00016670609213758407;0.0295707147955543;0.6783696853932956;3.9665514038794196;0.015858124910787353;-0.0152951973080452;0.641835314415965;0.41195257083144055;3.979708267468269;1.7041016525158357;0.004792495156520804;0.00010547366214089425;0.02549199551340875;-0.0560823901294992;0.0001422373809007576;0.030590394616090602;0.8379884333247763;5.0844708993694026;0.014693162029177562;-0.0101967982053635;0.8196909646558243;0.6718932775383958;5.13146555842867;2.8558589434762367;0.01498929336188437;0.00013804373492390794;0.035688793718772316;-0.0560823901294992;0.00020035057008821867;0.04894463138574501;0.0
3.8298726512865517;-0.0152951973080452;3.832941495356855;0.5565436134400901;3.9665514038794196;0.016130612847513392;-0.0152951973080452;0.5411720732229832;0.29286721283646194;3.979708267468269;1.1923782301581825;0.004792495156520804;0.00015483564794691406;0.02549199551340875;-0.0652595085143265;9.91225412709946e-05;0.021413276231263295;0.8367006286973322;4.412199449244464;0.017937140934774838;-0.0101967982053635;0.8076520431920067;0.6523018228722229;4.450168077958428;2.1745614630059946;0.009890894259202643;0.00015593604678794696;0.030590394616090588;-0.0560823901294992;0.00020521138701593182;0.0377281533598451;0.6402827752330642;4.412199449244464;0.015710737033815543;-0.0101967982053635;0.6168476724014518;0.38050105094708875;4.450168077958428;2.1745614630059946;0.009890894259202643;0.00010057818698196856;0.030590394616090588;-0.0560823901294992;0.00012098322060899397;0.0377281533598451;0.0
3.9665514038794196;-0.0163148771285816;3.979708267468269;0.7048309570840637;4.412199449244464;0.006367898438256709;-0.0101967982053635;0.7014236170896504;0.49199509061112856;4.450168077958428;1.6628380406483414;0.009890894259202643;0.00010284830112646198;0.023452635872336147;-0.0652595085143265;0.0001506766602012763;0.02855103497501779;0.5774372564544585;4.412199449244464;0.014530586517875437;-0.0101967982053635;0.5730614694898479;0.32839944781386393;4.450168077958428;1.6628380406483414;0.009890894259202643;0.00014792133081979443;0.030590394616090588;-0.0652595085143265;9.707770562938978e-05;0.02855103497501779;0.6476257447585884;4.412199449244464;0.015762035213863466;-0.0101967982053635;0.6243670797864652;0.38983425032107827;4.450168077958428;2.1745614630059946;0.009890894259202643;9.281474319011422e-05;0.030590394616090588;-0.0560823901294992;0.00012366056897024713;0.0377281533598451;0.0
4.412199449244464;-0.0101967982053635;4.450168077958428;0.3585962306063187;4.412199449244464;0.0027613060074898094;-0.0101967982053635;0.3740637857993172;0.13992371584651744;4.450168077958428;0.8940053942994424;0.009890894259202643;0.0001278022276002801;0.023452635872336147;-0.0805547058223717;2.9806078843725367e-05;0.013255837666972595;0.5850219769403241;4.412199449244464;0.005600508838341289;-0.0101967982053635;0.5855713440190426;0.34289379893626803;4.450168077958428;1.6628380406483414;0.009890894259202643;9.46862876756512e-05;0.023452635872336147;-0.0652595085143265;0.00010179122507444416;0.02855103497501779;0.6531051934912555;4.412199449244464;0.01692185552689139;0.0010196798205363;0.6329540712507838;0.4006308563129423;4.450168077958428;2.1745614630059946;0.009890894259202643;0.00010259991713609699;0.030590394616090588;-0.0560823901294992;0.00012441149731320946;0.0377281533598451;0.0
3.5527418096587606;-0.0152951973080452;3.5561626836589855;0.5157734311449652;4.412199449244464;0.0032645682866486833;-0.0101967982053635;0.5303837237300273;0.2813068943977299;4.450168077958428;1.224177341104359;0.009890894259202643;9.87759589588605e-05;0.021413276231263545;-0.0744366268991536;6.888323453709867e-05;0.019373916590190693;0.5037281801914993;4.412199449244464;0.0027106355375243842;-0.0101967982053635;0.5068076126463901;0.2568539562363334;4.450168077958428;1.3675061958356918;0.009890894259202643;8.509462218727801e-05;0.023452635872336147;-0.0713775874375446;6.935112065848197e-05;0.022432956051799693;0.4899526133839968;4.412199449244464;0.013383769710205058;0.0010196798205363;0.48866075176363116;0.23878933031419716;4.450168077958428;1.6628380406483414;0.009890894259202643;0.00010698129519868773;0.030590394616090588;-0.0652595085143265;6.888034635116302e-05;0.02855103497501779;0.0
3.2212417982099346;-0.0101967982053635;3.225990736854069;0.6069356632983558;4.412199449244464;0.0026817126946839065;-0.0101967982053635;0.613846390073138;0.37680739060582313;4.450168077958428;1.3675061958356918;0.009890894259202643;9.728132273777248e-05;0.021413276231263545;-0.0713775874375446;9.877595895885845e-05;0.022432956051799693;0.5018677220107619;4.412199449244464;0.006373338762562303;0.0010196798205363;0.5070281122039741;0.2570775065651258;4.450168077958428;1.3675061958356918;0.009890894259202643;7.566758329716909e-05;0.021413276231263545;-0.0713775874375446;6.713299386080937e-05;0.022432956051799693;0.5083266972240582;4.412199449244464;0.006962421469872172;0.0010196798205363;0.5055201828451698;0.2555506552638139;4.450168077958428;1.6628380406483414;0.009890894259202643;7.197648167291668e-05;0.023452635872336147;-0.0652595085143265;7.546541028175349e-05;0.02855103497501779;0.0
3.0461188743343213;-0.0142755174875089;3.082661882122736;0.33592281816552233;3.7976109333734946;0.007469923175906903;0.0010196798205363;0.3384003760010863;0.11451481447767657;3.836753974767283;0.7540920926445471;0.003772815335984392;4.685359632193252e-05;0.015295197308045294;-0.0713775874375446;3.1192408092270516e-05;0.012236157846436196;0.482221415924028;4.412199449244464;0.005875338142505456;0.0010196798205363;0.48974551149963264;0.2398506660340368;4.450168077958428;1.3675061958356918;0.009890894259202643;8.634231851096884e-05;0.021413276231263545;-0.0713775874375446;6.159634142443144e-05;0.022432956051799693;0.48441994525818777;4.412199449244464;0.0053784821576023855;0.0010196798205363;0.4811093497873835;0.23146620645283894;4.450168077958428;1.5094758711052791;0.009890894259202643;6.631563724135634e-05;0.023452635872336147;-0.0683185479759355;6.673153601591771e-05;0.02549199551340879;0.0
3.7976109333734946;0.0010196798205363;3.836753974767283;0.3703671218087565;3.7976109333734946;0.006833883709895286;0.0010196798205363;0.3795015752066548;0.14402144558433227;3.836753974767283;0.7540920926445471;0.006831854797593628;6.712866158190933e-05;0.01580503721831361;-0.0713775874375446;3.489650655322789e-05;0.012236157846436196;0.334330649002613;3.7976109333734946;0.006106738637429167;0.0010196798205363;0.3342555653348142;0.11172678295729624;3.836753974767283;0.7540920926445471;0.006831854797593628;5.6189657355106255e-05;0.01835423676965453;-0.0713775874375446;3.0334616869733423e-05;0.012236157846436196;0.5387332597327903;4.412199449244464;0.008982447454081862;0.0132558376669725;0.5266105481509806;0.2773186694238763;4.450168077958428;1.633927848969333;0.009890894259202643;0.000177915141749261;0.046905271744672294;-0.0672988681553992;7.65051572181623e-05;0.026511675333945092;0.0
3.724336209598601;-0.0122361578464362;3.7670658782890696;0.40963149810742633;3.7976109333734946;0.006884412188752563;0.0010196798205363;0.40807421821569845;0.16652456757235348;3.836753974767283;0.7540920926445471;0.006831854797593628;5.569144528141075e-05;0.01580503721831361;-0.0713775874375446;4.4254228980909165e-05;0.012236157846436196;0.37838578368908016;3.7976109333734946;0.0054340420493419255;0.0010196798205363;0.379222681729704;0.14380984233826838;3.836753974767283;0.8960617679141345;0.006831854797593628;4.246499779450663e-05;0.01580503721831361;-0.0683185479759355;3.906849113556987e-05;0.015295197308045294;0.8252883436093561;4.412199449244464;0.011988648165783478;0.0132558376669725;0.7563111890179209;0.5720066146337013;4.450168077958428;2.8346927057334055;0.009890894259202643;0.00023801251467370346;0.046905271744672294;-0.0418068726419904;0.00019087732022315658;0.0520036708473539;0.0
3.0607635104452697;-0.0061180789232181;3.111580230050567;0.456727671576217;3.7976109333734946;0.005459494376196867;0.0010196798205363;0.4541858722938676;0.2062848065913414;3.836753974767283;0.8960617679141345;0.006831854797593628;3.119240809227245e-05;0.012236157846436502;-0.0683185479759355;5.829081262243154e-05;0.015295197308045294;0.447833718501055;3.7976109333734946;0.01010289517535213;0.0132558376669725;0.43407700091747475;0.18842284272550935;3.836753974767283;1.0205137457781883;0.006831854797593628;0.00024722582780466195;0.04384623228306328;-0.0672988681553992;4.974322634936953e-05;0.016314877128581595;0.745848348449866;3.7976109333734946;0.012063099109363014;0.0132558376669725;0.6625849966691307;0.43901887781103205;3.836753974767283;2.2212786025422604;0.00785153461813004;0.00023008733246951928;0.04486591210359969;-0.0418068726419904;0.0001626655200152573;0.0418068726419904;0.0
2.899076619511205;-0.0071377587437544;2.9406922068531487;0.44031288139298935;3.724336209598601;0.011201017676682629;0.0132558376669725;0.4231371943343215;0.17904508522912135;3.7670658782890696;0.9508256492999747;0.006831854797593628;0.00036391142774316795;0.04384623228306328;-0.0672988681553992;4.581384938552304e-05;0.014785357397777088;0.8993626349606596;3.7976109333734946;0.015566963501137072;0.0132558376669725;0.8067100964686553;0.6507811797444673;3.836753974767283;2.2212786025422604;0.006831854797593628;0.0003513304898126171;0.04384623228306328;-0.0418068726419904;0.0002266388384637627;0.0418068726419904;0.7808657136900083;3.7976109333734946;0.023490535368441853;0.0132558376669725;0.6921657196337296;0.4790933834360789;3.836753974767283;2.2212786025422604;0.00785153461813004;0.00023279067450418273;0.04486591210359969;-0.0418068726419904;0.0001787469392983837;0.0418068726419904;0.0
2.7128008582920393;0.0132558376669725;2.816240228989095;0.7988082180757505;3.0607635104452697;0.019264034123723777;0.0132558376669725;0.6811927268355749;0.46402353109368616;3.111580230050567;1.4961048578255445;-0.002345263587233637;0.00031781598022903075;0.034669113898236015;-0.0418068726419904;0.0001878476131779005;0.029570714795554204;0.8164165119949243;3.724336209598601;0.015092179946449333;0.0132558376669725;0.7212097331013877;0.5201434791201749;3.7670658782890696;2.1515905060640472;0.00785153461813004;0.00037822527723439944;0.04486591210359969;-0.0418068726419904;0.00019295103772411058;0.04027735291118589;1.2899463834760891;3.7976109333734946;0.03342120626633278;0.0601611094116447;0.8642515503356475;0.7469307422575702;3.836753974767283;2.6581071298551686;0.00785153461813004;0.00023279067450418273;0.04486591210359969;-0.0081574385642908;0.0005046498401439292;0.07545630671969;0.0
1.3187717939805;-0.0336494340776996;1.6154753722250226;0.7061658207089062;2.899076619511205;0.019311203169629542;0.0132558376669725;0.5979213619148834;0.357509955034149;2.9406922068531487;1.3252168346281261;0.00785153461813004;0.00048339567985217566;0.04486591210359969;-0.0418068726419904;0.0001527561540740952;0.026511675333945106;0.6653441599548892;3.0607635104452697;0.030347539900952725;0.0132558376669725;0.5657477679887031;0.3200705369841994;3.111580230050567;1.4961048578255445;0.00785153461813004;0.0003292531965295326;0.04486591210359969;-0.0418068726419904;0.00013534039288924706;0.029570714795554204;1.299368073634381;3.7976109333734946;0.05005279009227491;0.1111451004384623;0.889725382968989;0.7916112570993141;3.836753974767283;2.6581071298551686;0.00785153461813004;0.0002354564701216981;0.04486591210359969;-0.0081574385642908;0.0005115121699242283;0.07545630671969;0.0
2.2352276423122985;-0.0050983991026817;2.414962273896881;0.5857578631335408;2.7128008582920393;0.03732641015136761;0.0132558376669725;0.5054699688012597;0.25549988935994644;2.816240228989095;1.2007648567640723;0.00785153461813004;0.00048339567985217566;0.04486591210359969;-0.0418068726419904;0.00011298583375644964;0.025491995513408805;1.2589233386772196;2.899076619511205;0.044520050838305965;0.0601611094116447;0.6875116249139617;0.4726722343918359;2.9406922068531487;1.7620453619410343;0.00785153461813004;0.00032291074021743805;0.04486591210359969;-0.0081574385642908;0.0004963405292104693;0.06016110941164471;1.1947506227429787;3.724336209598601;0.05123669852772043;0.1111451004384623;0.7821562901856826;0.6117684622770296;3.7670658782890696;2.5884190333769554;0.00785153461813004;0.0002470092138595771;0.04486591210359969;-0.0081574385642908;0.0004341087868804434;0.0739267869888855;0.0
1.904270450461988;-0.0723972672580809;2.122421272286907;1.237819844594113;2.2352276423122985;0.05588428414733997;0.0601611094116447;0.5470952736303635;0.2993132384286823;2.414962273896881;1.2363154289847664;0.00785153461813004;0.00028445743268590984;0.03976751300091785;-0.0081574385642908;0.000464766880574843;0.047924951565208505;1.1274905008835063;2.7128008582920393;0.06580214390110574;0.1111451004384623;0.5830386630244143;0.33993408258129654;2.816240228989095;1.6375933840769805;0.00785153461813004;0.00032291074021743805;0.04486591210359969;-0.0081574385642908;0.00040484279880647413;0.05914142959110841;1.1536125853848564;3.0607635104452697;0.0538191779011984;0.1111451004384623;0.7341568876938268;0.5389863357482862;3.111580230050567;1.9517237135153407;0.00785153461813004;0.0002305927650080516;0.04486591210359969;-0.0081574385642908;0.0004123867404672968;0.0632201488732538;0.0
-0.53736821902585;0.0601611094116447;1.1786468449121144;1.2448139979972916;2.2352276423122985;0.07966564692413418;0.1111451004384623;0.528386996426869;0.27919281799300816;2.414962273896881;1.2363154289847664;0.00785153461813004;4.574886520199874e-05;0.016314877128581706;-0.0081574385642908;0.00046927245063261555;0.047924951565208505;1.113274447819008;2.6443697578314738;0.0679568980512973;0.1111451004384623;0.59806279929179;0.35767911189673185;2.8690947487243563;1.690447903812242;0.00785153461813004;0.00021616338807944218;0.03976751300091785;-0.0081574385642908;0.00037073909929225674;0.0550627103089629;1.0726856209039386;2.899076619511205;0.057276832379516494;0.1111451004384623;0.678475119138693;0.46032848729026365;2.9406922068531487;1.7808356903179223;0.00785153461813004;0.00023061875868146187;0.04486591210359969;-0.0081574385642908;0.00035723683004859977;0.06016110941164471;0.0
1.4894906444083595;0.1111451004384623;1.8458301986910939;1.3615783683191676;2.6443697578314738;0.08343947199134809;0.1111451004384623;0.6996756483419335;0.489546012882705;2.8690947487243563;1.690447903812242;0.00785153461813004;4.574886520199874e-05;0.016314877128581706;-0.0081574385642908;0.0005596437885221675;0.0550627103089629;1.1865227382260677;2.6443697578314738;0.0702630183327347;0.1111451004384623;0.681003806413446;0.46376618434960226;2.8690947487243563;1.70923823218913;0.00785153461813004;4.1035345756944596e-05;0.016314877128581706;-0.0081574385642908;0.00042324631958091393;0.0550627103089629;0.9801245529816658;2.7128008582920393;0.05734625079009693;0.1111451004384623;0.6066633114500285;0.36804037345951424;2.8690947487243563;1.70923823218913;0.00785153461813004;0.00023355315559088317;0.04486591210359969;-0.0081574385642908;0.0003003742253707625;0.05914142959110841;30.0
2.6443697578314738;-0.0295707147955541;2.8690947487243563;1.3586661536363502;2.6443697578314738;0.07613021318949602;0.1111451004384623;0.8032344191789939;0.6451855321538157;2.8690947487243563;1.70923823218913;0.00785153461813004;4.5402282889862275e-05;0.016314877128581706;-0.0081574385642908;0.0005554848007765316;0.0550627103089629;1.1119676269446013;2.6443697578314738;0.07537387202026997;0.1111451004384623;0.6437388993816262;0.41439977057706745;2.8690947487243563;1.70923823218913;0.00785153461813004;4.073208623382465e-05;0.017844396859386213;-0.0081574385642908;0.0003743522198962788;0.0550627103089629;0.9889936011799745;2.6443697578314738;0.058196637060669985;0.1111451004384623;0.6204111090015685;0.38490994417255614;2.8690947487243563;2.076167577694812;0.01498929336188437;0.00016520712363759425;0.04690527174467218;-0.0081574385642908;0.00029697771871182543;0.0550627103089629;0.0
0.516219961454508;-0.0509839910268175;1.1598565165352264;0.8733398834624444;2.6443697578314738;0.0808578612153673;0.1111451004384623;0.7206366478663316;0.5193171782480233;2.8690947487243563;1.70923823218913;0.00785153461813004;5.378524256466004e-05;0.017844396859386213;-0.0265116753339451;0.00022603665169642414;0.036708473539308596;1.0794858471323392;2.6443697578314738;0.06895453634074664;0.1111451004384623;0.6244729194919899;0.3899664271788493;2.8690947487243563;1.70923823218913;0.00785153461813004;4.1633200245379224e-05;0.017844396859386213;-0.0081574385642908;0.00035168573668256187;0.0550627103089629;0.9996914052835324;2.6443697578314738;0.059519087585742245;0.1111451004384623;0.6616437067684333;0.4377723947062726;2.8690947487243563;2.076167577694812;0.01498929336188437;8.686508016510715e-05;0.031100234526358794;-0.0081574385642908;0.00030217645339387054;0.0550627103089629;0.0
1.3944206987887564;-0.0637299887835219;1.6352682019457023;0.8735703323353581;2.6443697578314738;0.021050070927821577;-0.0168247170388498;0.7225466633525172;0.5220736807218558;2.8690947487243563;1.70923823218913;0.00785153461813004;5.3265369096455486e-05;0.017844396859386213;-0.0265116753339451;0.0002262099428524923;0.036708473539308596;0.9167969247330068;2.6443697578314738;0.0646689270641199;0.1111451004384623;0.7085051401976005;0.5019795336864215;2.8690947487243563;2.076167577694812;0.01498929336188437;7.511305159775047e-05;0.024982155603140543;-0.0173345569491179;0.00025561311975836644;0.0458855919241358;0.9431293709348822;2.6443697578314738;0.06326252995771466;0.1111451004384623;0.6096813000988566;0.37171128769023204;2.8690947487243563;2.076167577694812;0.01498929336188437;7.737161299850545e-05;0.031100234526358794;-0.0081574385642908;0.0002709147288391716;0.0550627103089629;0.0
1.5677573989114544;-0.0168247170388498;1.774889776588017;0.737213308176148;1.5677573989114544;0.041261349502794656;0.0285510349750178;0.4502038872717317;0.20268354011457812;1.774889776588017;0.9819626055584725;0.01498929336188437;0.00010663904516545243;0.024982155603140543;-0.0173345569491179;0.00017162322869101825;0.0275313551544815;0.9284984182713975;2.6443697578314738;0.043277771118855425;0.0448659121035994;0.749591893820756;0.5618880072817874;2.8690947487243563;2.076167577694812;0.01498929336188437;0.0001286860124962271;0.031100234526358794;-0.0173345569491179;0.00026018800627856654;0.0458855919241358;1.0005806245649629;2.6443697578314738;0.05908856623508338;0.1111451004384623;0.6508818071839159;0.4236471269230002;2.8690947487243563;2.076167577694812;0.01498929336188437;0.00013975642918304814;0.041806872641990345;-0.0081574385642908;0.0003121580239833971;0.0550627103089629;0.0
0.007783573761589224;0.0285510349750178;0.7929271710295445;0.7059623263027018;1.5677573989114544;0.0488533770270687;0.0448659121035994;0.47484776232261894;0.22548039738279843;1.774889776588017;0.9819626055584725;0.01498929336188437;0.00018386191658833353;0.031100234526358794;-0.0173345569491179;0.0001568934804252236;0.0275313551544815;0.6404898295097687;1.5677573989114544;0.05396088061904026;0.0693382277964719;0.40535665019448547;0.16431401385689445;1.774889776588017;0.9819626055584725;0.01498929336188437;0.00011140021967842627;0.031100234526358794;-0.0173345569491179;0.00012855604412918224;0.0275313551544815;0.8996294864790434;2.6911787305048303;0.05892567262355184;0.1111451004384623;0.7105388387612861;0.504865441388237;2.8690947487243563;2.076167577694812;0.0211073722851024;0.00020006175149477217;0.047924951565208374;-0.0173345569491179;0.0002454062706659374;0.0458855919241358;0.0
0.7800996431573519;0.0448659121035994;1.0145684262225525;0.744939718652492;1.5677573989114544;0.03630588818963196;0.0693382277964719;0.4826797170665385;0.23297970926743364;1.774889776588017;0.9819626055584725;0.01498929336188437;0.0001616806486116073;0.031100234526358794;-0.0173345569491179;0.00017259799144390205;0.0275313551544815;0.8140074836844364;2.407646809161275;0.05141923595662761;0.0693382277964719;0.5962044009866743;0.35545968775587905;2.4698833231621173;1.6769561521325729;0.01498929336188437;0.00020781941891475877;0.041806872641990345;-0.0173345569491179;0.00021693453372395003;0.0438462322830631;0.9157110860961905;2.6911787305048303;0.04445149129052645;0.0693382277964719;0.7511963166008869;0.56429590607474;2.8690947487243563;2.076167577694812;0.0211073722851024;0.00020669302640031437;0.047924951565208374;-0.0173345569491179;0.0002539321955444914;0.0458855919241358;0.0
1.5580931392480517;0.0693382277964719;1.668049887377831;1.0301779985395314;2.407646809161275;0.04535760801498863;0.0693382277964719;0.7536059358686267;0.5679219065764286;2.4698833231621173;1.6769561521325729;0.01498929336188437;0.00032838674074919127;0.041806872641990345;-0.0173345569491179;0.0003500481352577123;0.0438462322830631;0.9995634520456058;2.6911787305048303;0.047029703442806624;0.0693382277964719;0.7670116664708687;0.5883068965024191;2.729560030904898;1.9366328598753535;0.0211073722851024;0.00032779755081855776;0.047924951565208374;-0.0173345569491179;0.00030610149807882827;0.0458855919241358;0.8466671725408633;2.6911787305048303;0.04396542813673992;0.0693382277964719;0.6509355503086022;0.4237170906555628;2.729560030904898;1.9366328598753535;0.0211073722851024;0.00020523738068934164;0.047924951565208374;-0.0173345569491179;0.00022107619235396564;0.0458855919241358;30.0
2.407646809161275;-0.0367084735393086;2.4698833231621173;0.865660714965815;2.6911787305048303;0.057804095233196906;0.0693382277964719;0.7812035751302508;0.6102790257962855;2.729560030904898;1.7149916046823455;0.0211073722851024;0.0004292421935808669;0.047924951565208374;-0.0316100744366268;0.00022137945187709267;0.031610074436626896;1.0215269774875542;2.6911787305048303;0.04627032436410906;0.0693382277964719;0.8208705231716157;0.673828415812042;2.729560030904898;1.9366328598753535;0.0211073722851024;0.00033746719732716203;0.047924951565208374;-0.0173345569491179;0.0003192716259400097;0.0458855919241358;0.8570410075651936;2.6911787305048303;0.04281845900077772;0.0693382277964719;0.7439896851882704;0.5535206516665416;2.729560030904898;2.298030822123507;0.0211073722851024;0.0002646184835020353;0.047924951565208374;-0.0173345569491179;0.00022853926480863497;0.0458855919241358;0.0
2.6911787305048303;-0.0458855919241358;2.729560030904898;0.7897488090284179;2.6911787305048303;0.05232176447700307;0.0693382277964719;0.7799848118783488;0.6083763067609032;2.729560030904898;1.7120024963750162;0.0211073722851024;0.00039516882001896137;0.047924951565208374;-0.0346691138982359;0.0001857681193050823;0.0285510349750178;0.7745937394984848;2.6911787305048303;0.04558626485652827;0.0693382277964719;0.7254830858970889;0.5263257079227628;2.729560030904898;1.7149916046823455;0.0211073722851024;0.0002675962032004746;0.047924951565208374;-0.0316100744366268;0.0001795296376866328;0.031610074436626896;0.8618897548636728;2.6911787305048303;0.03911819413943261;0.0693382277964719;0.7556687452186557;0.5710352525003376;2.729560030904898;2.298030822123507;0.025186091567248048;0.0003273932047877323;0.05200367084735402;-0.0173345569491179;0.00023225636010629715;0.0458855919241358;0.0
0.9668965930850275;-0.0081574385642908;1.0175575345298817;0.7550818032996389;2.6911787305048303;0.019212239911712763;-0.0081574385642908;0.7533421989867749;0.5675244687742296;2.729560030904898;1.7120024963750162;0.0211073722851024;0.0004106133943035369;0.047924951565208374;-0.0346691138982359;0.00016939210505663988;0.0285510349750178;0.8691808043063051;2.6911787305048303;0.04268875492694675;0.0693382277964719;0.8792495237075915;0.7730797249400265;2.729560030904898;2.298030822123507;0.0211073722851024;0.00036541039624315356;0.047924951565208374;-0.0244723156928724;0.00023557199755908017;0.038747833180381296;0.9718338357541233;2.6911787305048303;0.040065473785223724;0.0693382277964719;0.7931723450208229;0.6291223689058314;2.729560030904898;2.298030822123507;0.025186091567248048;0.0003579040009994688;0.05200367084735402;-0.0152951973080452;0.00029557694853360776;0.0479249515652085;0.0
2.051991275812011;-0.0091771183848271;2.0784974127639186;1.0245199179847368;2.6911787305048303;0.01964924160673612;-0.0081574385642908;1.0334935747462266;1.0681089690417345;2.729560030904898;2.298030822123507;0.0211073722851024;0.00034684224887044913;0.034669113898235904;-0.0244723156928724;0.0003128771822810882;0.038747833180381296;0.9024638148767575;2.6911787305048303;0.01591049090331249;-0.0081574385642908;0.9142829345660478;0.835913284438704;2.729560030904898;2.298030822123507;0.025186091567248048;0.0004861856674648695;0.05200367084735402;-0.0244723156928724;0.000257718607304593;0.038747833180381296;0.9762969498434524;2.6911787305048303;0.038205727561940024;0.0693382277964719;0.7937422211432166;0.6300267136253669;2.729560030904898;2.298030822123507;0.04150096869582964;0.0004972763014532333;0.06831854797593562;-0.0152951973080452;0.0003004175481597785;0.0479249515652085;0.0
0.42948992807692754;-0.0387478331803813;0.4315292087813911;0.6753808866120722;2.051991275812011;0.015382752471878666;-0.0081574385642908;0.6820718906374782;0.46522206399778404;2.0784974127639186;1.6469682039825275;0.025186091567248048;0.00039605693719381376;0.03874783318038155;-0.0244723156928724;0.0001514564704035846;0.029570714795554197;1.0311497006797092;2.6911787305048303;0.015630287003920076;-0.0081574385642908;0.8840636672009246;0.781568567664747;2.729560030904898;2.298030822123507;0.025186091567248048;0.0002943523576974017;0.03874783318038155;-0.0152951973080452;0.0003216630438937516;0.0479249515652085;1.4478071569384883;2.6911787305048303;0.03573828670606457;0.0693382277964719;0.8271016617461293;0.6840971588632084;2.729560030904898;2.298030822123507;0.04150096869582964;0.00043803671975132727;0.06831854797593562;0.020393596410727;0.0006462720374406392;0.08361374528398069;0.0
1.095681696900662;-0.0305903946160905;1.1265474826814863;0.9304126279586568;2.051991275812011;0.01301840046375407;-0.0091771183848271;0.7285832608221757;0.5308335679502746;2.0784974127639186;1.6469682039825275;0.025186091567248048;0.0003135703469053628;0.03874783318038155;-0.0152951973080452;0.00027821895106745477;0.0387478331803814;0.8122218822069864;2.051991275812011;0.013450500620243638;-0.0081574385642908;0.5760708603994034;0.3318576362013089;2.0784974127639186;1.6469682039825275;0.04150096869582964;0.0004510075627830332;0.05506271030896315;-0.0152951973080452;0.00021325209665750414;0.0387478331803814;1.6313476250574686;2.6911787305048303;0.021555840074638673;0.0275313551544814;0.8297529890453493;0.6884900228296916;2.729560030904898;2.298030822123507;0.04150096869582964;0.0006340607873097127;0.07749566636076288;0.020393596410727;0.0008209495227573577;0.08361374528398069;0.0
-0.10721210263268555;-0.0336494340776996;0.6641691559612872;0.5513564320967933;1.095681696900662;0.010576362382312913;-0.0142755174875089;0.2897553876429678;0.08395818466812655;1.1265474826814863;0.6950182739000952;0.04150096869582964;0.00010770045349637204;0.022432956051799846;-0.0152951973080452;8.907165421904268e-05;0.0203935964107271;1.421053288879113;2.051991275812011;0.024433338549098425;0.0275313551544814;0.7761628719965652;0.6024288038659564;2.2915362683763076;1.8600070595949165;0.04150096869582964;0.00033039691815958384;0.05506271030896315;0.020393596410727;0.0006175057055333423;0.07443662689915359;1.6527898249773327;2.6911787305048303;0.021140774168168334;0.0275313551544814;0.7753358571922964;0.601145691448113;2.729560030904898;2.298030822123507;0.04150096869582964;0.0006489869322190523;0.07749566636076288;0.020393596410727;0.0008287476247804242;0.08361374528398069;0.0
-0.02495497219123677;-0.0142755174875089;0.7862492820478718;1.3659943926249087;1.095681696900662;0.028166059583834176;0.0275313551544814;0.7425132793500981;0.551325970011237;2.2915362683763076;1.6273671124150204;0.04150096869582964;0.0001677458390739955;0.03059039461609081;0.020393596410727;0.000546560306239022;0.0560823901294993;1.2610412952883834;1.095681696900662;0.024518476399611338;0.0275313551544814;0.7170833158713529;0.5142084819010544;2.2915362683763076;1.8600070595949165;0.04150096869582964;0.0006902879910819687;0.07749566636076288;0.020393596410727;0.0004710746786557374;0.0560823901294993;1.445813889157335;2.051991275812011;0.021093177926028654;0.0275313551544814;0.6398477813635464;0.4094051833158526;2.2915362683763076;1.8600070595949165;0.04150096869582964;0.0006608747055253299;0.07749566636076288;0.020393596410727;0.0006414198850707274;0.07443662689915359;0.0
-2.180731721809794;0.0275313551544814;2.2915362683763076;1.0953624443662655;-0.02495497219123677;0.02765186367600393;0.0275313551544814;0.7853018282864968;0.6166989615101145;2.2915362683763076;1.6273671124150204;0.04150096869582964;0.0010619282043857763;0.07749566636076288;0.020393596410727;0.00035516022436172314;0.0367084735393086;1.3003333647137982;1.095681696900662;0.022774307775865497;0.0275313551544814;0.6567163506966099;0.43127636527227275;2.2915362683763076;1.6273671124150204;0.04150096869582964;0.0009597903969991949;0.07749566636076288;0.020393596410727;0.000502163112054369;0.0560823901294993;1.5076086339531636;2.051991275812011;0.02119644055382933;0.0275313551544814;0.7057078285937752;0.4980235393385413;2.4008455471929153;1.9693163384115242;0.04150096869582964;0.0006467225944464288;0.07749566636076288;0.023452635872336;0.0006934418901223924;0.0774956663607626;30.0
-1.6764426214381523;-0.0280411950647496;1.7727490498633374;0.9619837863966655;-0.02495497219123677;0.023776894988158253;0.0275313551544814;0.6382501967366451;0.4073633136343661;2.2915362683763076;1.5052869863284357;0.04150096869582964;0.0013103410766095048;0.07749566636076288;0.020393596410727;0.0002719804694490002;0.0367084735393086;0.9204126339587687;-0.02495497219123677;0.023735589584744598;0.0275313551544814;0.6407505761686839;0.41056130086050047;2.2915362683763076;1.6273671124150204;0.04150096869582964;0.000951853662051272;0.07749566636076288;0.020393596410727;0.00025179204976707244;0.0367084735393086;1.2190408434684294;1.095681696900662;0.02116644255279696;0.0275313551544814;0.7021362744818218;0.49299534794321226;2.4008455471929153;1.9693163384115242;0.04150096869582964;0.0006467225944464288;0.07749566636076288;0.023452635872336;0.0004418808952300922;0.059141429591108303;30.0
-1.8516661961099825;-0.0101967982053635;1.881889048829598;0.3197493134694365;-1.4190452526463146;0.02464651062934612;0.0275313551544814;0.3409542118283888;0.11624977456351782;2.2915362683763076;0.8247495563238894;0.024166411746711636;0.0008699216034622372;0.060161109411644875;0.020393596410727;3.0845825780136884e-05;0.013255837666972602;0.8321069080607794;-0.02495497219123677;0.020032881065400444;0.0275313551544814;0.5902762707008136;0.3484260757524601;2.4008455471929153;1.6145962651450434;0.04150096869582964;0.0009127938354735052;0.07749566636076288;0.023452635872336;0.00020437958946682198;0.039767513000917604;1.114509675179167;1.095681696900662;0.024235665563527277;0.0367084735393086;0.5995435605530561;0.35945248100063615;2.4008455471929153;1.736676391231628;0.04150096869582964;0.0006787121418566142;0.07749566636076288;0.023452635872336;0.00036880979108801205;0.059141429591108303;30.0
-1.4190452526463146;0.0132558376669725;1.4667867120524183;0.38742368471937705;-1.4190452526463146;0.0169880769670093;0.0132558376669725;0.3888145880093116;0.15117678384885075;2.4008455471929153;0.934058835140497;0.024166411746711636;0.0007412529200816197;0.060161109411644875;0.023452635872336;4.670196656037458e-05;0.016314877128581602;0.33463462071277744;-1.4190452526463146;0.019719010130926223;0.0275313551544814;0.3445199507023588;0.11869399643195575;2.4008455471929153;0.934058835140497;0.024166411746711636;0.0005309987604241012;0.060161109411644875;0.023452635872336;3.386109189574043e-05;0.016314877128581602;0.8016698070988131;-0.02495497219123677;0.023145271986117388;0.0367084735393086;0.5877792858168132;0.3454844888353229;2.4008455471929153;1.736676391231628;0.04150096869582964;0.0007084720097253881;0.07749566636076288;0.023452635872336;0.00019234163049192067;0.039767513000917604;30.0
-2.3376106952632165;-0.0050983991026817;2.4008455471929153;0.3765149459095655;-1.4190452526463146;0.01136611441297424;0.0132558376669725;0.386977496771929;0.1497515830078683;2.4008455471929153;0.934058835140497;0.024166411746711636;0.0004972589723376293;0.053023350667890434;0.023452635872336;4.462247268755655e-05;0.016314877128581602;0.4667618809064744;-0.9427413311643997;0.02263539919217167;0.0367084735393086;0.36993706171159313;0.13685342962780706;2.4008455471929153;0.9914509985207436;0.024166411746711636;0.00045613698100265075;0.060161109411644875;0.023452635872336;6.806876610359662e-05;0.024472315692872303;0.7073371163860781;-0.02495497219123677;0.020529173869002475;0.0367084735393086;0.5417411565107647;0.2934834806576209;2.63339106190726;1.8471417798593879;0.04150096869582964;0.0007370650504766375;0.0785153461812993;0.0244723156928724;0.00015134094296619062;0.040787192821454;30.0
-1.8068800557945488;-0.0112164780258998;2.038840967132594;0.5912638315859409;-0.9427413311643997;0.021540359105004087;0.0367084735393086;0.4755024562539028;0.22610258590349477;2.4008455471929153;0.9914509985207436;0.024166411746711636;0.00037638839098007624;0.04384623228306317;0.023452635872336;0.00010839361812064374;0.024472315692872303;0.4667683149132697;-0.9427413311643997;0.018601821965520723;0.0367084735393086;0.3732994514565294;0.13935248045774573;2.4008455471929153;0.9914509985207436;0.024166411746711636;0.00042147874978901563;0.05608239012949945;0.023452635872336;6.806876610359662e-05;0.024472315692872303;0.6276244462309245;-0.9427413311643997;0.02133652782752694;0.0367084735393086;0.6011060942037871;0.3613285364889322;3.4413800436950166;2.0319854950228446;0.024166411746711636;0.00045546692186585234;0.06118078923218129;0.040787192821454;0.0001280506115906275;0.0418068726419903;30.0
-0.9427413311643997;0.0367084735393086;1.4093945486721717;0.5749085974563874;-0.9427413311643997;0.021540359105004087;0.0367084735393086;0.40990009612356426;0.16801808880210722;2.4008455471929153;0.9914509985207436;-0.004384623228306239;0.00013334754459446078;0.027531355154481574;0.023452635872336;0.00010189519976808714;0.024472315692872303;0.543441388103588;-0.9427413311643997;0.018601821965520723;0.0367084735393086;0.48909788665694093;0.23921674273228585;2.63339106190726;1.223996513235088;0.024166411746711636;0.0004863589586209407;0.06118078923218129;0.0244723156928724;9.458231298202767e-05;0.0254919955134087;0.7311994729831738;-0.9427413311643997;0.024025910879856904;0.0367084735393086;0.6977695369397102;0.4868823266810577;3.4413800436950166;2.0319854950228446;0.024166411746711636;0.00038650859449445804;0.06118078923218129;0.040787192821454;0.00017587897066544329;0.0418068726419903;30.0
-1.6793087146750878;0.0132558376669725;1.979039193124207;0.580240768211549;-0.9427413311643997;0.022724604398826297;0.0367084735393086;0.5003421924566736;0.25034230955235093;2.63339106190726;1.223996513235088;-0.013561741613133504;0.00011671159361191616;0.023452635872336147;0.0244723156928724;0.0001097799473691894;0.0254919955134087;0.7809965684517107;-0.9427413311643997;0.020607667786978465;0.0367084735393086;0.690898160354682;0.4773402679814838;3.4413800436950166;2.0319854950228446;-0.004384623228306239;0.00017277128259997055;0.03262975425716341;0.040787192821454;0.0001986609813165741;0.0418068726419903;0.958834102845028;-0.08311515313345696;0.022124676379952798;0.0367084735393086;0.8792675778459386;0.7731114734510636;3.4413800436950166;2.9292112221310425;0.024166411746711636;0.00046964502661816284;0.06118078923218129;0.040787192821454;0.0002951754906887087;0.056592230039767405;30.0
-2.351796552314717;-0.0101967982053635;2.63339106190726;0.9846571241362466;-0.9427413311643997;0.020526465467421675;0.0367084735393086;0.8742182633390364;0.7642575719555208;3.4413800436950166;2.0319854950228446;-0.019679820536351533;6.030532231172538e-05;0.01733455694911812;0.040787192821454;0.0003170361700267253;0.0418068726419903;0.8971883383979486;-0.9427413311643997;0.02854329528447472;0.0367084735393086;0.7908332554459719;0.625417237919274;3.4413800436950166;2.0319854950228446;-0.013561741613133504;9.957309827677329e-05;0.023452635872336147;0.040787192821454;0.00026468491177854893;0.0418068726419903;1.036137716879785;-0.08311515313345696;0.025785111108130462;0.0367084735393086;0.9871018814922455;0.9743701244455311;3.4413800436950166;2.9292112221310425;0.024166411746711636;0.0004948069024792614;0.06118078923218129;0.040787192821454;0.0003441822296247885;0.056592230039767405;30.0
-3.255966923317477;0.0280411950647496;3.4413800436950166;0.7369202177408387;-1.6793087146750878;0.029601099122569936;0.0280411950647496;0.6611840667457836;0.4371643701184928;3.4413800436950166;1.4623408505708095;-0.03191597838278781;5.805253728284059e-06;0.005098399102681839;0.040787192821454;0.00017848989075022138;0.028551034975017802;1.2523406110247548;-0.08311515313345696;0.02771704084279975;0.0367084735393086;1.1269786171724088;1.270080803563835;3.4413800436950166;2.9292112221310425;0.012440093810543229;0.00037310452357257963;0.04945447129601288;0.040787192821454;0.0005034194729358673;0.056592230039767405;1.0668326858160717;-0.08311515313345696;0.02558360210114076;0.0367084735393086;0.9928287462799471;0.9857089194398115;3.4413800436950166;2.9292112221310425;0.012440093810543229;0.0003401849802914974;0.04945447129601288;0.040787192821454;0.0003643764256785993;0.056592230039767405;30.0
-3.1382795752647303;-0.0397675130009177;3.248327559665868;1.4718996571859024;-0.08311515313345696;0.028285778539166233;0.0280411950647496;1.3427176784862067;1.802890764119388;3.4413800436950166;2.9292112221310425;0.012440093810543229;0.0005956666875898358;0.04945447129601288;0.040787192821454;0.0006895904941787907;0.056592230039767405;1.3025608200901775;-0.08311515313345696;0.028188199814883377;0.0280411950647496;1.2598132220521419;1.5871293544573994;3.4413800436950166;2.9292112221310425;0.012440093810543229;0.000521996284866355;0.04945447129601288;0.040787192821454;0.0005436230211436837;0.056592230039767405;1.390428941206378;1.017916399405708;0.02797447601046598;0.0367084735393086;1.0417581895128774;1.0852601254171481;3.4413800436950166;2.9292112221310425;0.012440093810543229;0.00035224604475384214;0.05353319057815831;0.040787192821454;0.0006288418353261093;0.0774956663607626;30.0
-0.08311515313345696;0.0035688793718772;0.512168821563974;1.6516733146929106;-0.08311515313345696;0.03388805823979571;0.0280411950647496;1.5887762089274473;2.5242098420538714;3.4413800436950166;2.9292112221310425;0.012440093810543229;0.0006738209989765833;0.04945447129601288;0.040787192821454;0.0008741455753913958;0.056592230039767405;1.3400480574646298;-0.08311515313345696;0.026300360806683305;0.0280411950647496;1.2822582671303204;1.6441862636240523;3.4413800436950166;2.9292112221310425;0.012440093810543229;0.000526779120773837;0.04945447129601288;0.040787192821454;0.0005741915810741103;0.056592230039767405;1.6208842485638768;1.1179276958171012;0.030578165455290362;0.0367084735393086;1.0733258002093808;1.152028273395108;3.4413800436950166;2.9292112221310425;0.012440093810543229;0.0003430269552510153;0.05353319057815831;0.040787192821454;0.0008515556291049275;0.078515346181299;30.0
-0.6480717121069068;-0.040787192821454;0.6861412580170148;1.50200568741916;-0.08311515313345696;0.02131340198650153;0.0035688793718772;1.3917555597139701;1.9369835379947464;3.248327559665868;2.736158738101894;0.012440093810543229;0.0006459211228496088;0.04945447129601288;0.0387478331803813;0.0007207829022710619;0.054552870398694706;1.803603962461861;1.017916399405708;0.028483583596169516;0.0280411950647496;1.3417194803922672;1.8002111640640952;3.4413800436950166;2.9292112221310425;0.012440093810543229;0.000556030667918145;0.05353319057815831;0.040787192821454;0.001058713653440722;0.0774956663607626;1.7753597174860685;1.1179276958171012;0.027423142449455366;0.032119914346895;1.097706707428574;1.2049600155336808;3.4413800436950166;2.9292112221310425;0.012440093810543229;0.00035224604475384214;0.05353319057815831;0.040787192821454;0.0010177071895430935;0.078515346181299;0.0
-2.6961331609327512;-0.0152951973080452;2.702635451051351;1.5578710292365894;1.017916399405708;0.02131340198650153;0.0035688793718772;1.003827287128472;1.0076692223837076;2.702635451051351;2.1904666294873767;0.012440093810543229;0.0007148910029647423;0.05353319057815831;0.0305903946160905;0.0007913124027908083;0.06729886815539911;1.819906496233568;1.1179276958171012;0.029801294851891785;0.032119914346895;1.1388130228651567;1.2968951010472762;3.248327559665868;2.736158738101894;0.012440093810543229;0.0005123612965889658;0.05353319057815831;0.0387478331803813;0.0010747257562614188;0.0764759865402263;1.7831796667806934;1.1179276958171012;0.026532855732864926;0.032119914346895;1.207471541339306;1.4579875231443191;3.4413800436950166;3.215179914726733;0.012440093810543229;0.0003429114278136366;0.05353319057815831;0.040787192821454;0.0010276887601326204;0.078515346181299;0.0
1.017916399405708;-0.0397675130009177;1.021935973177051;1.7897870592547214;1.1179276958171012;0.0341335820919788;0.032119914346895;0.8976208459874593;0.8057231831512421;2.702635451051351;2.016494193034336;0.004792495156520804;0.0004023820643903019;0.04588559192413588;0.0305903946160905;0.001040006873143147;0.0683185479759355;1.4834321050087944;1.1179276958171012;0.028340251412871633;0.032119914346895;0.7817911592884573;0.61119741674159;2.702635451051351;2.1904666294873767;0.012440093810543229;0.0004342416434334328;0.05353319057815831;0.0305903946160905;0.0007103984297436871;0.0683185479759355;1.878192564017343;1.696971915554467;0.02760788214065783;0.032119914346895;1.1594683509815649;1.3443668569279092;3.4413800436950166;3.215179914726733;0.012440093810543229;0.0003808044272738773;0.05353319057815831;0.040787192821454;0.0011287752678390559;0.0876924645661261;0.0
1.1179276958171012;0.032119914346895;1.1384069532501397;1.8740761670446011;1.1179276958171012;0.030412495526006538;0.032119914346895;0.8204034531370243;0.6730618259191536;2.702635451051351;1.6806994778742999;-0.013561741613133504;0.0001559620404613582;0.027531355154481574;0.0305903946160905;0.0011329775783737223;0.0683185479759355;1.4839474000881212;1.1179276958171012;0.027667761336496944;0.032119914346895;0.837574204164328;0.7015305474815074;2.702635451051351;2.4764353220830673;0.004792495156520804;0.00025522321465720765;0.04588559192413588;0.0305903946160905;0.0007106670310355929;0.0683185479759355;1.6821502151223056;1.696971915554467;0.026000169226794413;0.032119914346895;0.9555105870262031;0.9130004819191593;3.248327559665868;3.0221274306975845;0.012440093810543229;0.0003533551081526791;0.05353319057815831;0.0387478331803813;0.0009023414905766432;0.0856531049250534;0.0
1.0166075599595819;0.0040787192821454;1.035073034690241;0.5993295946190295;1.1179276958171012;0.0297878448910386;0.032119914346895;0.42269060512640116;0.1786673476621232;1.1384069532501397;0.9122068242818564;-0.013561741613133504;0.0001395860262129156;0.027531355154481574;-0.0152951973080452;0.000115325264363371;0.0224329560517998;1.6010116185878047;1.696971915554467;0.026084179142013806;0.032119914346895;0.8318294738342203;0.6919402735393159;2.702635451051351;2.4764353220830673;0.004792495156520804;0.00025522321465720765;0.04588559192413588;0.0305903946160905;0.00081325539542795;0.0774956663607626;1.375079652289549;1.822162845468689;0.02737164562362197;0.032119914346895;0.720465463120207;0.5190704835490143;2.702635451051351;2.4764353220830673;0.012440093810543229;0.0003353790388965404;0.05353319057815831;0.0305903946160905;0.0006044655460391913;0.081574385642908;0.0
-0.14407820696508578;-0.0081574385642908;0.22620012896828337;0.7712419387225208;1.696971915554467;0.026921526681461177;0.032119914346895;0.6100369641738546;0.3721450976584528;1.707204739248261;1.4810046102799777;0.004792495156520804;0.000159081281270583;0.028551034975017764;-0.0152951973080452;0.00017771008054791345;0.0316100744366269;0.6178839740899513;1.696971915554467;0.03024243257501638;0.032119914346895;0.4890688377204287;0.23918832802921103;1.707204739248261;1.4810046102799777;0.004792495156520804;0.00024222637795209473;0.04588559192413588;-0.0152951973080452;0.0001145454541610699;0.0316100744366269;1.44508939196876;2.02119736653654;0.03218992978438619;0.032119914346895;0.7145618338895796;0.5105986144516392;2.702635451051351;2.4764353220830673;0.004792495156520804;0.00024357804896942654;0.04588559192413588;0.0305903946160905;0.0006679334319491607;0.0846334251045171;0.0
1.696971915554467;-0.0326297542571632;1.707204739248261;0.7940333282647678;1.696971915554467;0.023095241466108054;0.0040787192821454;0.6295853364659914;0.3963776958929956;1.707204739248261;1.4810046102799777;0.004792495156520804;0.00014244533028803875;0.028551034975017764;-0.0152951973080452;0.00018784761317790146;0.0316100744366269;0.702998939411247;1.822162845468689;0.03255385384830979;0.032119914346895;0.5740629760346886;0.32954830045380346;1.8275985194064377;1.6013983904381544;0.004792495156520804;0.00017401897892366062;0.03772815335984503;-0.0152951973080452;0.00015530353406830374;0.0356887937187723;1.3926192840993232;2.02119736653654;0.03188486062568289;0.032119914346895;0.6740174272908379;0.45429949229176003;2.702635451051351;2.4764353220830673;0.004792495156520804;0.00022435428338959796;0.04588559192413588;0.0305903946160905;0.0006178869460766724;0.0846334251045171;0.0
1.3158950380272878;-0.0469052717446721;1.3346098134253557;0.9038939260393148;1.822162845468689;0.019638214476619783;-0.0081574385642908;0.7293137753190423;0.5318985828701145;1.8275985194064377;1.6013983904381544;0.004792495156520804;0.0002823779388130906;0.03772815335984503;-0.0152951973080452;0.0002567308477150005;0.0356887937187723;0.7893600238956868;2.02119736653654;0.031127803810092194;0.0040787192821454;0.659756113185543;0.43527812888569495;2.0274334315007354;1.801233302532452;0.004792495156520804;0.00017592518164041065;0.03772815335984503;-0.0152951973080452;0.00019855700662291953;0.0387478331803814;0.6117966904243143;2.02119736653654;0.03303445264668262;0.032119914346895;0.520266798393395;0.27067754151051343;2.0274334315007354;1.801233302532452;0.004792495156520804;0.00020868876288103463;0.04588559192413588;-0.0152951973080452;0.00011794196081999188;0.0387478331803814;0.0
