acc_X_std;acc_X_kurt;acc_X_var;acc_X_iqr;acc_Y_std;acc_Y_kurt;acc_Y_var;acc_Y_iqr;acc_Z_std;acc_Z_kurt;acc_Z_iqr;acc_Z_range;acc_std;acc_var;acc_iqr;acc_kurt;acc_cv;hole
1.3640518561507966;-0.7025534700906475;1.8606374662684335;1.4030357029550438;0.8930512418370882;-0.8258355878193241;0.7975405205467654;1.2876752701276082;0.05090700372271571;0.8745383433352123;0.039512593045783626;0.174365249311716;0.8063911753526092;0.6502667276865625;0.4443524516325361;1.078183438255941;0.45309571044384944;1
1.3640518561507966;-0.7025534700906475;1.8606374662684335;1.4030357029550438;0.8930512418370882;-0.8258355878193241;0.7975405205467654;1.2876752701276082;0.05090700372271571;0.8745383433352123;0.039512593045783626;0.174365249311716;0.8063911753526092;0.6502667276865625;0.4443524516325361;1.078183438255941;0.45309571044384944;1
1.3640518561507966;-0.7025534700906475;1.8606374662684335;1.4030357029550438;0.8930512418370882;-0.8258355878193241;0.7975405205467654;1.2876752701276082;0.05090700372271571;0.8745383433352123;0.039512593045783626;0.174365249311716;0.8063911753526092;0.6502667276865625;0.4443524516325361;1.078183438255941;0.45309571044384944;0
1.3640518561507966;-0.7025534700906475;1.8606374662684335;1.4030357029550438;0.8930512418370882;-0.8258355878193241;0.7975405205467654;1.2876752701276082;0.05090700372271571;0.8745383433352123;0.039512593045783626;0.174365249311716;0.8063911753526092;0.6502667276865625;0.4443524516325361;1.078183438255941;0.45309571044384944;0
1.3640518561507966;-0.7025534700906475;1.8606374662684335;1.4030357029550438;0.8930512418370882;-0.8258355878193241;0.7975405205467654;1.2876752701276082;0.05090700372271571;0.8745383433352123;0.039512593045783626;0.174365249311716;0.8063911753526092;0.6502667276865625;0.4443524516325361;1.078183438255941;0.45309571044384944;1
1.3640518561507966;-0.7025534700906475;1.8606374662684335;1.4030357029550438;0.8930512418370882;-0.8258355878193241;0.7975405205467654;1.2876752701276082;0.05090700372271571;0.8745383433352123;0.039512593045783626;0.174365249311716;0.8063911753526092;0.6502667276865625;0.4443524516325361;1.078183438255941;0.45309571044384944;1
1.7035273293572273;-0.6705339117306158;2.9020053618669674;2.344784241702036;0.7636594887005098;-0.7450075681044994;0.5831758146823242;1.094070232733613;0.05080810443634789;0.971350735978095;0.03607117365147343;0.174365249311716;0.9219487215031225;0.849989445081242;1.026124705126517;0.18974185515982;0.47943688505990484;1
1.7040398774875447;-0.7944438443904117;2.903751904067766;2.418478795414892;0.6414893122960409;-0.6321934558742051;0.4115085377900475;0.9107861674111705;0.04574693887357474;3.4766505411000943;0.03607117365147343;0.174365249311716;0.8670851256332055;0.7518366150943517;0.9362222164014145;1.6217352472538349;0.42924282394774793;0
2.0172402575482877;-1.2211170703936542;4.069258256673482;2.685274508405274;0.5266885431603598;-0.4676966864993116;0.2774008214963823;0.7378230741602823;0.04591481973133987;3.595839339014224;0.03607117365147343;0.174365249311716;0.7272034860602671;0.5288249101382051;1.0842857636792567;-0.9875062419358477;0.3064159234453008;1
1.979148432589056;-1.0070467931144944;3.917028518219717;2.3216527990589553;0.41952844683255675;-0.21505801236447805;0.17600411770173738;0.5751809529809473;0.04516365045637612;3.3034060386260293;0.03301213418986438;0.174365249311716;0.6745067106151496;0.4549593026648691;1.003532697607159;-0.8214032807936168;0.27490578409203276;0
1.797549889836343;-0.42477731170423844;3.2311856064506483;2.4999004276277916;0.3362060774601095;0.00648568092386727;0.11303452652111316;0.42285980387316546;0.026485571316282836;1.1480378606141244;0.03301213418986437;0.0907515040277353;0.7286222243949549;0.5308903458822521;1.2191152097103362;-1.5071453635583565;0.2903691458751664;0
1.9689308184239271;0.6111073837303199;3.8766885677395155;2.111084787000513;0.2518053981675358;0.42259786077324335;0.06340595854631122;0.28085962683699517;0.026967966404103375;1.5539985243396817;0.0322473743244621;0.0907515040277353;0.9817189872849686;0.9637721699958244;1.2981325422135743;0.5935841960848498;0.34679320603221214;0
1.9682125641591923;0.6522626635801042;3.8738606977141026;2.1044575473927805;0.18296121957586461;0.8655328362819635;0.03347480786868774;0.17545167601089662;0.026090489736860036;3.234937188008819;0.023835015805037198;0.0907515040277353;0.9253164538952894;0.8562105398493531;1.1402418312444071;1.0447704487092477;0.3191205031887055;0
1.4622865870528376;-0.15815389322262316;2.138282062674636;1.8114926330660026;0.13289892086069158;0.9539174719100367;0.017662123165936364;0.11678595143804515;0.026862806397345906;1.955909151267822;0.0322473743244621;0.0907515040277353;0.9498288614929853;0.9021748661250607;1.1873173763267584;1.0912288331269886;0.3361548401315328;0
1.4563407602986402;-0.21347616755876533;2.120928410107221;1.7990524608097305;0.15698130849709568;2.7370316912323815;0.02464313121746033;0.11678595143804515;0.032502444232165084;4.024684695222862;0.0322473743244621;0.1121647802589987;0.9213339747089108;0.8488562929529198;1.0686546744380392;1.2854381039128344;0.32046690566082825;1
1.2332554345183537;0.3242943807370559;1.5209189667690532;1.2638095728017444;0.25119179716721163;2.4886654246723174;0.06309731896409358;0.11678595143804515;0.032179161190115595;3.989596864100544;0.0322473743244621;0.1121647802589987;0.860621951165218;0.7406701428274268;0.9015915857400763;1.8529911787003297;0.2917779534466782;1
1.3168493315988827;-0.5641577519512287;1.7340921621324243;1.6328257536625137;0.3466363971324139;0.15849221985282977;0.12015679181694056;0.35325504490336;0.03358396668628232;3.3618585838405752;0.034159273987967774;0.1152238197206078;0.8950594255520049;0.801131375269485;1.1751377315596225;0.6370651891447017;0.2978856078360736;1
1.1795293483172544;-0.6938896592278202;1.3912894835417267;1.773289855381826;0.4556969238705619;-0.625545656470974;0.20765968642509267;0.6409209608066546;0.0324351515449851;3.871282104730444;0.031100234526358725;0.1152238197206078;0.8341378863172099;0.6957860133897424;1.115175154003281;0.41046975895813836;0.26400173113953146;1
1.1696467009728806;-0.4493537159302307;1.3680734050967431;1.68059567107856;0.5153563324150333;-1.6785097527770216;0.2655921493602743;0.8398404581504133;0.034648447559239376;3.4510452266665306;0.03211991434689505;0.11828285918221682;0.868777881701501;0.7547750077337473;1.0790311004427253;1.036943957639777;0.28902675413454737;1
1.109257452777913;0.04857525390903409;1.2304520965433439;1.2557376717263404;0.55741666806847;-1.9631449754857628;0.31071334184055494;1.0944888714085845;0.034229800903534585;3.5602350404852126;0.029060874885285998;0.11828285918221682;0.8665651726457035;0.7509351984424779;1.0571172078037407;1.0572853196814285;0.2880106655919666;0
1.2422614307888125;-0.9313786702458364;1.5432134624254674;1.5557358347682537;0.5785105638730135;-1.6293917387507537;0.334674472512672;1.0380009153844498;0.03369043661787132;4.807048447526215;0.01453043744264295;0.11828285918221682;0.9494809024897158;0.9015139841926852;1.2482576383247097;-0.5534373691494565;0.30653025327920563;0
1.1806635854218912;-0.9727051924642127;1.3939665019412755;1.5557358347682537;0.6002585584569345;-0.8939142943634028;0.36031033700079707;0.7321988883337069;0.03338506409841902;4.794660488828062;0.0135107576221066;0.11828285918221682;0.7989475977758362;0.6383172639917795;1.2482576383247097;-1.5920040163688445;0.26513517210112947;0
1.1165037728223728;-0.1896204306861295;1.2465806747265924;1.4258280336756535;0.5884586534887003;0.04839748498339956;0.34628358686573424;0.6796676257232087;0.03381639157115796;4.826270128479597;0.01605995717344747;0.11828285918221682;0.7794586333140702;0.6075557610478381;1.2215211232179475;-1.5903189928171584;0.2530095082883048;0
0.9872372961845537;-1.3300421659157888;0.9746374789777883;1.4258280336756535;0.5347599430857923;-0.6003451918480245;0.2859681967291199;0.6898050411418953;0.035145852005573644;6.007862369177731;0.02421739573773838;0.1264402977465076;0.9333430049387835;0.8711291648681581;1.2215211232179475;-0.522554090086545;0.3123281424778168;0
0.9703798842942113;-1.1809772732490025;0.9416371198428468;1.2670810063807858;0.5250428581001396;-1.0838129006041892;0.2756700028419633;0.6685439472106873;0.019059498264483346;-0.4295914104426097;0.026511675333945123;0.058121749770571995;0.9541214430440952;0.9103477280765466;1.3819996394697522;-0.8467969044804333;0.32289768624810733;0
1.0048497547524957;-1.130959935598823;1.0097230296261508;1.5876686663135229;0.5280687092212941;-1.4191668501172867;0.27885656165864364;0.9052718012091159;0.02075437424416335;-1.194795585599266;0.028551034975017847;0.0571020699500357;0.9978839912480613;0.9957724599891608;1.6075727690407744;-0.9240835813571506;0.3229629457227982;0
1.2296918820590796;-0.718459691399042;1.5121421248020013;1.73469557276707;0.5127820291030567;-1.7781077359511974;0.2629454093710481;0.9117671984516199;0.022457661958022547;-1.856793586891626;0.0397675130009177;0.0571020699500357;1.2085523471471615;1.460598775794913;1.7116817478426727;-0.5745020172328787;0.3725000165314227;0
1.7071859683179587;0.21070196352842835;2.914483930421726;1.8962272445484376;0.4882557711230136;-1.5013808246678002;0.23839369803492863;0.7977986818310524;0.022086525401970973;-1.756030220170236;0.03925767309064952;0.0571020699500357;1.6815666888069412;2.82766652890514;1.8905656011746208;0.30584255950858974;0.46948475608491075;0
2.04429379632494;-0.4134429053077352;4.179137125692635;2.4967537952924026;0.41130709958298184;-0.8879105472487089;0.16917353016736494;0.5916160924554362;0.022776400172232772;-2.009399990193636;0.0397675130009177;0.0571020699500357;2.031921119781893;4.1287034370157025;2.4172200505318577;-0.39312798729839216;0.49123363115752805;0
2.1919524328467306;-1.0664019457125977;4.8046554678627;3.135827091580369;0.330729919183548;-1.0684111717826223;0.10938227944315619;0.4728524905676962;0.021943789821689944;-1.8126009681065456;0.036198633629040466;0.0571020699500357;2.1896994499353233;4.794783681047057;3.1363988051552014;-1.0625624052954943;0.4712982655228662;0
2.253690702531632;-1.283877369020264;5.079121782677521;3.492958023103448;0.27232472750622005;-1.6816976210384758;0.074160757211337;0.4506621091870826;0.022096722864209658;-1.7838173766150025;0.036198633629040466;0.058121749770572;2.252394121949458;5.07327928059247;3.496633847839915;-1.2858309149599094;0.49868691219863215;0
2.366539481612475;-1.5105196573180737;5.600509118030642;4.065439751526443;0.24904315753749776;-1.965461088026726;0.06202249431624692;0.4506621091870826;0.02251546019875755;-1.7547742589114017;0.036198633629040466;0.058121749770572;2.3653573848154887;5.594915557901167;4.0665692461545735;-1.514199350838241;0.5456449923290446;0
2.895209361910133;-0.9484680518749882;8.382237249292078;4.277591472803352;0.2652792175127489;-1.8470520230976457;0.07037306324417635;0.4569906881551167;0.022028191724794303;-1.4269057579155724;0.03492403385337002;0.058121749770572;2.5719512171901133;6.614933063605706;4.277521481164348;-1.6289638350156324;0.6243799087731234;0
3.254467408625167;-1.0485532762434298;10.591558113803409;4.277591472803352;0.3212087665049053;-1.2083179449249204;0.10317507167960278;0.4749620168903742;0.02246698394492039;-1.7316180111361972;0.03645355358417454;0.058121749770572;2.55399480561689;6.5228894671180555;4.277521481164348;-1.6298048280520874;0.6177723078263583;0
3.5273706293661955;-1.5913551266489263;12.442343556915269;6.525192043801462;0.39920535857994155;-0.37063976706774227;0.15936491831893973;0.4767440444751122;0.02052635993804926;-1.2723977491081722;0.02663913531151217;0.058121749770572;2.668799153588844;7.122488922196529;4.88027437333005;-1.7067749700471044;0.6638249693444301;0
3.915270192657644;-1.8786068482199079;15.329340681513425;7.426940559107703;0.3990573288870711;-0.41598375144538835;0.15924675173848404;0.3506555947689455;0.018712737663982338;-1.2146139015125554;0.03199245436932797;0.053023350667890205;2.7265133928222385;7.433875281239033;4.88027437333005;-1.7329162471346489;0.7085343071212977;0
4.1118711681314775;-1.648034249627406;16.907484503310922;7.16767972929607;0.36334150860706066;-0.45059066214576504;0.13201705187685475;0.5198061970235951;0.01860748822410336;-0.8673231209642341;0.02829611501988375;0.0571020699500357;2.703018393893294;7.306308437725483;4.298556775375699;-1.2200453439270658;0.756407210118208;1
4.284034140725791;-0.4764472527620894;18.352948518904167;4.709714291273059;0.30088058740338164;-2.1735571065806067;0.09052912787620397;0.5855406333343994;0.01724443423249717;-0.6291746812935871;0.018609156724788405;0.0545528703986948;2.5242760452202435;6.371969552472752;3.099874596330692;-0.5077977813519838;0.7394606194128324;1
3.523409531949579;1.5622687248016678;12.414414729833153;3.574351803940588;0.279336219625389;-1.9635162883659711;0.07802872359460357;0.5482825200041349;0.01772739753442954;-0.6925311453243823;0.021923116141531612;0.0545528703986948;2.154279629905659;4.640920723826464;1.6477601194698244;1.9503287172689656;0.7949979645302787;1
2.398682284382598;0.30644689310844136;5.753676701410918;2.0875082712838147;0.2764262307404058;-1.2457778412376217;0.07641146104134805;0.4282524954841489;0.017458160655654375;-0.41495807484651387;0.018864076679922556;0.0545528703986948;1.3549048093024427;1.835767042270889;1.6390791482689904;2.1722857678337397;0.6015269979409608;1
2.0930663302483414;0.6307622848779795;4.38092666281926;1.9018401020843532;0.27766146379466194;0.11140135295492419;0.07709588847659438;0.26127185419144494;0.017879242361269834;-1.0358324458081423;0.024472315692872462;0.0545528703986948;1.4727047686310193;2.1688593355485444;1.6390791482689904;0.3781979975200847;0.6208330955568054;1
1.559148088158216;0.3341769908609109;2.43094276080742;1.6557602609149038;0.3035656000482272;1.1701512180226956;0.09215207353264024;0.21483232193186175;0.022435595219322584;-0.6528212177932703;0.032884674212297356;0.0713775874375446;1.4728346790266607;2.169241991743567;1.6430946711318997;0.24858385972479016;0.6121779958031198;1
1.6925106232453933;-0.8024267118719344;2.8645922097985097;2.179856601039402;0.2964979789187157;-0.46888313287743494;0.08791105150288317;0.3183582377932863;0.02110323952267682;0.5733348276345112;0.02421739573773836;0.0713775874375446;1.5913175377167974;2.5322915058450506;2.216829573621019;-0.9271157196708276;0.5673756204641132;1
1.6527011241196419;-0.61999544037929;2.731421005666328;1.742378207117813;0.28826456486413654;-1.5293811864831852;0.08309645935630999;0.4628456671402784;0.02193194105113132;0.4887220688207868;0.028041195064749655;0.0713775874375446;1.5364470505628554;2.3606695391832977;1.7215634677005163;-0.8004841646931676;0.5065674029406658;1
1.4970696433515207;0.5885608013291181;2.2412175170446496;1.6708339357889161;0.2926240442260983;-1.8758235384102697;0.08562883125923754;0.49107722046996616;0.022521360106969722;1.9779459289555246;0.020648516365861132;0.0774956663607627;1.3912018645887831;1.935442628035307;1.5020543586008968;0.135469036496817;0.4233719710582369;1
1.4885035815831575;1.2299283315934082;2.215642912385888;1.5304854229044844;0.28160860857684633;-1.5763047820304175;0.07930340842458744;0.47558686701940933;0.02362906160023962;0.3685455132332974;0.02880595493015191;0.0774956663607627;1.3707828903226598;1.879045732401345;1.5738819003423545;0.837571239600571;0.39323561290819087;1
1.460021136348377;1.9843724772395228;2.131661718584006;1.1384983655388305;0.264536686882802;-0.5172048192222698;0.06997965870692963;0.3503519692780348;0.025729943254875515;-0.8146384524845592;0.0328846742122973;0.0774956663607627;1.3317646681553488;1.7735971313469265;1.167546756329267;1.781495073594566;0.37286216525078525;1
1.4496027563861373;0.21829995412719988;2.101348151322287;1.5722188632253227;0.2370720578164052;1.7973195058426745;0.056203160597304964;0.16472505302994223;0.029860354346347675;-0.996202799076503;0.046905271744672176;0.0917711838482716;1.3137294860590232;1.725885162540905;1.3921164966213482;0.24100763630465952;0.411216949846511;1
1.5861227339836337;1.1014627437210944;2.515785327259717;1.5722188632253227;0.1615146380035579;0.19694625027650656;0.026086978289420346;0.16472505302994223;0.04038427021418782;0.5113534606196483;0.04919955134087892;0.13561741613133468;1.2109128504822408;1.4663099314630257;1.3921164966213482;-0.372635118418627;0.37315060417602364;1
1.5883487388761006;1.2113289824352316;2.5228517162892996;1.4966492041966584;0.14042072952893414;-0.8483433643141309;0.019717981281438077;0.16472505302994223;0.042570055129146085;-0.5458705870878399;0.06372998878352196;0.13561741613133468;1.2065982830882196;1.4558794167514393;1.3117253949682937;-0.2177074166932082;0.3681727397316813;0
1.540987847116283;1.3743446381639868;2.374643544960077;1.1122988652951529;0.15729650922994395;-1.2875748900263513;0.024742191815925844;0.2402839549865643;0.04556345080979629;-1.2337491295413716;0.07137758743754455;0.13561741613133468;1.1658178070531935;1.3591311592423172;0.9835952658765925;0.0016673781463469237;0.36635843604705853;0
1.5242867804399736;2.045810750115309;2.32345018902406;0.5057162273719249;0.1542756901528529;-1.635333542741827;0.02380098857213907;0.2689966258352898;0.05123049750992983;-0.5794770718511906;0.06169062914244925;0.1641684511063526;1.1463623995356815;1.3141467510692055;0.5828809322571549;0.44708198908486146;0.35429596334407687;0
1.6211593836488873;-0.4324953769396319;2.6281577471928403;1.8691722637730521;0.14680312991119832;-1.9441401863451273;0.021551158951724173;0.24801815241774383;0.05375785796780332;-1.042343625581179;0.07800550627103092;0.1641684511063526;1.170356716475093;1.3697348437983612;1.6614245335853606;-0.9740270916247381;0.41386213597508387;0
1.7927959394468937;-1.7086145336574101;3.21411728049727;3.0085449281024457;0.16541435550397807;-0.6719671464888692;0.027361909006796435;0.23868825067332777;0.05883011577191833;-1.4155700694538684;0.08845722443152851;0.1641684511063526;1.2675931504585902;1.606792395089534;2.1194792823385793;-1.7842174179366102;0.4980270310608101;1
1.7893271899829792;-2.0489374305407106;3.201691792812385;3.154231893090457;0.19214729428759258;-0.25410440772514065;0.03692058270204271;0.19487049452909655;0.06860457564048926;-1.0788507498713298;0.1037524217395737;0.2120934026715611;1.3227821719524264;1.7497526744351788;2.2730081947083725;-1.8799093466940187;0.5884993227722318;1
1.7419394766719507;-2.109883855295789;3.0343531403881494;3.419170877080781;0.23391837717172903;0.6596173305413993;0.054717807178655285;0.21742158639804998;0.06844643782958579;-1.0780610181222383;0.1037524217395737;0.2120934026715611;1.1591593480026914;1.3436503940620246;2.219676702113044;-2.1571282778211334;0.6012782995590832;1
1.67796675718253;-1.5017120660868188;2.8155724382096556;2.970545731182701;0.2587178576975988;-0.6248310035618013;0.06693492989163499;0.307383068527726;0.06712707144115392;-0.8770910942020471;0.10145814214336693;0.2120934026715611;1.072917384992618;1.1511517150193975;1.8068185852013505;-1.3051497669605685;0.6401723718462651;1
1.6940284146960958;-1.276794720067058;2.8697322697977676;2.7619383730936;0.2511143262984656;-1.6842154661558009;0.06305840487233223;0.44608433536874026;0.06377687680681914;-0.17659106039360598;0.0744366268991537;0.2120934026715611;1.1367425794540396;1.2921836919438234;1.7220924421778734;-1.2274530823034624;0.7240904671322845;1
1.6973012259702145;-1.279194424348381;2.880831451679993;2.794029228961527;0.24785480430327334;-2.042830547223596;0.061432004016213924;0.47486700101890733;0.05938318269287948;0.5109203832389569;0.059778729478943624;0.2120934026715611;1.1619260754154435;1.3500722047303348;1.8221060093371175;-1.2225339001661335;0.7608455557904314;1
1.5131559603532687;-0.5270438941103522;2.289640960352623;1.8398768738651474;0.25025331108707444;-1.7704856302038614;0.06262671971004405;0.44128706295654085;0.0580959290416039;0.9566190486420945;0.0425716325073927;0.2120934026715611;0.9930835146054012;0.9862148669810161;0.7767881865386829;0.49755565849111605;0.7249361860712383;0
1.2252015875683426;1.5324619135799813;1.501118930179987;1.1319906503543558;0.27347506759248624;-0.5146417926355303;0.07478861259471492;0.33265656909892394;0.054233617184130306;2.5948246801618424;0.02676659528907927;0.2120934026715611;0.7654246553317778;0.5858749029897709;0.3003822619564831;5.566324465013145;0.6822125403745016;0
1.0762817048747635;0.2214889041881309;1.1583823082481277;1.1319906503543558;0.3321636241678227;0.8993043661322245;0.11033267322030256;0.27074857801501195;0.035476172158089334;2.9342211243063767;0.023070255939634972;0.1264402977465075;0.5509098596538133;0.30350167346378426;0.3003822619564831;2.583957037219886;0.5278564019674045;0
1.8809350601175894;2.6522341660737863;3.5379167003795593;1.9705520344549599;0.33674389858037557;-0.4808562087916418;0.11339645323111025;0.33278219701558975;0.035476172158089334;2.934221124306375;0.023070255939634972;0.1264402977465075;1.3977914154325384;1.9538208410568991;0.8151974308209027;6.043638472212968;0.9557326248387662;0
2.383622655590028;-0.10791753198372385;5.681656964242056;2.5821181318668294;0.3545699193050475;-1.3845622167872276;0.12571982767598788;0.5881901696745324;0.033458388430800706;6.239703813859841;0.012618537779137351;0.1264402977465075;1.906081506452859;3.6331467092415997;1.4342234648640402;0.7718623837956154;0.9824642232930201;0
2.653712194923918;-1.5334955920677997;7.042188413487919;4.851078663425661;0.34555373440038695;-2.1288421682163228;0.11940738335805318;0.6553416395779726;0.013532811308770277;2.3778581607235836;0.011853777913735042;0.05098399102681761;2.1245873183850876;4.513871273442737;3.6474275512189336;-1.323732803350078;0.8829476310692473;0
2.5043102121932153;-1.6949647877483558;6.271569638895228;4.6162690370380535;0.3267792105183276;-1.9116105607290197;0.10678465242698146;0.6096100205758549;0.013335018552643888;2.9794544126802873;0.008794738452126;0.05098399102681761;2.0963914953732528;4.394857301873302;3.9638870086920073;-1.7058065738633599;0.7886249797863667;0
2.256689578869141;-1.3995698473943696;5.092647855376581;3.7688202038260825;0.30790726001316693;-1.3797370645756055;0.09480688076881598;0.5006167291444172;0.01669504068895867;0.6334167745072483;0.008794738452126;0.05302335066789031;2.003419978381924;4.013691609779829;3.7596999037291488;-1.5750670880963236;0.7079270834086615;0
2.161858559632742;-1.2966708699070177;4.673632431857355;3.7688202038260825;0.26471271874808094;-0.28470964145083755;0.0700728234670006;0.30895097494743984;0.013442875649719677;4.830731755755953;0.007265218721321472;0.05302335066789031;1.9758569707438176;3.904010768836935;3.7596999037291488;-1.5834129284044636;0.6927847483425853;0
1.8844095714815776;-1.4798966008404;3.5509994330913828;3.0615633869113426;0.22634109777419725;-0.02074074510304464;0.051230292541628725;0.30252661107850465;0.013491665217237266;4.441512682984128;0.008667278474558948;0.05302335066789031;1.8795472865739373;3.53269800246745;3.0276159713182342;-1.4626704329633955;0.6367943990891569;0
1.8522386983193213;-1.3869586092402797;3.4307881955516537;2.9304253646320304;0.17551692652368633;-1.3951404194324108;0.03080619149632111;0.27737085327170036;0.014303410042856434;3.4350209931119955;0.008667278474558948;0.05302335066789031;1.8480706630177006;3.415365175506684;2.888825691532271;-1.3695430388813352;0.6152736277341656;0
1.8179248085869761;-1.4003106538460943;3.304850609675994;2.9304253646320304;0.15125165606379745;-0.6571372147125771;0.022877063462041276;0.21723964304408777;0.021072286499312053;2.3559106923907507;0.016569797083715726;0.0825940654634444;1.8088951612510729;3.272101704397545;2.888825691532271;-1.383134969402842;0.5962362863098636;0
1.985127550665652;-1.5653127782859555;3.9407313924118106;3.5708492392711717;0.16016125292131111;-1.5180837325079983;0.02565162693732419;0.27241204490746;0.021073382957751245;2.3284230465329268;0.016824717038849826;0.0825940654634444;1.9784722235214511;3.914352339245915;3.5289075639871177;-1.548205880698688;0.6946689417402129;0
2.0205427808507124;-0.6927651234241884;4.082593129247931;2.555367364562068;0.18486553931492497;-1.816892662468484;0.034175267626198075;0.28908013085357354;0.0208041339977388;2.69820643998342;0.016824717038849826;0.0825940654634444;1.9570368495944952;3.829993230670747;2.5409104559485955;-0.6711327606695069;0.8291073728316382;0
1.6874410397341426;0.8458024143378954;2.8474572625790446;1.8313572169750651;0.21600370108139474;-1.055804796365226;0.04665759888086054;0.32270017340788265;0.021177355833303855;2.087668120526886;0.019118996635056625;0.0825940654634444;1.6257497219296768;2.6430621583544216;1.8036622514695113;1.0438625076094163;0.8724464226168065;0
1.2659069526301805;-0.399464152850193;1.60252041271743;1.5608707717168573;0.2768372387499663;-0.03820357476865104;0.07663885675870584;0.32481163053303014;0.02324140646333975;0.5569074801720423;0.021030896298562224;0.0825940654634444;1.1022184488213171;1.2148855089220705;1.470492892355167;-0.043930738948306826;0.7939101776618372;0
0.960346249839952;-0.565442288175405;0.9222649195816596;1.0305977076222737;0.35135739342646516;-0.545866904738907;0.12345201791543982;0.4520323823200179;0.02271348085487177;1.0963019807843588;0.017971856836953196;0.0825940654634444;0.7900819465974465;0.6242294823392103;0.9871459464338854;-0.5012004121940059;0.6810181831646674;0
0.959661503488896;-0.5698584489498053;0.9209502012785684;1.0305977076222737;0.3962917737659039;-1.4846144157997274;0.15704716995452636;0.6698315677324163;0.02204915985164351;0.8606492846290134;0.017971856836953196;0.0795350260018354;0.8040071179683588;0.6464274457437864;0.9871459464338854;-0.3502088601585669;0.6889962544520261;0
1.0535071734138368;-1.276374508702377;1.1098773644344122;1.5608707717168573;0.42271579329714576;-1.791925394709899;0.17868864190283526;0.8146601953926262;0.02302566836825034;0.2325871951777176;0.01873661670235542;0.0795350260018354;0.885903737563658;0.7848254322292587;1.470492892355167;-1.4882481354053643;0.6586377011827003;0
1.4030168197852964;-0.21922994841926421;1.9684561966004468;1.8602112872802656;0.3802789652994826;-1.2824871389248291;0.14461209144924508;0.5933440434345791;0.024319892199398226;-0.38144106274488926;0.025619455490975822;0.0795350260018354;1.2467122267378772;1.554291376297716;1.8004469796448903;0.11939228174207576;0.7871438824569407;0
1.6307054304266375;-1.0434063499303785;2.659200200822925;2.0504282375589176;0.31641518809774816;-0.2901355923135733;0.10011857125893336;0.44893863758369235;0.030730985629857887;-0.47312117163950973;0.03352197410013255;0.0999286224125624;1.4725562318173562;2.1684218558641315;1.9997834549759703;-1.0100079403571876;0.8317081406242955;0
2.598817707187908;1.6582054051389261;6.7538534751934165;3.206181989073327;0.2350784914579285;-0.766650682131183;0.055261897146135365;0.3225035010783861;0.026334655774677737;-0.3590300691199972;0.03161007443662695;0.0876924645661262;2.447023263515429;5.987922852185703;3.1082695974074586;2.1763208774320364;0.9884387667642546;0
2.5173463111274916;1.777387443003904;6.33703245014719;2.9362946236823975;0.1910704504343116;-1.3540483826482352;0.03650791702917072;0.3225035010783861;0.027811132329282912;-0.9872280075120828;0.04257163250739276;0.0876924645661262;2.3434302730755623;5.491665444767005;2.885221316355925;2.453767883902866;0.8766020230571178;0
2.3307431409478596;2.494904025740045;5.432363589075494;2.2607991511367214;0.18497057556797905;-1.5960042547161417;0.03421411382594945;0.3225035010783861;0.026633463043540927;-0.3690341396205023;0.03619863362904056;0.0876924645661262;2.1850979889411457;4.774653221274638;2.1542652715364223;3.1405338758123937;0.751142385586696;0
2.271261043852315;2.8609421374228114;5.158626729321107;2.1017010042071487;0.22845535334954314;-0.73219744765541;0.05219184847406462;0.32298830588107663;0.024871270789828048;1.0404971361473443;0.017079636993983925;0.0876924645661262;2.12192651118599;4.502572118873949;2.123290351668464;3.558390988176434;0.7137826907799776;0
2.3143542783718343;2.722405169710027;5.356235725818014;2.1017010042071487;0.2976849547088245;-0.37183619279687413;0.08861633225999488;0.4176015381680763;0.019926270336596823;0.05680086510260856;0.017079636993983925;0.0662791883348629;2.1131402668829367;4.465361787522089;2.123290351668464;3.6147386306077274;0.709118320289586;1
2.2773366918063758;2.968402312183252;5.186262407847607;1.8647750662914457;0.33647578505631337;-0.7443590410520328;0.11321595392926238;0.42014408219780175;0.018757674783427193;0.0653194543246199;0.017079636993983925;0.0622004690527175;2.081625867165607;4.333166250852965;1.8575955520785743;3.8357180353911593;0.6893918580197305;0
2.3711867416393644;2.520349750439936;5.622526563726305;2.292848693903378;0.39132731784351177;-0.5476171793798292;0.15313706969059687;0.4930653077630884;0.02271163699851966;0.14003238564572232;0.023197715917201975;0.0785153461812991;2.1770125087353303;4.739383463190097;2.2905542282275664;3.396689408004289;0.7630696951178924;0
2.395131297009654;1.8646263992231087;5.736653929915146;2.598455617146598;0.44334745219875477;-0.6913175931612265;0.19655696337112716;0.613694347652028;0.03337900775674312;1.064655142025109;0.030080554705822375;0.11726317936168029;2.197479821740367;4.828917566956075;2.6199283546424743;2.499460774481538;0.733670102993442;0
2.3542669273941472;2.7434076563585106;5.542572765421879;2.097700954692074;0.5190956535413952;-0.7402563600733626;0.2694602975255682;0.7812354542152524;0.03986330128490476;-0.5705249048341743;0.0420617925971245;0.1198123789130212;2.1624452133783607;4.676169300862984;2.21603534923525;3.5288363208925455;0.7544162034137786;0
2.3342380997128;3.08658393059011;5.448667506150822;2.0408672080050776;0.6359690920813124;-0.5680693288014379;0.4044566860827288;0.8987638970907278;0.03633775444719353;-1.208611832693642;0.05417049046599362;0.1034975017844396;2.16112879135997;4.670477652845005;2.21603534923525;3.5568937124822173;0.7545117802889902;0
1.4457645871123517;0.017352573514873626;2.0902352413481484;2.0408672080050776;0.7006829905478211;-1.1465758328749505;0.49095665324303794;1.0100864375879965;0.03695938878778605;-1.413967334479987;0.0592688895686753;0.1034975017844396;1.2844104840602824;1.649710291563969;2.21603534923525;-1.4688807358888536;0.5200027176216869;0
1.499405352354752;-0.18145415598776488;2.2482164106700777;2.256792338786067;0.7128389928772445;-1.59105408562829;0.5081394297662443;1.2091915054481406;0.031159149278041715;-1.2100959026394082;0.0447384521260323;0.0892219842969306;1.3606267627495257;1.8513051875102537;2.4845715007214606;-1.8068268502182103;0.5200860878698009;0
1.5021203962853933;-0.17463113784354992;2.2563656849365867;2.256792338786067;0.694728814054706;-1.7598623794042747;0.4826481250778582;1.2683647963053215;0.029495216806071846;-0.9554639957821409;0.0447384521260323;0.0892219842969306;1.3773582579219357;1.8971157706657493;2.4845715007214606;-1.8325901092336103;0.5128779844243221;0
1.6472507932033453;0.3510249365840435;2.7134351757090505;1.8775309710464774;0.6312581646662907;-1.6491605457167064;0.39848687045785375;1.0652172880609518;0.02381582470868624;-1.4227356328400387;0.038620373202814175;0.0647496686040582;1.4851891851509613;2.2057869156893766;2.0567284062944964;-0.9207773221290003;0.48442780323919243;0
1.17365422219724;0.4169859469601036;1.377464233281408;1.1597124870029067;0.5523338955590463;-0.8882519186553743;0.30507273218343145;0.8078024917269789;0.022395588167761615;-1.0432225196952278;0.026894055266646177;0.0647496686040582;1.2295669926628678;1.511834989446009;1.0930179140792706;0.40536331032951267;0.3652888816919405;0
1.1192968220095212;1.1525208982855193;1.2528253757606138;1.1597124870029067;0.4319298464851922;0.14012277263512374;0.18656339228472174;0.47506721617513037;0.0221142306031235;-1.0353115897313059;0.026894055266646177;0.0647496686040582;1.1156470531509624;1.2446683472044264;1.0930179140792706;2.060078456064883;0.32212080751057187;0
0.8122370468666726;-0.0853684459737311;0.6597290203026933;1.1597124870029067;0.3142276796033478;1.5560243429233185;0.09873903462890421;0.26333544141455345;0.023444999345372326;-1.392378056666266;0.038620373202814175;0.0647496686040582;0.753025015562603;0.5670466740630585;1.024335620049662;0.2441858308595702;0.20607963760088183;0
0.846902924802598;0.211260721412491;0.7172445640391949;1.1430851028436173;0.23244449370930886;-0.31790166921279245;0.05403044265577693;0.26333544141455345;0.020953531277909332;-0.7364155414275118;0.029953094728255227;0.0647496686040582;0.817066137411304;0.6675970729042279;1.1827628922110565;0.00865374950263639;0.2321093787135589;1
0.8288993017537069;0.10979334576192608;0.6870740524477827;1.1086807794606344;0.2517094196618182;0.37283870698174276;0.06335763194648932;0.26333544141455345;0.017642474598872176;-1.2459049537756652;0.029953094728255227;0.0520036708473538;0.7792755441518924;0.6072703737132279;1.0183534957964824;0.3157233840731623;0.21637480798098147;0
0.8074363822718078;0.8326985501781466;0.651953511416185;0.899533397376675;0.3227966004709227;-0.7523714647022628;0.10419764527558449;0.4426129472697147;0.01744450695203079;-1.145249376828208;0.0275313551544814;0.0520036708473538;0.7652923950479062;0.5856724499181606;0.8322737350987932;1.0584737491016643;0.21704021391084222;0
0.8117083348898003;1.8080574363947943;0.6588704209295722;1.0063168937358111;0.3847578932512561;-1.3245611148542002;0.14803863641914497;0.6252093774137673;0.014195987523365466;-1.1100832905882072;0.021413276231263302;0.042826552462526694;0.7948028336351646;0.6317115443544872;0.9367002670790066;1.8866738107864254;0.23648336794976813;0
0.8709636746741579;2.119057973930983;0.7585777226019124;0.9469726403862273;0.40054781496709563;-1.7526157750482294;0.16043855207491467;0.7220696686878268;0.014581381819015339;-1.4196645028919923;0.022942795962067827;0.042826552462526694;0.8689536559780469;0.7550804562376139;0.9522840772682861;2.2199779869464393;0.27362351952400027;0
0.8889831514489137;1.0590558314189502;0.7902910435600423;1.124186770724053;0.3654126270394557;-1.6862145820668506;0.13352638799987637;0.6120355426701423;0.019885644706768624;1.570292952652021;0.022942795962067827;0.0683185479759355;0.8786119467282663;0.7719589529336338;1.0220121904167785;1.7081484203717576;0.27408219443022486;0
1.1667066425127723;4.081730798921134;1.3612043896834258;1.124186770724053;0.31895883206469733;-0.9268527007921438;0.1017347365520758;0.4482327229495011;0.020365535910787307;0.4998078419051199;0.0242173957377383;0.0683185479759355;1.1090655405236498;1.2300263731770156;1.0220121904167785;4.174812236226154;0.3366968733692915;0
1.5827463544814349;0.5161469752087982;2.505086022624272;1.1882952775775717;0.2664848539548535;-0.9674587162112118;0.07101417738733959;0.3837176120050083;0.020936156527854844;0.2607153740908775;0.028805954930151874;0.0683185479759355;1.5158499142368889;2.2978009624919835;1.0220121904167785;0.7029041232416547;0.4233039511291455;0
1.735264373552664;-1.2874407843211333;3.0111424461211196;2.8975987578766143;0.2600261627885977;-1.1510805357962386;0.0676136053345623;0.3837176120050083;0.02063826806861064;0.7010985436828372;0.0275313551544814;0.0683185479759355;1.6996171382895484;2.8886984167675536;2.7647971821332016;-1.2414895436496753;0.4307348651258623;0
1.7166827825172728;-1.6656691577527478;2.946999775791246;3.115132832708566;0.2807733799486225;-1.1103038743592326;0.07883369088777352;0.3837176120050083;0.020670429952027843;1.3843581968032268;0.02472723564800645;0.0683185479759355;1.7018965410523583;2.8964518364459813;3.066246847860759;-1.7003378472872157;0.40725642917826876;0
1.6191954155173887;-1.4857848572043413;2.621793793632529;2.433383849747155;0.2932732656886848;-1.5839435914011375;0.08600920836770588;0.4670161245207116;0.019888912332525537;1.7035394311969572;0.020138676455592877;0.0683185479759355;1.6246990002131547;2.6396468412936245;2.444927680240003;-1.553491409991002;0.36647015179363934;0
1.726253207855773;-1.4872764778427892;2.9799501376323465;2.8188827953846185;0.29250907055124503;-1.5962723653089061;0.08556155635475325;0.4670161245207116;0.017960473235273382;2.476269286217601;0.018481696747221325;0.0622004690527174;1.7262391753455186;2.979901690497576;2.8588279737835514;-1.5300821226373762;0.3651894518190458;1
1.6909029320701998;-0.6861677730697109;2.8591527256835985;2.2447508578651973;0.2860583475445168;-1.167286412571331;0.08182937819989958;0.4073632559407423;0.018802043680542002;2.7548000351797137;0.015805037218313427;0.0622004690527174;1.6888432632401498;2.8521915677916376;2.2671297353920323;-0.6962126564767627;0.33826817047831864;1
1.5177399675608532;1.7964632258377813;2.30353460913162;1.395114607643026;0.25149217848049354;-0.3296103239985112;0.06324831583686441;0.3287948388622335;0.018969044378826544;2.8344536499825566;0.015805037218313427;0.0622004690527174;1.5094011772237703;2.278291913804504;1.3352936614260509;1.8249215174676539;0.27894729825622944;1
1.0381184810811412;-0.18798932808035523;1.0776899807622158;1.395114607643026;0.20738387370469338;0.36063190121748284;0.04300807107276421;0.2641918014364506;0.020547736148550117;2.0135846035405214;0.019628836545324702;0.0713775874375445;1.0163435995899377;1.0329543124274316;1.3352936614260509;0.2660388067179146;0.17954564135838585;1
0.7611882708560174;-0.4246438295546509;0.5794075836887737;1.2188431280096879;0.14604960244896523;-0.2887209780671789;0.021330486375500793;0.1857755985712457;0.012631163018741889;0.1912137985446845;0.016187417151014502;0.043846232283062996;0.7145321059331372;0.5105561304092441;1.139387719592646;-0.561541267357127;0.1217613876572312;1
0.7944904632583923;-1.2637472498596576;0.6312150962085349;1.395114607643026;0.15258383599591577;0.15862553978533356;0.02328182700722852;0.1857755985712457;0.011375131561884036;-0.8737998016017734;0.012363617824003175;0.0336494340776995;0.7592429470738425;0.5764498526813736;1.3352936614260509;-1.448670228914278;0.13163504945637514;1
0.7431343897096233;-0.914510465344849;0.5522487211690943;1.1006460929603463;0.24331891823692609;1.8578507334296452;0.05920409597198792;0.24540630432079902;0.01114531241624033;-0.4631631808137797;0.010324258182930451;0.0336494340776995;0.717815540864503;0.5152591507065991;1.0764759575383787;-1.1785864934379953;0.1271769072739854;1
0.7819963666530046;-1.1338968760462815;0.6115183174585005;1.344282795652294;0.34165864289835796;0.6203348727670013;0.1167306282671477;0.3680314160519025;0.009787657496072305;-0.011453310844773159;0.009432038339961202;0.0316100744366268;0.7358753413023351;0.5415125179368282;1.1956082348769916;-1.3005080261949367;0.13001071713247475;1
0.8248562436084376;-1.4163214474199641;0.6803878226198221;1.3868648693486625;0.48615369507121303;0.7637136783770393;0.236345415231394;0.5598769588408037;0.01683973087599364;2.8980837778468365;0.010069338227796376;0.0601611094116446;0.8084401799827698;0.6535755246105733;1.3030316323989624;-1.5297347870665203;0.1445988974257881;1
1.5931699358716505;4.030099944193445;2.538190444565279;1.6467039302280773;0.6506166606890622;-0.09724287042707859;0.4233020391661863;0.8219354978953182;0.01844715749222469;0.5422987357316416;0.015805037218313403;0.0601611094116446;1.6174461019369328;2.616131892670979;1.6812388114746986;4.317920469934672;0.3112423521592003;1
1.6487792897094142;1.3451188232035654;2.7184731461746807;1.4019302100781337;0.7629895519053477;-1.3436224145681126;0.5821530563167232;1.2344797224411428;0.02853099851941113;1.4695326994498785;0.025746915468542853;0.0917711838482715;1.685612143919563;2.841288299729106;1.354973171586936;1.3929823728832278;0.3489723043979637;1
1.64060827290651;0.5650340751047003;2.6915955051292815;1.7175169747499028;0.8521435795734857;-1.6614765762162402;0.7261486802083137;1.584939047022725;0.03213115223790599;-0.7624766583204285;0.037983073314979104;0.0917711838482715;1.6764007359837023;2.810319427606699;1.773426178523203;0.5578605958111871;0.365275313005085;1
1.798650894652754;-0.5645682862164035;3.235145040835152;2.1098946309672737;0.8763966448605247;-1.6244043047818582;0.7680710791227846;1.401253259522648;0.03297858165882211;-0.866799835732848;0.04486591210359943;0.0917711838482715;1.7986175841927035;3.2350252141671967;2.1691827996891884;-0.6856167008832971;0.44440975314750925;0
1.8350376737827614;-1.0414340523810262;3.3673632642020483;2.3943766168370733;0.8328389132391696;-1.362007995203469;0.693620655405401;1.342620306591281;0.03512283486671283;-0.8356292131268833;0.04486591210359943;0.1060467013357804;1.8275533156349764;3.3399511214883955;2.3883239229650384;-1.1276517776283441;0.47143595808941363;0
1.840973820223924;-1.1222695439705928;3.3891846067498688;2.859704703813726;0.7365794158509797;-1.1541608728652915;0.5425492358553705;1.1787435016733676;0.04367450017822005;-1.0468559247689118;0.06474966860405827;0.1315386968491892;1.8056579648631181;3.2604006860736177;2.7742419013963655;-1.116682693872831;0.516058621795003;0
1.997328110029056;-0.7875245335443785;3.989319579112241;3.0030924895412543;0.6260490725867528;-0.45362450520678976;0.3919374412867333;0.8299689253523175;0.050325328545302375;-1.0174257682245123;0.07086774752727643;0.1539716529009889;1.8879879326799973;3.56449843394529;2.889313661746163;-0.728389802250116;0.6115931097553644;0
2.140569575082867;0.14683510457096713;4.582038105770445;2.286710411207184;0.4891862168157234;1.1260910018174743;0.23930315472247995;0.5072857177889554;0.053379586624982725;-1.2980760797626882;0.08590802488018759;0.1539716529009889;1.8052220375946106;3.258826605017238;2.198341153334856;0.7774037586167627;0.6773215073292845;0
1.895882758828833;-0.765258007852337;3.5943714352244265;2.3572822426807596;0.32264778960263935;0.9276582169676887;0.10410159613546904;0.4268192218793584;0.05044742179015163;-0.580467027894999;0.062200469052717394;0.1539716529009889;1.2350465761562957;1.5253400452753885;1.6857840311284502;-0.35912790423793034;0.5703926242695448;0
1.8741637128925248;-1.1844660020497197;3.512489622723094;2.9980137792367754;0.25219658652472116;-1.554221757017251;0.06360311825472117;0.4268192218793584;0.05182274616693073;-1.0061453656837587;0.07367186703375139;0.1539716529009889;0.9073885249437729;0.8233539351996358;1.4173002726452164;-0.734597628058668;0.47564141138196037;0
2.10203591311072;-1.6495777153860307;4.418554980007217;3.7182075130070786;0.33104666667062843;0.5199824537556778;0.10959189551373417;0.4268192218793584;0.05237734942362906;-1.1419985662976377;0.07583868665239114;0.1539716529009889;0.8723055398547302;0.7609169548612524;1.3506481342961583;-0.718778523292807;0.43525601740159386;1
2.01201777962838;-1.194089155427266;4.048215545540715;2.9200309965990385;0.46037572805757027;0.3880525506744448;0.2119458109845379;0.5338049719270864;0.053354827130485526;-1.3312139024298328;0.07902518609156722;0.1539716529009889;0.8255667262933645;0.681560419562743;0.8003821994596316;0.6991847750055454;0.4441926872739094;0
1.659677096611065;-0.7219106505742791;2.7545280650153345;2.252401473991151;0.5913999896462796;-0.7303888665249677;0.3497539477536196;0.8523109043083814;0.05582142988722106;-1.374958615662432;0.09253594371367384;0.1539716529009889;0.5733963018558655;0.3287833189819829;0.6588114047080882;0.6968447631544917;0.34871773737384604;0
1.610884412305711;0.5502040561589082;2.594948589809516;1.4173696363469042;0.6967815118361416;-1.4063809293830702;0.485504475236659;1.1828616791109576;0.05818355859848964;-1.4212825591844027;0.09483022330988058;0.1539716529009889;0.5573127281255595;0.3105974769307538;0.5271933786929657;0.893853433890925;0.33169628761037595;0
1.162824487053595;1.2247942455123595;1.3521607876914565;1.1479120511648777;0.7802673620849376;-1.521271539332434;0.6088171563349872;1.3253007838656092;0.05321172762079798;-1.2182978826103803;0.07698582645049451;0.1519322932599162;0.3944482015323242;0.15558938369208505;0.5270146323667826;-0.7234780528377718;0.2590640882250663;0
0.8165508944892402;-0.9785681442727981;0.6667553632911783;1.0848939251243626;0.8024077686183672;-1.5541427311125762;0.6438582271391071;1.2875272602388228;0.05290624686614529;-0.2518146827764386;0.055317630264097;0.1519322932599162;0.37452822018082427;0.140271387711816;0.2999136302126797;0.13995185113486436;0.2551200551553005;0
0.6789927630628825;-0.4206879243123178;0.4610311722917676;0.5546660423791944;0.7772764480045782;-1.3768661141725522;0.6041586766226137;1.2859097776875048;0.04251143018753554;2.188892947933683;0.0360711736514734;0.1437748546956254;0.32325808875514006;0.10449579194562603;0.3330429793299159;-0.08559523775392007;0.2084436480780886;0
0.7293922619812182;-0.5485091079761543;0.5320130718380781;0.844951513587217;0.7571352913416113;-1.0060939652473395;0.5732538493949466;1.0840706764809245;0.02672872164800116;-0.1600781581438981;0.033521974100132496;0.0856531049250534;0.4714421486335632;0.2222576995082307;0.48578686049944353;2.169563737217679;0.27386082225450614;0
0.7814757033798733;-0.8530789139316981;0.6107042749730677;1.0661341044965873;0.7814184218545207;-0.4334912759321047;0.6106147500136098;0.8911006156025472;0.019962473356134304;-1.275181223493334;0.03059039461609045;0.059141429591108303;0.6512199408283015;0.4240874113324165;0.6757880797602249;0.39603837990397245;0.3439310422385032;0
0.7606161451895986;-0.7036222012239232;0.5785369203230846;0.9949048148567414;0.7602682872339287;-0.8439825899475554;0.5780078685736115;0.9721745360898506;0.019753034374573944;-0.6335229316829576;0.02855103497501775;0.059141429591108303;0.7341168550616869;0.5389275568856617;1.2086418283681581;-1.269040481740548;0.36854909611904285;0
0.7274862182059538;-0.5276347760345784;0.5292361976796006;0.8050513549657536;0.6988863469113153;-1.3694947379258946;0.48844212589904346;1.1620533660520584;0.01798232981037625;0.7314230282383504;0.02166819618639735;0.059141429591108303;0.7933718938933498;0.6294389620199207;1.4781733054130424;-2.0389613616306117;0.38301061108687373;0
0.726698446051709;-0.5787970974679091;0.5280906314939685;0.8050513549657536;0.6192118719686324;-1.6005190498666078;0.38342334238689796;1.0036396085738744;0.018475395927159043;0.3302219150428921;0.02166819618639735;0.059141429591108303;0.7719325729714046;0.5958798972142528;1.4370020549980946;-2.1179929797334647;0.3543674331534133;0
0.7611826020986323;-0.6593764271910695;0.5793989537376448;0.950614272856718;0.5360813083320601;-1.54019890451269;0.2873831691430134;0.9057245511551215;0.019842971054262533;-0.9918664682718362;0.03262975425716315;0.059141429591108303;0.7563192758510774;0.572018847023898;1.3037870705677193;-1.8645347247143316;0.3244567979434897;0
0.8293619205483199;-1.6822057357128573;0.6878411952555977;1.4919777524350923;0.44925868522307594;-1.2953143438659507;0.2018333662483668;0.7147922620435767;0.018279259902218386;-1.1198221292859434;0.028423574997450726;0.054043030488426604;0.7149828729409147;0.5112005085988441;1.088138436548375;-1.1701290221539478;0.29862233891616197;0
0.7273589273586711;-1.08947395939839;0.5290510092083566;1.00563711436483;0.3793138412227564;0.26832405513022295;0.14387899014316247;0.34173530546254316;0.015554434979920682;-1.6067033199714307;0.025874375446109824;0.040787192821454;0.5927859486248397;0.3513951808870511;0.6414174933561094;0.212079818014394;0.23553326619559062;0
0.5958765236118826;-0.16375500173867255;0.3550688313917824;0.8644147169386434;0.28486573879882293;3.7030153002094752;0.08114848914139922;0.1219068143544102;0.015716986186583175;-1.5640127599257683;0.025874375446109824;0.0418068726419903;0.4281787032545189;0.18333700192072133;0.45584958854303714;1.2861174014647563;0.16145113345223386;0
0.5723674597514158;1.3832571575634793;0.32760450898228854;0.6591454836913593;0.17642145239082252;2.24754974458804;0.031124528863687256;0.15580501339897834;0.01622478680899158;-1.89853937677309;0.027021515244213225;0.0418068726419903;0.3041235694661712;0.09249114550484507;0.3926752091391963;-0.6104019995743606;0.10890376109624049;0
0.554479988327697;1.6717769236874784;0.307448057455883;0.5705353744873878;0.19772795307020227;2.8372922091828294;0.03909634342533211;0.18469226736818678;0.0159902536750564;-1.802524678719686;0.02574691546854275;0.0418068726419903;0.35776862738470194;0.1279983907407337;0.5263275712756235;-0.7518933917784584;0.12547258342907983;0
0.5388183285879155;1.9207114207541776;0.29032519122227485;0.5705353744873878;0.2544044219236657;-0.14303521581910822;0.06472160989431451;0.277427529664092;0.018082833261325645;-1.9047755226627199;0.032374834302029025;0.0469052717446721;0.40056537214471183;0.16045261736143146;0.5263275712756235;-0.7567342654630964;0.13900105496651924;0
0.545940002111212;1.8688114589354936;0.29805048590519007;0.5705353744873878;0.3368481967038134;-0.6539004300394861;0.11346670762261095;0.5215642223995398;0.01797293152645981;-1.886954372822357;0.031610074436626806;0.0469052717446721;0.4625079485390584;0.2139136024618083;0.7601234376979882;-1.2373855894451116;0.15695820787891873;0
0.9921520082512549;3.9656996782721197;0.9843656074769983;0.6651947268875587;0.4033721341085624;-1.4265569195365002;0.16270907857529604;0.6247213732762242;0.017877223016024138;-1.8315016659888386;0.031610074436626806;0.0469052717446721;0.8624297913104028;0.7437851449397049;0.9071864367525633;3.432364472125122;0.2714208503971777;0
1.092105192350238;0.9679703433826978;1.1926937511583504;0.4743282861543634;0.41913508024215024;-1.9133345219287077;0.17567421548959372;0.7798971106144603;0.017465355583409593;-1.316644633246146;0.029825634750688196;0.0469052717446721;0.9388825452710688;0.8815004338146807;0.8185266891920957;0.4437020558692727;0.2770352531922363;0
1.1984732297505667;-0.5668205056390049;1.4363380824287546;1.5106658059464892;0.39571454863259187;-1.7629392646702726;0.1565900039994959;0.7365683581608362;0.016547689272557786;-0.3551794517614617;0.016824717038849774;0.049454471296012895;1.0046662561748645;1.0093542862964187;1.5679970149597509;-0.9356569301525463;0.28210648086182305;0
1.0676708482343806;-1.4867486631494735;1.139921040169522;1.584123987388116;0.3540555469841592;-0.9130461623762193;0.12535533035025215;0.48428205999216356;0.01619984613925629;0.8594392233348712;0.01631487712858165;0.058121749770571995;0.9323145075619829;0.8692103410105426;1.4191219535202366;-1.2925195408007626;0.24579085837711834;0
0.9595196505562961;-1.5196012083746002;0.9206779598036766;1.5723257442572536;0.2908186330724568;0.8999566363103314;0.08457547734213226;0.2555314055391067;0.011536485428686334;0.08837714728478525;0.013000917711838499;0.037728153359845;0.8180990117261199;0.669285992987254;1.2009924823117313;-1.0980527004912202;0.2095856510829824;0
0.8752294313812775;-1.4820258384334355;0.7660265575559944;1.5194156022985077;0.20185604784294078;0.9268474514100181;0.0407458640507716;0.24163038476798082;0.011643019153993673;0.07645184427531758;0.013383297644539624;0.037728153359845;0.7048507160614897;0.4968145319323949;1.0961560471523377;-1.1154828838589295;0.17564732229130361;0
0.8788480646390907;-1.4864722766570035;0.7723739207198754;1.5194156022985077;0.15885111419941292;-1.2122826230532746;0.025233676482394923;0.24163038476798082;0.01138566368213693;-0.12105206084519134;0.012363617824003224;0.037728153359845;0.6845220740336679;0.4685704698393544;1.0961560471523377;-1.1369471177631425;0.16991545705137212;0
0.8563452968443075;-1.416900347863579;0.7333272674273652;1.404094446854709;0.19196686558934303;-0.5434454584917872;0.0368512774841969;0.24163038476798082;0.01032403088554391;0.8100606026305661;0.010706638115631675;0.037728153359845;0.6862644243859387;0.4709588601777637;1.0961560471523377;-1.1419544584951353;0.17041807600413533;0
1.016019459329505;-0.851326099046175;1.03229554173622;1.5322784134884135;0.23310417702608657;-0.950904627807346;0.05433755734700911;0.3187910085883967;0.010666910193414156;0.3106420349647315;0.013510757622106677;0.037728153359845;0.7954495268330426;0.6327399497389113;1.1922361316934884;-0.8597547843521299;0.2016081402967283;0
1.119737298486674;-1.1811545504894407;1.2538116176222347;1.5522105782440896;0.25153354087004953;-1.4186641143074614;0.06326912218262487;0.38798914880279023;0.01658212452327024;1.9306247376654173;0.01465789742021005;0.058121749770571995;0.8826250663894085;0.7790270078189079;1.3052980271529453;-1.2643804416902893;0.22887942278664242;0
1.3160396685333795;0.027421692346244697;1.7319604091534475;1.9961326760509093;0.24346750305105738;-1.532078692067436;0.05927642504191663;0.42979375796092567;0.02103744423294755;0.6239955767293525;0.01465789742021005;0.06423982869379011;0.8196237531045978;0.6717830966532667;1.5117073389456044;-1.4906012339521253;0.22852955601966754;0
1.2916648739367476;-0.4194665696275542;1.6683981465620341;1.5239328436511503;0.23519822182450734;-1.5564453552218194;0.05531820354941015;0.37734456337957223;0.023762222925785666;-1.2690626145143769;0.03938513306821655;0.06423982869379011;0.8000168181005884;0.64002690924379;1.0503158678748723;-0.8728157386321159;0.23751481480665335;0
1.172003798485172;-0.2652116606992213;1.373592903663672;1.4659176719218197;0.22919338518483948;-1.213168153330706;0.052529607812486195;0.3232282374800839;0.02948738212672785;-0.9834912886205208;0.0455032119914346;0.0887121443866625;0.7058909858867685;0.49828208395619394;0.9459796262297968;0.09809342286202545;0.22470790745665944;0
1.1382889308527462;-0.4417679212704587;1.295701690101888;1.4659176719218197;0.19807228329965898;-0.67321793527081;0.03923262941154037;0.26761376764420275;0.031000055404654767;-1.5959851887180239;0.04626797185683687;0.0795350260018354;0.6040257228554957;0.3648470738711041;0.9459796262297968;-1.5023265749133528;0.19540068054245824;0
1.1264004492799455;-0.30228809011401736;1.268777972138063;1.4101631128447498;0.1692864103612979;-0.21318301018329727;0.02865788873301375;0.20006228293499806;0.03030658902179975;-1.4793911780678652;0.0448659121035994;0.0795350260018354;0.5791336832867796;0.3353958231173119;0.7663835070146816;-0.753599063398898;0.19118399514341203;0
1.0663899034216993;0.3857184109491903;1.137187426119741;1.180051646699428;0.13114096296662264;0.35163611808744527;0.01719795216781309;0.15485263355976953;0.03226341898274641;-1.6331040885967194;0.049327011318445926;0.0825940654634444;0.5126704702772129;0.2628310110942586;0.6279505135443242;1.270765748059962;0.17394870494925407;0
1.3197119831921482;-0.2813871611931345;1.7416397185809527;1.4101631128447498;0.09972441958420207;-1.0533307264870397;0.009944959861405984;0.16553990628844817;0.032834860122927426;-1.656772887490204;0.05162129091465275;0.0825940654634444;0.6933022838579037;0.4806680568025853;0.687796601230545;0.374010980389058;0.2264596038308787;0
1.3231483696426944;-0.3291902802100393;1.7507216080881203;1.4573387971592342;0.08611462001866868;-1.2179792894965584;0.007415727780959692;0.13476542106467893;0.03293287825711481;-1.6665414783771217;0.051876210869786825;0.0825940654634444;0.686498400047039;0.47128005326714434;0.5471349885134678;0.7734743945796184;0.2256193511290335;0
1.3144432363092335;-0.26158329349619336;1.7277610214790917;1.4370493699011249;0.07805818960884923;0.0761623014680011;0.00609308096501106;0.0952534686202191;0.032026938562672407;-1.583797089219628;0.047542571632507274;0.0825940654634444;0.6958694863118481;0.48423434197991533;0.5843895201159888;0.7049778593899215;0.22974679564870745;0
1.3010429269129435;-0.18983089267585182;1.6927126976701992;1.4141359090300747;0.06134385479822913;0.1476010654621303;0.0037630685215062193;0.07349634896061952;0.031953628584866764;-1.325526540775601;0.047542571632507274;0.0825940654634444;0.6883098617382162;0.4737704657660822;0.5843895201159888;0.6550088400596701;0.22559484529026175;0
1.118943672516819;-0.9722171924641826;1.252034942265426;1.6176055574637103;0.07150490219404938;2.4330620657209203;0.005112951037780569;0.06375802261031405;0.031496985545366334;-0.47835289317069396;0.037090853472009674;0.0825940654634444;0.6971759275875561;0.48605427400756923;0.9737483520148089;-0.5840757017349029;0.2197721100895575;0
1.104607008810308;-1.0683844403272384;1.2201566439128557;1.4248757036708433;0.09426155986013317;0.6189675396779555;0.008885241667265469;0.0493238450175304;0.030711195865744438;0.1625552313812726;0.027531355154481376;0.0825940654634444;0.713805858871582;0.5095188041593969;1.0423576545673061;-1.4220855467152214;0.21333746741682516;1
1.1332679050075924;-0.9308272098930322;1.2842961445202976;1.6919875677576723;0.10955329637400789;-0.9006411568197014;0.012001924746411211;0.13142930430096644;0.024950111093376547;2.754831581780281;0.027531355154481376;0.0825940654634444;0.8209497862447876;0.6739585515353625;1.189632309370955;-0.7616458389745618;0.22699797443353598;0
1.2145623243476404;-1.4635409947216478;1.475161639724743;1.9035599801284644;0.10754134004546755;-1.775558355075243;0.011565139818774882;0.19045343531811998;0.015015436949633898;-1.44582865014816;0.022942795962067875;0.039767513000917604;0.8763134301939214;0.7679252279382367;1.405171246283417;-1.3774236336105734;0.23839719781471788;0
1.3858431594974163;-1.198733945566522;1.920561262725781;2.131248481184328;0.10913746748122607;-1.920362773132114;0.01191098680821568;0.1888582519303803;0.015015436949633898;-1.4458286501481707;0.022942795962067875;0.039767513000917604;1.0378187704116824;1.077067800218816;1.5715870797059814;-1.0824363737844227;0.26288679239191565;0
1.3293719539290445;-0.6442976657386527;1.7672297918931257;1.7608576802019065;0.12262106247108279;-0.5265667712822548;0.015035924961537186;0.18757559500832022;0.013520747646050659;-1.2165434163531725;0.019628836545324775;0.0387478331803813;0.9958048056883174;0.9916272110319476;1.3162245751146369;-0.8121972977586717;0.24221526115657585;0
1.4089569211676305;-1.3577409716344968;1.9851596057061687;2.2448703041534523;0.15535221430702134;0.3749052476728717;0.024134310490094683;0.1522006971939991;0.020350781563841625;3.0066423387771186;0.0237075558274701;0.07035790761700811;1.0989068552550987;1.2075962765266506;1.6442868946669957;-1.296600365714484;0.28003680057482205;0
1.3653280454376513;-0.9416429850859583;1.864120671658597;2.0236048706005025;0.19546503870737672;0.2458947831299229;0.03820658135687628;0.1669879283141038;0.01908978125772086;2.7601543647688893;0.01758947690425195;0.06525950851432641;1.0741707980457205;1.1538429033741802;1.5319654193396657;-1.0844261173629828;0.2706346937432025;0
1.1214737030410178;-0.4595032836746599;1.2577032666125332;1.0617081736945977;0.17978920627017306;-0.011150784780041485;0.032324158691258834;0.19004270686049285;0.023749761267393126;0.4345938303595115;0.01707963699398385;0.0734169470786172;0.9556979295368767;0.9133585325210729;0.9792601491326471;-0.43044289075445413;0.23329951621627942;0
1.154286250753525;-0.3979374906362954;1.3323767486786293;1.0617081736945977;0.15580288806485756;0.3282284519328625;0.024274539929350532;0.18405416312723943;0.022802000612297375;0.5427402732387431;0.0140205975323748;0.0734169470786172;1.0018617555579705;1.0037269772496986;0.9792601491326471;-0.5103350019794836;0.2464535697081398;0
1.2487930922248196;-1.1540161271334237;1.5594841871884269;1.8979802870682594;0.1693575229009926;0.2062974617372793;0.028681970563160235;0.18405416312723943;0.020449036953759957;1.006300160794385;0.00815743856429075;0.061180789232180996;1.0553423402266824;1.1137474550751305;1.4884328125182202;-1.044746836899036;0.26459390912849845;0
1.4224484739570828;-1.5205221528643733;2.023359661062834;2.3344938036917933;0.2020906270006119;-0.0986924545242301;0.04084062152150044;0.1885434315242871;0.02084768025854955;-0.05213553038413871;0.020903436320995127;0.061180789232180996;1.1317652987125852;1.2808926913699874;1.904369337314784;-1.3735817057696333;0.2950997955156435;0
1.3208588385023536;-0.8979492610193484;1.7446680712497868;2.1015971063480965;0.2519128459974245;-0.39545715572339546;0.0634600819785221;0.29560088666093876;0.020936984223857345;-0.5799489104573082;0.02447231569287235;0.061180789232180996;1.0460488194919981;1.0942181327606029;1.7329561301474632;-0.5365405715011023;0.2804235492659342;0
1.2559328581406113;-0.060080904662679;1.5773673441572447;1.439095054793247;0.3257214337537582;-0.48483920753366405;0.1060944524066039;0.41082691735481003;0.02552053057768635;-0.2487241811936331;0.029825634750688224;0.0846334251045171;1.0006292472796865;1.001258890511512;1.299710694355169;0.3073453562002939;0.2731591581219586;0
1.035257705452539;-1.3307967201925253;1.071758516698856;1.439095054793247;0.3856210126892112;-1.2660884869306324;0.14870356542745275;0.5455509762943245;0.02819864888136349;-0.69547533271977;0.029825634750688224;0.0846334251045171;0.8469030646877567;0.7172448009775146;1.299710694355169;-1.2954318854835678;0.23610633089099992;0
0.9140829803433784;-1.080998983125248;0.8355476949534331;1.3704704453970697;0.390221684036954;-1.4284730836413193;0.15227296269263635;0.611700713361018;0.033321504286327484;-0.9819008397327019;0.047415111654940306;0.0999286224125623;0.782816881730695;0.6128022703225688;1.2421321755890946;-0.7725989161074059;0.22218410252600213;0
0.8666768842090685;-0.2872407307933972;0.7511288216223391;1.0685745174749686;0.3606169106507103;-0.5715928885183986;0.13004455624726236;0.47125940012535406;0.031032832903064633;-0.6996341257170197;0.047415111654940306;0.0999286224125623;0.7064086153124004;0.49901313178758283;0.8261956507925308;-0.026080911733008656;0.19442927795346956;0
0.9272834984518799;-1.0518356785822094;0.8598546865011575;1.4151808953173892;0.27817078672794976;-0.38144213056780224;0.0773789865888465;0.2767511569812928;0.030853810732953322;-0.5989261603311397;0.04690527174467213;0.0999286224125623;0.7526521334001232;0.5664852339117568;1.1242181216576124;-0.6462427371771388;0.21194651524643718;0
0.9501430962049289;-0.9519181368628225;0.9027719032658887;1.4700400208597604;0.24204955735068556;-0.6593326649537846;0.05858798821366282;0.2767511569812928;0.030441992242257115;-0.962740850224436;0.0379830733149791;0.09075150402773521;0.8061652553147266;0.6499024188766583;1.2885182048198849;-0.7984671651211096;0.2353635411724178;0
1.0612376007918605;-1.0544924188730793;1.126225245334464;1.5787967650898829;0.3035090016238896;1.4088565729796383;0.09211771406673022;0.2767511569812928;0.029803039266877326;-0.8414839264869067;0.03415927398796782;0.09075150402773521;0.9106392942506304;0.8292639242332862;1.2885182048198849;-0.6220422222678833;0.271565431480697;0
1.0694621940330806;-1.1231314909969667;1.1437493844660507;1.5787967650898829;0.48684152398716407;1.9651725294496387;0.23701466947814442;0.3645397691228429;0.029140224062410056;-0.5268080055194514;0.030717854593657647;0.09075150402773521;0.986141007897685;0.972474087457462;1.398525830505239;-1.1255672333540307;0.3018671750668346;0
1.1046403092345962;-1.1961336812798922;1.2202302127859046;1.5787967650898829;0.6527012113828193;-0.07861852202740138;0.42601887134059985;0.7167739126556099;0.03881072947289162;1.7279838417734734;0.030717854593657647;0.136637095951871;1.1608835882012887;1.3476507053550992;1.7430061175732052;-1.0757160848297684;0.3709448515505471;0
1.9823388348330693;3.743316728972292;3.9296672560873307;1.8270289166578826;0.8157719742776547;-0.9258428528228697;0.6654839140168625;1.2193387917641194;0.03849600815546991;1.9314057858945293;0.030717854593657647;0.136637095951871;1.1165851676445655;1.2467624366038423;1.6572636487025232;-0.6693821224563875;0.3660875197705438;1
2.3984253990935556;0.2570693333952363;5.752444395017081;1.6693388000407718;0.8895750550374724;-1.6391134784063692;0.791343778544922;1.4814779319087599;0.04546728448158463;-0.39723970040480794;0.04563067196900168;0.136637095951871;1.0688642342802566;1.1424707513235193;1.3232322260547078;-0.04164664221690221;0.3604674637482916;1
2.1837288409658724;-0.2616312078745184;4.7686716508661515;2.0555973279220128;0.9096784082262558;-1.894527267015581;0.8275148063930544;1.7149378885126432;0.04607531961319904;-0.9460561118012331;0.05786682981543788;0.136637095951871;1.0257729566296727;1.0522101585527806;1.268386043811922;-0.7185569351605058;0.4018699914305186;1
2.0085265416186413;-0.0024228536379661747;4.034178868386539;1.8212089581007405;0.9372255825355503;-1.6107860126687048;0.8783917925591016;1.58149145106946;0.04567111527059367;-0.9337954521515576;0.07175996737024562;0.136637095951871;1.0059526295058396;1.011940692809713;1.6172610200939375;-1.3484673968862648;0.44714487346808196;1
1.91384554452139;-1.1144696696762766;3.662804768284376;2.8279637209874737;0.9246068848495191;-1.1448707279923644;0.8548978915111319;1.3003318805295232;0.05278601083004703;-0.5650100332183777;0.0740542469664524;0.1733455694911797;0.8783400046199754;0.7714811637158184;1.3251906525317942;-1.2905756487115134;0.4246409925997587;1
1.8282347313767262;-1.1897764541246;3.3424422330121306;2.4841216052077053;0.856937276675713;-0.6704054828454952;0.7343414961563874;1.1246029615223925;0.05499135467519372;-0.5767479655671183;0.07405424696645242;0.1733455694911797;0.9151344053146075;0.8374709797905204;1.4226143069329307;-1.2437501156506232;0.489384574923593;1
1.7289460663367557;-0.9707357210791712;2.989254500301341;2.406033444231322;0.7564315089237801;-0.5227243780010637;0.5721886276927068;1.0470463072095006;0.04266984065209933;-0.6050722921470282;0.04767003161007445;0.1356174161313347;0.9608276834871178;0.923189837355221;1.2189294384448666;-0.8001700538039574;0.574306717950516;1
1.6825312082012334;-0.9407693562744218;2.830911266571102;2.3597826926960566;0.6435673391948186;-1.090662804932742;0.4141789200782987;0.8933001302145653;0.035491148803811316;-0.12304183832309892;0.045375752013867655;0.11981237891302121;0.9593209769126935;0.9202967367447246;1.2045121967733838;-0.5507732673164425;0.5895062255905348;1
1.4969162573315176;-1.1544665255928572;2.240758281463398;2.0187833027231945;0.5877364309484711;-1.1554376442378944;0.3454341122640469;0.9610846182065733;0.028169135656533176;-0.8273373824297556;0.04027735291118588;0.08769246456612631;0.9843208618207451;0.9688875590155342;1.4547635063593944;-0.9893780351189341;0.5927156766738149;1
1.399648771673634;-1.048002648562642;1.9590166840475125;2.0187833027231945;0.5286425905761732;-1.4001278051708665;0.2794629885710876;0.8274507840303382;0.02886112222774369;-1.165281772597569;0.044865912103599456;0.08769246456612631;1.0054034184267469;1.0108360337841884;1.4589404245271007;-1.0513168327778344;0.6185034317554539;1
1.240888923198576;-0.645689112497215;1.5398053197169217;1.691477157605307;0.4560255935644013;-0.45635098554499465;0.20795934198576455;0.5146636853396234;0.03614218009055564;0.7315266846108263;0.044865912103599456;0.1244009381054348;0.8393775546486987;0.7045546792480291;1.066773874742816;-0.14806324290703493;0.5620160140454921;0
1.2269203669803235;-1.0779707690218459;1.5053335869111315;1.7966071042312395;0.3731257889774371;-0.36282252115234775;0.13922285440003493;0.5004808329810427;0.044880844323179826;-0.5949345705418781;0.05174875089221986;0.1356174161313347;0.609285828413772;0.37122922070585634;0.8965990343035838;-0.45337155959166103;0.46438462030529665;0
1.2272921034118416;-1.0772947430535607;1.5062459070970622;1.7966071042312395;0.28752308036657426;-0.8370969190088289;0.08266952174348352;0.32755913940219616;0.04698943066433394;-1.2594498078976366;0.07265218721321508;0.1356174161313347;0.5939389432547564;0.3527634683145768;0.8150922957247069;-0.30845153367578654;0.4461427461967982;0
1.0942647954689306;0.13144460924802207;1.1974154426026606;1.5179289981296482;0.2527574843844136;-0.04069576863015507;0.06388634591233709;0.27224017022451397;0.047585058291696375;-1.4993301619117057;0.0764759865402264;0.1356174161313347;0.5861179691721742;0.34353427378651374;0.8053245430324412;-0.22603665997145583;0.43610792742135845;1
1.051010429824043;0.5234558489082792;1.1046229235989196;1.115754914003677;0.2543836698376574;1.0402416879015621;0.0647110514800743;0.29827525731553717;0.04578552902064625;-1.6166878515289227;0.0764759865402264;0.1233812582848985;0.5663988165704967;0.32080761941245917;0.6068062786441366;0.4834106852455408;0.42990243715884063;1
1.3559182728318169;0.3279423221957022;1.8385143625992175;1.5403778208002346;0.2649382083452226;1.860685489869749;0.07019225424117656;0.30572278093930005;0.04397331049478891;-1.4091953880427326;0.06831854797593558;0.1233812582848985;0.8895348533359547;0.7912722552994185;0.8455128657286979;2.0862589194382752;0.5574878869866947;1
1.3060930844680825;1.0014717235548392;1.7058791452953495;0.9542369490805152;0.2816199167938763;1.9195644667539662;0.07930977753498983;0.30511355679981567;0.04396661058053578;-1.3679023654732494;0.06831854797593558;0.1233812582848985;0.8177950301081699;0.6687887112696225;0.7176285942244895;2.778474631469581;0.48315342422749813;1
1.356352453503372;0.3354223818629854;1.839691978124617;1.557877209439193;0.3102871173146531;1.6495479478923687;0.09627809517143729;0.3245627728000393;0.04804941747360258;-1.3488862929545888;0.07673090649536042;0.1376567757724074;0.8324311824109559;0.6929416734501022;0.7583104201239284;2.6724741114488952;0.500405929089522;1
1.3233163518426907;0.6918004213070371;1.7511661670542478;1.557877209439193;0.40994641555742073;1.1655611988198251;0.16805606362837747;0.36468418709963235;0.04804941747360258;-1.3488862929545904;0.07673090649536042;0.1376567757724074;0.8415184121062438;0.7081532379138139;0.7583104201239284;2.3617267195379705;0.5034006919626078;1
1.799034257294726;1.127135442802574;3.2365242589199865;1.1654052539276514;0.5506722383416957;0.5060945496252478;0.30323991408025325;0.47918244577342917;0.04910734446687632;-1.50457909543384;0.07928010604670133;0.1376567757724074;1.4402508150719235;2.07432241031534;1.1967972926230581;2.9752379365075754;0.6753130299656758;1
1.8532996517701348;1.079733286086905;3.434719599251303;1.591930628054395;0.6784734105259265;-0.007005113558459389;0.46032616879068233;0.7201844246806512;0.044391675073512646;-0.5068619383763523;0.06347506882838788;0.1376567757724074;1.4403782964768408;2.074689636961526;1.3041790950644125;2.6488392008330797;0.6620393857693715;1
1.6328988441489327;0.8727802886631955;2.6663586352229203;1.669989668947001;0.7221639443931983;-0.846067220881786;0.5215207625815423;0.9745090492538958;0.03471922859675826;-0.807317657208043;0.045120832058733504;0.1060467013357806;1.4836786630013628;2.2013023750455116;2.0836002890551657;0.6700578693427133;0.6136699892982541;1
1.7321721958700789;-0.6767866324220562;3.000420516145371;2.372992506680834;0.8033242070561274;-1.440299097464168;0.6453297816423558;1.29576044292565;0.029071507028157684;-0.13408698981462358;0.037728153359844974;0.09584990313041711;1.5778836360388568;2.4897167688792035;2.14190189900451;-0.9146080849808043;0.5616321906983356;1
1.7109684383623736;-0.5933742492035573;2.9274129970721794;2.1535838210966265;0.8500643424521849;-1.7957453103329521;0.7226093863086654;1.5562796602859055;0.03430060381779775;1.8071295245806769;0.02855103497501789;0.12032221882328949;1.457682349004471;2.1248378305991924;1.927042684359809;-0.7616458521918261;0.4813080528217973;1
1.733551999209948;-0.9893467566898296;3.0052025339648076;2.3498763566626018;0.8618271032285683;-1.7890803915484415;0.7427459558593453;1.5936794143767075;0.05661860900031192;2.233078893402485;0.03925767309064958;0.18660140715815232;1.4396662070015194;2.0726387875821417;1.9850569451960332;-0.9831119291184633;0.43204120374244065;1
2.119850943954746;-0.8054715431532367;4.493768024585828;2.6965898982214647;0.810812373611821;-1.2821431675787056;0.6574167052020352;1.3036395816374124;0.07963845189943805;1.9643929856728153;0.052258590802488014;0.30590394616090544;1.8393221440006204;3.383105949411039;2.416522022367205;-0.6539695250659899;0.5018797677673031;1
2.0647676447833367;-0.6307587698119137;4.263265426944127;2.501922452790807;0.6833312717852502;-0.12175977922422732;0.46694162699964753;0.9193670006247601;0.0787350864766733;2.4029868900535254;0.03517895380850411;0.30590394616090544;1.6842381826588648;2.8366582559260354;2.1059359594816565;-0.032219198870316844;0.4321629891716145;1
1.9405997761509823;-0.6877259062394414;3.765927491197243;2.6522291769120234;0.5010953392705358;0.11958257357078647;0.2510965390386535;0.6279615667517966;0.08113530813242069;1.5132461471994125;0.04767003161007442;0.30590394616090544;1.4537612329999687;2.113421722573589;1.9969882382678699;-0.5804327459654749;0.334681935731747;1
1.905456810974627;-0.4291693811284293;3.6307656584895955;2.176384409371096;0.4442347520997935;-0.9484925584684173;0.197344514973165;0.6279615667517966;0.08118130441415347;1.502667977420783;0.04830733149790965;0.30590394616090544;1.3749693593260757;1.890540739085559;1.9969882382678699;-0.3278208010128836;0.3117244455747764;1
1.9122354907279866;-0.4533566435935375;3.656644571999704;2.176384409371096;0.6293263016877391;1.9163860714918417;0.39605159399596723;0.6279615667517966;0.08117404638504964;1.5069669384545554;0.04830733149790965;0.30590394616090544;1.3584910052523145;1.845497811351444;1.851169289290851;-0.14919315268010028;0.30935216596633863;1
1.5574311467969142;-0.45965907679495793;2.4255917770131514;2.1579185422572067;0.9868708350905457;1.5234780057827788;0.9739140451523112;0.9845125529244472;0.08126237945226952;1.4755752395901018;0.0498368512287142;0.30590394616090544;1.3053358368332406;1.7039016469211365;1.851169289290851;-0.1843615294008854;0.29495287172438184;1
2.3003935487460114;1.3307446543436174;5.291810479112269;2.165162319300249;1.4410186648244945;0.6793292464248505;2.076534792372569;1.6924888779219212;0.08258932710339457;1.1419963417920707;0.06513204853675952;0.30590394616090544;1.4937058261599665;2.231157095104228;2.0050765048943044;-0.5441737468258536;0.35066421976492823;1
2.3003935487460114;1.3307446543436174;5.291810479112269;2.165162319300249;1.4410186648244945;0.6793292464248505;2.076534792372569;1.6924888779219212;0.08258932710339457;1.1419963417920707;0.06513204853675952;0.30590394616090544;1.4937058261599665;2.231157095104228;2.0050765048943044;-0.5441737468258536;0.35066421976492823;1
2.3003935487460114;1.3307446543436174;5.291810479112269;2.165162319300249;1.4410186648244945;0.6793292464248505;2.076534792372569;1.6924888779219212;0.08258932710339457;1.1419963417920707;0.06513204853675952;0.30590394616090544;1.4937058261599665;2.231157095104228;2.0050765048943044;-0.5441737468258536;0.35066421976492823;1
2.3003935487460114;1.3307446543436174;5.291810479112269;2.165162319300249;1.4410186648244945;0.6793292464248505;2.076534792372569;1.6924888779219212;0.08258932710339457;1.1419963417920707;0.06513204853675952;0.30590394616090544;1.4937058261599665;2.231157095104228;2.0050765048943044;-0.5441737468258536;0.35066421976492823;1
2.3003935487460114;1.3307446543436174;5.291810479112269;2.165162319300249;1.4410186648244945;0.6793292464248505;2.076534792372569;1.6924888779219212;0.08258932710339457;1.1419963417920707;0.06513204853675952;0.30590394616090544;1.4937058261599665;2.231157095104228;2.0050765048943044;-0.5441737468258536;0.35066421976492823;1
2.1959729991580375;0.8607372162301955;4.822297413031147;1.6520507253580037;0.6308436287352507;0.17055449435736034;0.3979636839158588;0.7695908532443035;0.057296368746461095;-0.7692584432875584;0.06627918833486277;0.171306209850107;1.3205654227494132;1.7438930357613365;1.355853063442254;1.8982099662178555;0.6307579345057797;0
2.1959729991580375;0.8607372162301955;4.822297413031147;1.6520507253580037;0.6308436287352507;0.17055449435736034;0.3979636839158588;0.7695908532443035;0.057296368746461095;-0.7692584432875584;0.06627918833486277;0.171306209850107;1.3205654227494132;1.7438930357613365;1.355853063442254;1.8982099662178555;0.6307579345057797;0
2.1959729991580375;0.8607372162301955;4.822297413031147;1.6520507253580037;0.6308436287352507;0.17055449435736034;0.3979636839158588;0.7695908532443035;0.057296368746461095;-0.7692584432875584;0.06627918833486277;0.171306209850107;1.3205654227494132;1.7438930357613365;1.355853063442254;1.8982099662178555;0.6307579345057797;0
2.1959729991580375;0.8607372162301955;4.822297413031147;1.6520507253580037;0.6308436287352507;0.17055449435736034;0.3979636839158588;0.7695908532443035;0.057296368746461095;-0.7692584432875584;0.06627918833486277;0.171306209850107;1.3205654227494132;1.7438930357613365;1.355853063442254;1.8982099662178555;0.6307579345057797;1
2.1959729991580375;0.8607372162301955;4.822297413031147;1.6520507253580037;0.6308436287352507;0.17055449435736034;0.3979636839158588;0.7695908532443035;0.057296368746461095;-0.7692584432875584;0.06627918833486277;0.171306209850107;1.3205654227494132;1.7438930357613365;1.355853063442254;1.8982099662178555;0.6307579345057797;1
2.1959729991580375;0.8607372162301955;4.822297413031147;1.6520507253580037;0.6308436287352507;0.17055449435736034;0.3979636839158588;0.7695908532443035;0.057296368746461095;-0.7692584432875584;0.06627918833486277;0.171306209850107;1.3205654227494132;1.7438930357613365;1.355853063442254;1.8982099662178555;0.6307579345057797;1
2.3068037705679423;0.34225533245966894;5.321343635906476;2.135781526408729;0.8276110365908436;-0.5731407315583402;0.6849400278869706;1.1676200396486218;0.059511808334639905;-1.1697342188590163;0.08871214438666247;0.171306209850107;1.3184269854896145;1.7382497160672319;1.3780077171946592;1.8787805304317169;0.6270822127141639;1
2.49082950685397;-0.16895170694704476;6.204231632214391;2.4352626515245155;1.0050740859455731;-1.0015741037413801;1.0101739182393294;1.5561673309468784;0.05915949587066758;-1.0928164987356195;0.0859080248801875;0.171306209850107;1.3352568238412867;1.782910785614721;1.6928836307509494;0.7123233408079983;0.5885735584862497;1
2.8239812278799814;-0.5570046607557566;7.974869975418528;3.6288017585964587;1.148137272330313;-1.2111336478299581;1.318219196114091;1.7889951672982343;0.056958243446150775;-0.6184771318498831;0.06806362802080132;0.171306209850107;1.4659761315334416;2.1490860182257547;1.7200086141411868;-0.8573374201247371;0.5761353638039869;1
3.0217210568458603;-0.9252615667881615;9.130798145385663;4.1398651757334735;1.2514578094187419;-1.3137188911384803;1.5661466487551559;1.9539369817144228;0.05188746635165224;0.8632748932077965;0.04996431120628114;0.171306209850107;1.4723365728325253;2.1677749837002263;2.376900631057393;-1.1308896263367672;0.5171773930504746;1
2.9091131977009344;-0.6889469472857925;8.462939597037755;3.6288017585964587;1.323867011086804;-1.3142534447974086;1.752623863043908;2.050992774195445;0.05467106967916274;0.7104590357710805;0.06882838788620368;0.171306209850107;1.4776437298498162;2.183430992364477;2.4146011446266282;-1.1697060543871112;0.5156116363270019;1
2.9028448510537483;-0.25840847525054195;8.42650822928926;3.5210433990866323;1.341074010729734;-1.3749415423996005;1.798479502254735;2.0801625447413503;0.03723359774839293;-0.566854871129444;0.05353319057815845;0.1111451004384622;1.4166372681108395;2.0068611494005424;1.9349805231298487;-0.502386604343713;0.4585826457709238;0
2.1752411816425044;0.19164213099313646;4.7316741983134785;2.491153070658032;1.2827833785442349;-1.4311795371273368;1.645533196269362;2.0905513829101654;0.030735261552532304;-0.9692242529909036;0.048434791475476746;0.0856531049250535;1.2645888198400548;1.5991848832644626;1.5591685759210785;-0.287665831906637;0.4278835724135305;0
2.1034754807170457;1.4976444602975647;4.424609097977806;1.0464307366799281;1.1511294401145917;-1.3116731707702998;1.3250989878985333;1.907538960850188;0.03656977581668674;-0.28756044038120365;0.048434791475476746;0.12185173855409401;0.9569661135420598;0.9157841424677946;0.5893132413883206;0.4000568428539708;0.29252485289631425;0
1.379095516776389;2.56114252916342;1.9019044443927353;0.9745860122031182;0.9768284070506678;-0.9236153072816978;0.954193736821145;1.4729481813612588;0.03523252420550201;0.4314719886787728;0.03798307331497908;0.12185173855409401;0.9612484396529809;0.9239985627352905;0.5516127278190854;0.6211236518405302;0.2901335071929817;0
0.8548232974236935;-0.2727657833585947;0.7307228698183162;1.0083204533911445;0.7663128838316802;-0.1909299530238349;0.5872354359264261;1.0118062134434846;0.03000104517969934;0.9183655923792416;0.029060874885286032;0.1065565412460488;0.6999137490291775;0.4898792560800785;0.384893027264142;3.8194303421378137;0.19718773434989584;0
0.8288272114600034;-0.8323877263398047;0.6869545464565651;1.0974386170121815;0.5664526879191188;0.3584566738004002;0.3208686476507947;0.6562001227035115;0.030900205779119075;0.13666411560731614;0.035433873763638275;0.1065565412460488;0.37120982894972765;0.13779673710888607;0.23553133051060104;0.15449198564591068;0.09893579467170788;1
0.9590281668350092;-1.5460331055310224;0.9197350247829184;1.5432092329714548;0.4088061770342557;-0.42303062139719266;0.1671224903813632;0.6074551013467357;0.028247155591321096;0.1982333171930389;0.035433873763638275;0.0912613439380035;0.4072962058935186;0.1658901993352555;0.42552768396421836;0.09672120512309997;0.10425339552508556;1
0.9390857295011189;-1.5849540101340307;0.8818820073526488;1.5432092329714548;0.35964326510537686;-1.6326852224256518;0.12934327813565638;0.6074551013467357;0.027000878621306904;0.4306140583019819;0.035433873763638275;0.0892219842969308;0.4095554791448472;0.16773569049756537;0.42552768396421836;0.040527833331900354;0.10478568149022667;1
0.9585280704417263;-1.6794780005604655;0.9187760618247389;1.6685941244479559;0.42475448495580365;-0.9962402865517538;0.18041637249007003;0.6074551013467357;0.02882592551042952;0.03914687593443844;0.040022432956051845;0.09177118384827171;0.402244673525182;0.16180077737938026;0.3551511255306199;0.41214493787229756;0.1031628689951043;0
1.1350448315774944;-0.9746804280083262;1.2883267696907827;1.901133154549701;0.5178406156136379;-1.1881765791448768;0.2681589031791115;0.8033543247068837;0.02936434951688795;-0.32059852538763983;0.04231671255225862;0.09177118384827171;0.5297935381243256;0.28068119303829125;0.6067231556297097;1.023359445513229;0.1295476818019051;0
1.0701883867034003;-0.6667170865667492;1.1453031830348266;1.6670667821539213;0.6074633750581889;-0.7505817157143129;0.36901175203708597;0.8965511902708276;0.03606510290297865;-0.29704841112725183;0.05072907107168352;0.1228714183746304;0.5766265975843471;0.3324982330417005;0.6143513807361778;0.5788794895184698;0.1424931934113763;0
0.9676355065769567;-0.140647146726556;0.9363184735884437;1.0575056245601004;0.7001598114314364;-0.4529035915420176;0.49022376154370445;0.8144756260671646;0.03830662788004215;-0.5239179229764304;0.05136637095951875;0.1228714183746304;0.5860165542808318;0.3434154018911791;0.7085516031760184;0.45883953175131303;0.14527863488659779;0
0.918050367852306;0.1459053674172058;0.8428164779137542;0.9743164801586683;0.782881181415457;-0.7388945474582356;0.6129029442144617;1.0224910526683892;0.03547405538307966;-1.107428236892981;0.052513510757622145;0.1024778219639033;0.5861271755655755;0.34354506593647893;0.7707616593782838;-0.13680880121890432;0.14282942610759292;0
0.7482283770303223;-0.8929816006568296;0.5598457041934302;1.1708987302634384;0.8464629886871085;-1.1552349295193;0.7164995912171119;1.361422924629489;0.03515719062319398;-0.9805740836800639;0.04932701131844605;0.1024778219639033;0.5639868335437923;0.31808114841075324;0.6161659279147593;-0.04807528220036821;0.1346796934104493;0
1.2087691662524045;3.627562751731567;1.461122897282533;0.9316611709743294;0.9068036504940945;-1.5183977761562555;0.822292860549416;1.4657720925538957;0.03353852850138956;-0.15760753917535553;0.028041195064749676;0.1024778219639033;1.0408480789249839;1.0833647234018293;0.6745404258000938;3.7835299237364928;0.23066482911082856;0
1.5150378400744549;0.48561373460495666;2.2953396568574695;1.1586860842306437;0.9395482889748878;-1.6027920212770488;0.8827509873156393;1.5760515842336735;0.02785616676479385;2.2364985889378133;0.0220505761190986;0.1024778219639033;1.3635614219193282;1.8592997513466598;0.8855935236040979;0.43325262024476935;0.2800062907122416;0
1.89377396729195;-0.8923425606879353;3.5863798391926918;2.892462110064814;0.8746524010023592;-1.6152485012535922;0.7650168225791918;1.5481801312145693;0.028935130544265945;1.1051201192070081;0.0281686550423167;0.1024778219639033;1.7401331243789078;3.028063290560699;2.376301060480932;-0.7976556122815636;0.332544745155702;0
1.8468562308978635;-1.0782100477348828;3.4108779376062626;2.939909807154041;0.8000270752241667;-1.2251789570234624;0.6400433210917346;1.2261023177021708;0.02879585161046898;1.8198296325933785;0.022305496074232704;0.1024778219639033;1.7194534168378441;2.956520052675337;2.4895732334917406;-0.987303136549129;0.32063282557810363;0
1.9580400952387946;-1.1260137046046081;3.8339210145627476;3.0338211154116044;0.6921898250596595;-0.410685948556416;0.4791267539161221;0.9475468340274497;0.03574862951616601;1.1792197707302015;0.026766595289079226;0.13153869684918928;1.8948599649864861;3.590494286908587;2.8985621416966927;-1.060608872591359;0.36353264629035986;0
1.9868236876357306;-1.173714646844412;3.9474683657504435;3.1118561541262544;0.5271196562759658;0.5796766885064538;0.27785513203249235;0.6182371825661398;0.02628300423860314;0.8127632649640232;0.023070255939634902;0.09483022330988061;1.9302381958878212;3.725819492864271;2.991564950952795;-1.0982156922149617;0.3788991927128442;0
2.4909991985231;0.09161429065927454;6.2050770070427275;3.1118561541262544;0.37377948711274367;1.2968437933078272;0.1397111049862657;0.34716169156988846;0.03277530051308261;0.2524543615176163;0.03364943407769955;0.1142041399000713;2.45957042689429;6.04948668485296;2.991564950952795;0.09617645392210049;0.5154842793720628;0
2.941139625934887;-0.7541215166524806;8.650302299244407;3.7096967055742667;0.24643613388225663;2.9716741373696993;0.06073076808283351;0.1853543195913014;0.03456632708788022;-0.3897934520423329;0.04269909248495962;0.1142041399000713;2.8311470025637604;8.015393350125764;3.71009005128432;-0.8495868897778495;0.6376828883123615;0
3.492821568522666;-1.3491515998084078;12.199802509537136;6.054959069982699;0.14091804870423566;0.46929566508587833;0.019857896450609334;0.1853543195913014;0.03336849306820196;0.05957851324534147;0.03364943407769955;0.1142041399000713;2.970042738721114;8.821153869830015;4.8384858482467585;-1.4179273056564894;0.7142706558527221;1
3.6472619867145606;-1.763778026628127;13.302519999733043;6.638321627962923;0.14404822716083912;0.7298704526520916;0.02074989174818071;0.1853543195913014;0.03261846678600286;0.4883230656636052;0.020521056388294028;0.1142041399000713;3.1813311662901804;10.12086798960924;5.916888387057614;-1.7620673931952804;0.8446809580724672;1
3.769703307374009;-1.3706409623471656;14.210663025626545;5.494314796570329;0.19496218661412573;0.24003359870737842;0.03801025420936119;0.18935297608815838;0.033427643769805206;0.03640840749357415;0.03428673396553482;0.1142041399000713;2.9918354850672713;8.951079569707714;4.5027627228806075;-0.9758399964321965;0.9117850497135198;1
3.706950317760123;-0.3947764911974535;13.741480658341876;4.95360846950669;0.21452666385969563;-1.202061574433713;0.04602168950677084;0.3415712448389887;0.03342103343035674;0.0461207091946747;0.0333945141225655;0.1142041399000713;2.6117964044529716;6.821480458313469;3.0706736750036576;0.7639974157081346;0.9121489768415327;1
2.9593519829823096;-0.5148719348168816;8.757764159181328;4.041346633089584;0.23859606590317523;-1.887094629234736;0.05692808266447233;0.4492904990600898;0.03468660399320367;-0.15738094650824155;0.0333945141225655;0.1142041399000713;1.777769647700457;3.1604649202850066;2.332503951987985;-0.049307180664804155;0.7774716315423847;1
2.4865855578883003;-0.20223285654374074;6.183107736698669;2.621540326469223;0.29547320040873115;-0.3568619983650499;0.08730441215977819;0.42366346687555395;0.03485257074557734;-0.20148455437180854;0.0351789538085041;0.1142041399000713;1.4203347545231666;2.0173508149063837;2.332503951987985;-1.3654180664925353;0.6831453379076967;0
2.3303528114637917;1.937039526094455;5.430544225897198;2.9692848644870784;0.3141020832379352;-0.8833298064904136;0.09866011869441077;0.35572296107964646;0.029262619817700466;-0.6828883177206728;0.03288467421229735;0.0907515040277352;1.4808744323461915;2.192989084376655;2.645702495304237;-1.5848462981857128;0.6845259657927768;0
1.59878482910208;-1.420938493409709;2.5561129297669676;2.7294774800516755;0.33478352910538656;-1.2253398420507133;0.11208001136025719;0.5393100692894492;0.029755904167319956;-0.7331313938445534;0.03288467421229735;0.0907515040277352;1.5129675547586037;2.289070821752228;2.645702495304237;-1.504629254349815;0.6923792897507852;1
1.5310511973914769;-0.4909887962734548;2.344117769033875;1.7546401738955832;0.35261399375870933;-0.7689159332398334;0.12433662859446709;0.4682546170120011;0.026910447570881495;-1.0128846666280207;0.03288467421229735;0.0805547058223717;1.4307883326663906;2.04715525289427;1.8400302853268395;-0.9869063441126299;0.5516395665891954;1
1.412218100308074;0.18761947084341962;1.9943599628377453;1.7546401738955832;0.39582290867858116;-0.19906700337614222;0.1566757750347724;0.4113946311810178;0.024067708054927403;-1.1958337897263387;0.03288467421229738;0.0734169470786173;1.2157213891018317;1.477978495919687;1.6230765987642701;-0.5536065374897683;0.4412814946546471;1
1.6456274892523217;-0.8325979413983146;2.7080898333829;2.0791675369359357;0.42130482932041147;-0.9700293077635952;0.17749775920870103;0.5951103335930417;0.025585859843024094;-1.5125702420720815;0.03823799327011318;0.0734169470786173;1.2164521148574854;1.4797557477412486;1.6230765987642701;-0.560165320833634;0.441657761750538;1
1.3872087204507026;0.19969078815259625;1.9243480340944754;1.6607510385842799;0.4552369954625125;-1.412863919596806;0.2072407220377356;0.8066071390936052;0.03185509062866211;-0.7712745360104211;0.0458855919241358;0.0999286224125624;0.9445079459943155;0.8920952600464008;1.3452555847523708;-1.4497585435160347;0.3206782426813483;1
1.4315693987697171;-0.4793141062444235;2.049390943493889;2.010967911656433;0.5150949022521821;-1.107101533741093;0.265322758326185;0.6755676198844802;0.03186832517176172;-0.7802110088942226;0.0458855919241358;0.0999286224125624;0.9246461188113525;0.8549704450328979;1.16200612652701;-1.2859970292899712;0.3111967699260259;1
1.534894658329245;-1.3464237277522402;2.35590161216765;2.263129820198402;0.526902624818197;-1.2500787811979635;0.27762637604030577;0.7703244993244909;0.03149198765048279;-0.6527135232870914;0.04435607219333128;0.0999286224125624;0.9532194793103956;0.9086273757367819;1.385254965024489;-1.402159586583166;0.33366869168992286;1
1.5595853382453053;-1.4572415859432104;2.4323064272697237;2.263129820198402;0.5170261424890471;-1.5509855169946394;0.2673160320171044;0.9596828268610413;0.03346680374107395;-0.9552601520609626;0.04435607219333128;0.0999286224125624;0.9925551612999993;0.9851657482232677;1.5760485924016172;-1.8134233382325178;0.332502956701412;0
1.9839005937673662;-0.3838145003492609;3.9358615659505083;2.6678062027138196;0.5311863800129044;-1.3204722212903104;0.2821589703112137;0.7974080354087514;0.03186016754169597;-0.4768508477421755;0.0313551544814928;0.0999286224125624;0.96846704074384;0.9379284090071308;1.5400774575897214;-1.5834778298912582;0.3303037363470024;0
1.9017709311051147;-0.00745843792176767;3.616732674396415;2.1831585765971706;0.5119091078589332;-0.8536353090367713;0.2620509347089289;0.6901944439564871;0.03758257577836751;-0.9958934554791641;0.050983991026817575;0.11216478025899859;0.95214592507802;0.9065818626426785;1.4479362130454247;-1.3677815951033547;0.3288712666856852;0
1.8058822084507908;-0.28792761987412163;3.2612105507991056;1.9474865248340136;0.4564597387848646;-1.061236873671358;0.20835549313154686;0.7225253073748539;0.03215613122742003;-0.5306631955776437;0.0418068726419904;0.1040073416947078;0.8214680161554959;0.674809701566446;0.9042593388101516;-0.5287897041108002;0.29960978099946967;0
1.7850086473237468;-0.8532032619613032;3.186255871020552;2.372818633896473;0.4259284966002828;-1.1884951033910143;0.1814150842161771;0.6295953603607805;0.03636127341468863;-1.0336337503008184;0.04996431120628122;0.10502702151524419;0.7333035177126178;0.5377340490896996;0.9042593388101516;-0.9162406205831937;0.2726047443269819;1
1.962703338110783;-1.4115711202124384;3.8522043934312102;3.3593837733903054;0.39968659883512925;-0.8563732138698609;0.15974937728839356;0.5080218706496105;0.0387545410196388;-1.5613042075949555;0.0629652289181197;0.10502702151524419;0.7259347117512955;0.5269812057254365;1.0527172110175451;-0.8141203824617642;0.2537441140232355;1
2.0139784777450402;-1.6114126585612414;4.056109308820229;3.4732351528979075;0.38150539267515976;-0.4724350111859396;0.14554636464022785;0.5540735620944583;0.03872113938206857;-1.2612324715869145;0.05735698990516974;0.1152238197206077;0.5797352175718975;0.3360929224931353;1.0001259221205538;-1.282910067477643;0.19152734887993333;1
1.9567112483003466;-0.9795718407139441;3.8287189092251004;3.02154229957532;0.30527847606806524;-0.9409362239474416;0.09319494795044027;0.42371795394679346;0.03806440474550657;-1.1433261270254163;0.0540430304884266;0.1152238197206077;0.5393797540236649;0.2909305190506293;0.7033795368943898;-0.45578111541103034;0.17454606042526843;1
1.890442263510789;0.31899647101342665;3.573771951667795;2.027058105039243;0.2585759294187834;-0.2275893631110029;0.06686151127478764;0.3221510489508215;0.03766567302843351;-0.9896569909076481;0.05213113082492092;0.1152238197206077;0.4897533617926045;0.23985835538715772;0.4539794048566703;1.1188615530915007;0.15526592054231947;0
1.8562713722018118;1.4932078908529698;3.445743407255997;0.9045280648936824;0.20797356231298855;-0.10984920221209903;0.043253002621154536;0.2669648154693447;0.03567426437013951;-0.4044950810488349;0.042954012440093774;0.1152238197206077;0.366221015052454;0.13411783186604975;0.4539794048566703;-0.8262892423581961;0.11375323408398613;0
1.3568938929827488;2.0637859388242825;1.8411610368138795;0.9045280648936824;0.24550253365760022;0.9881564158019854;0.06027149403230113;0.2669648154693447;0.03576643960867781;-0.591780733209421;0.04486591210359947;0.1152238197206077;0.4404136998394832;0.1939642270063024;0.37033145879740426;1.32724622853878;0.1444677607929752;0
1.6712526394296998;-0.4080067234474427;2.7930853848007384;1.77131505945533;0.33692767648712346;0.8387338604952573;0.11352025918301173;0.2669648154693447;0.03424165372967844;0.09329405134178412;0.042954012440093774;0.1152238197206077;0.44321528849094105;0.1964397919521081;0.41422247406209367;0.9944703565211667;0.14642314209674384;0
1.8029637286437012;-0.16886203724919266;3.250678206804798;1.77131505945533;0.5039841348772086;0.9522268887899514;0.2540000082079284;0.5420398156593245;0.03151678592065996;0.8824004857101205;0.03339451412256548;0.1152238197206077;0.44264257371831256;0.19593244806797178;0.40725979015409797;0.9139789209317826;0.14699534799117486;0
2.2812166568475223;-1.0450049736796991;5.203949435478587;3.422040478157486;0.6998162276118398;0.16559881629118678;0.48974275242886633;0.8235138452022113;0.03294164700625702;0.190245988731427;0.035178953808504124;0.1152238197206077;0.5160095771223929;0.2662658836820308;0.6178874776329124;0.5866781740019391;0.16476394746054546;0
2.350853787227358;-1.8701107341586938;5.526513528921211;3.9975462326201505;0.8466817589869657;-0.8983989394670167;0.7168700010012624;1.2038712780837675;0.02798010222152511;-0.09451264142499786;0.035178953808504124;0.0856531049250535;0.486348371288801;0.2365347382552694;0.3576198164720146;1.4176717960858656;0.15728556405311916;0
2.1577124360292386;-1.8969671631994867;4.655722956595231;3.893489960989898;0.9722085870643323;-1.3719770862367504;0.9451895367616255;1.613655747950562;0.025921681455268502;1.7811483551738132;0.021158356276129317;0.0856531049250535;0.6187101738148038;0.3828022791819447;0.4029676810491787;1.075908861633651;0.21320220542817672;0
2.031242515722509;-1.551692895325002;4.125946157678706;3.460751621539707;0.9730386613596842;-1.80733097552782;0.9468042365006463;1.7454110628452235;0.02333219403747178;1.29274456567938;0.024344855715305376;0.0856531049250534;0.9935264743733512;0.9870948552807413;0.7896624340765883;2.2229560545604423;0.3801323081562815;0
1.8593186205488417;-1.0626092615887461;3.4570657327196477;2.2565974386126326;0.958048039719657;-1.7227569471498185;0.9178560464106774;1.6750169658044607;0.019629314744321818;1.4762485237671774;0.01924645661262367;0.0683185479759355;1.2068696226687718;1.4565342861206636;1.246388182976707;-0.33791201141797494;0.5151813887298452;0
1.647417533497;-1.0054921220983317;2.713984529673339;2.2565974386126326;0.8992380389037247;-1.2831285969217514;0.8086290506114167;1.4752936157533214;0.020416879970653144;0.22139620390472256;0.01911899663505665;0.0683185479759355;1.3597317842049599;1.8488705249772035;2.2312255518675355;-1.3708182064732017;0.6646845270726893;0
1.6132887128123696;-1.1441844160052475;2.6027004708877923;2.2565974386126326;0.7664292023601104;-0.74358908200871;0.587413722230355;1.0484796366616773;0.0382693638807436;3.626553698201587;0.026384215356378127;0.1325583766697257;1.3609995618104855;1.8523198072483338;2.3750936195178505;-1.5070132285233302;0.7239626129086525;0
1.6451520917854534;-1.2956524964151026;2.706525405106053;2.4307274556940444;0.6054014014445054;0.8815959578480214;0.3665108568709711;0.6022798763922088;0.037891049984851224;3.1481575303969884;0.029188334862853098;0.1325583766697257;1.4357393983603783;2.061347620004221;2.5606444189339004;-1.720764061522274;0.8415855277363645;0
1.6264204829165383;-0.9432265228673826;2.6452435872504654;2.2943130370311673;0.4091581788090223;1.8137446827324024;0.16741041528631587;0.368627908520245;0.035977385905285195;2.354892898975256;0.029060874885285953;0.12847965738758022;1.4032989826665687;1.9692480347530266;2.266130783189058;-1.0189392380743538;0.9432760711951286;0
1.592460514174988;0.16519261437140592;2.535930489206467;1.4594937623663293;0.2633163447500835;-0.22783182549265643;0.0693354974125448;0.356250921669335;0.03483205471312176;1.8087393273673504;0.0382379932701131;0.12847965738758022;1.3237677831702228;1.7523611437594058;1.1809321443278882;0.7418245737710204;1.0551233473750186;0
1.1890108503399415;2.604838168112729;1.4137468022261108;0.5695960347947404;0.19913675118101481;-1.010552802920562;0.03965544567092941;0.28556498600741853;0.034393479396460654;1.5847321301998971;0.03632609360660742;0.12847965738758022;0.9391548208318313;0.8820117774916693;0.641942018778648;4.328245978798189;1.0271110778547454;0
0.7407569276159416;1.5109104277966796;0.5487208258110093;0.5695960347947404;0.18146247712454042;-0.8244561834915665;0.03292863060417435;0.2370679346684696;0.03430940181824545;1.6213453112255638;0.03632609360660742;0.12847965738758022;0.4605981957709916;0.21215069794749272;0.44112681191640296;1.834373231507584;0.6823896810767077;0
0.6872484867656068;1.1978379253205662;0.4723104825616164;0.5695960347947404;0.19259858984989106;-1.2569173209606308;0.03709421681216656;0.29541714662492224;0.03797176086429978;1.8484017106608082;0.03632609360660742;0.1468338941572346;0.39670906049544347;0.1573780786791774;0.44112681191640296;0.26496373559850944;0.6125262443211104;0
1.0303363337826223;1.5974358722806261;1.0615929607126153;0.830359547576218;0.2079350231446847;-1.4002660657300343;0.04323697385018057;0.32428478889658086;0.04304721807203815;0.4333122057571716;0.040277352911185775;0.1468338941572346;0.7345465469016917;0.5395586295651993;0.6372943543724817;3.6419156326349937;0.8384837934997521;0
1.4654675405147395;0.6951112065442848;2.1475951123023194;1.3421951920248558;0.22748722671635782;-1.5285753681565295;0.05175043831909958;0.37926319629829636;0.046798286550503033;-0.3662862110406136;0.07290710716834906;0.1468338941572346;1.1485341010462053;1.3191305812660152;0.7945095105710859;1.9596916827371242;0.9409482162273483;0
1.4677244026480776;-0.014576349059922222;2.154214922128656;1.6829205341952442;0.24490022797534736;-1.4177114228752008;0.059976121662377105;0.37926319629829636;0.04889090347994915;-0.6964716604930032;0.08131946568777398;0.1468338941572346;1.0995033776233334;1.2089076774051186;1.2007444242058902;1.209340917234616;0.7812977018745041;0
1.5436846145432135;0.14187470246230557;2.3829621891774297;1.6829205341952442;0.2542378345608593;-1.6032257357241464;0.06463687652219485;0.4303906034940652;0.03750071922601196;-1.887607363426575;0.07290710716834911;0.0927908636688079;1.095720636884729;1.2006037140950763;1.2348359869550558;0.9613855238233049;0.7550734143222613;0
1.52502578873442;0.29988370330621245;2.32570365630504;1.4336965371299049;0.24386583803501027;-0.7488234435113316;0.059470546960517866;0.32775931487221044;0.03700078237898847;-1.755790561240256;0.07163250739267865;0.0927908636688079;1.0947965343435384;1.1985794516106223;1.2348359869550558;0.9670560459501344;0.7539921106552113;0
1.5169198671659674;0.3440021788821405;2.301045883402816;1.4336965371299049;0.21169707038691177;1.734184422527411;0.044815649610401076;0.1693550994796765;0.03658489686326345;-1.7646223241866248;0.07163250739267865;0.0927908636688079;1.06522438155022;1.134702983049049;1.1943884666441758;1.0926145804058112;0.7054760727584329;0
1.486973663346419;0.5996640203665881;2.2110906754858695;1.4336965371299049;0.13594537950983693;2.3940872136778077;0.01848114621007359;0.10215449088677184;0.03783670181183706;-1.6372349184010686;0.07163250739267865;0.1009483022330987;1.1264527233832167;1.2688957380174657;1.261987621237833;0.7326285862009243;0.7734833173238231;0
1.5370345134059933;0.2394581184150013;2.362475095401199;1.9686181665547209;0.15955652588266067;4.157993278448118;0.02545828495174416;0.08249741630836013;0.04963652224436027;0.2321269246609197;0.07239726725808088;0.15295197308045272;1.13579336836439;1.290026575620527;1.5266528369892152;-0.20116989379945188;0.6796846226837586;0
1.5965882378847776;0.09634006218855871;2.5490940013520187;2.0415304061215784;0.20678848840579755;1.1332137262510176;0.04276147893715467;0.13694784935080828;0.05211618044091616;-0.8449665944149051;0.08845722443152838;0.15295197308045272;1.159011487828639;1.3433076289187558;1.3627569476485215;-0.6317929080821345;0.6172333911456512;1
1.6131110959390689;0.16874970088503968;2.602127407841744;2.0415304061215784;0.2875652692167427;0.5479707927962342;0.08269378405969771;0.3542953381352836;0.05421494825723553;-1.3779433749050913;0.0802997858672376;0.14581421433669822;1.1596830009452626;1.34486466268141;1.328665384899356;-0.5438690170442959;0.5858603614183409;0
1.8593340253497062;-0.16978061681175557;3.4571230178231414;2.198836776783527;0.3555701609557586;-0.8114111725709;0.1264301393621041;0.47466261765435824;0.04947391497547501;-0.9484413875221881;0.05735698990516967;0.14581421433669822;1.448855589649657;2.0991825196590557;1.5165723036292653;-0.33579587555969376;0.6618905317429711;0
1.79966959398334;0.08870142103355505;3.23881064750816;2.198836776783527;0.4232505793371075;-1.3960327159145847;0.17914105290919713;0.6956352117026768;0.04330619132909526;-0.5319111567938946;0.04104211277658802;0.13663709595187112;1.4059080738595988;1.9765775121436073;1.5165723036292653;-0.03363487197041236;0.653825002021576;0
1.7996466765870542;0.03474048242267865;3.2387281605508296;2.198836776783527;0.47748727998687773;-1.77269982282921;0.22799410254926697;0.8531315578374562;0.03795574655908055;-0.5641375038876321;0.04104211277658802;0.113184460079535;1.4063172228134881;1.9777281311818422;1.5165723036292653;-0.035296496392324475;0.6548838104605929;0
1.563368940779108;-0.5991703088347856;2.4441224449927903;2.198836776783527;0.47198694561116933;-1.6728723175911948;0.2227716768273609;0.8484323107970149;0.03811732960471205;-0.5867957976945445;0.04257163250739255;0.113184460079535;1.4371226061997489;2.0653213852503587;1.7396021870165903;-0.2743555841312286;0.6848537848903978;0
1.4758442112446155;0.007450794491388381;2.1781161358642414;1.4713659872449452;0.42142856039284554;-0.7176471733078219;0.17760203151478626;0.5254545365258665;0.0350541871241608;-0.3887371933956878;0.03951259304578347;0.0968695829509533;1.305930089640476;1.7054533990283818;1.4191527473003152;0.5573499737798429;0.5711775767281373;0
1.4582205664912107;0.29669240311560585;2.1264072205379474;1.1354847967542119;0.3418102315749376;0.7465346678113676;0.11683423440931248;0.4079659510282502;0.03697954466335287;-0.4196141710214505;0.04257163250739255;0.0999286224125624;1.2591901562923866;1.5855598497036452;0.8309025491749784;1.1722002098370743;0.519398387375746;0
1.3591787267655668;0.7098446872815894;1.8473668112920676;1.1354847967542119;0.25372013357945744;-1.244209899505053;0.06437390618357773;0.4079659510282502;0.03709403131851534;0.2191919193617911;0.03466911389823585;0.0999286224125624;1.1185228278783863;1.2510933164850622;0.8309025491749784;0.9878088339032526;0.4474614052043561;0
1.3901106536259293;0.31746438668943916;1.9324076293243084;1.5434202518460365;0.23443427247619594;-1.2972949771230542;0.05495942811144328;0.38182001506615015;0.030678086489426513;0.6809417618897393;0.03466911389823585;0.0907515040277352;1.176840408066175;1.3849533460573613;1.3893798257411687;0.5840159558811513;0.49822864725514465;1
1.3727163657145656;0.5648889301574341;1.884350220700605;1.3013849199816263;0.2590543680691195;-0.9800374359262461;0.06710916561569084;0.38182001506615015;0.029555388767246213;2.1861690767760655;0.017079636993983852;0.0907515040277352;1.1630867766395068;1.3527708499936777;1.1634794393732126;0.9581392434764311;0.500107393539351;0
1.3866328708133204;0.5296150297329802;1.9227507184199903;1.3490166332583207;0.2898492806674011;-1.4676681305128554;0.08401260550340986;0.45489089403227734;0.018393710848605707;5.753334974674975;0.010260528194146976;0.0632201488732537;1.1975938593389384;1.434231051926333;1.3016255636960556;0.9150745957215979;0.5391362424017204;0
1.0092108310503536;0.045742652902102776;1.0185065015093455;1.2272517360718527;0.3038694963848547;-1.3629495242362302;0.09233667083318522;0.5304188491915895;0.019696679564841398;4.653974075271371;0.012044967880085576;0.07035790761700819;0.8050877978419453;0.648166362233993;1.158852129361271;-0.4997776565183837;0.4195765429805761;0
1.4690135715438224;3.0652631016733594;2.1580008733799367;1.2272517360718527;0.2711160213830628;0.02771658908230482;0.07350389705058137;0.3379783759106835;0.019748958216504787;4.751439503345866;0.012044967880085576;0.07035790761700819;1.2819158724868902;1.6433083041338248;1.158852129361271;4.540120153955414;0.6075729855318905;0
1.6323396280082372;0.36544588607217116;2.66453266116607;1.3490166332583207;0.19876936307241783;0.659793233684473;0.03950925969621466;0.25614525054047094;0.021462198023298896;3.5066520730626465;0.014339247476292399;0.0774956663607626;1.4419129769821173;2.079113033189432;1.3016255636960556;0.7458440977665524;0.6170430768823374;0
1.8695389636809179;-0.2897015761360114;3.4951759367211204;2.347178035533409;0.22199563809761652;1.918007150904591;0.04928206333436793;0.25614525054047094;0.02280910850503266;1.081051382964626;0.022687876006933776;0.0774956663607626;1.8437872016561203;3.399551244990907;2.348076513242421;-0.1943596094330989;0.6431657822666509;0
2.062687115768153;-1.5403234573240978;4.25467813755594;3.576183309701602;0.37425123665168714;2.8119015961821936;0.14006398813531712;0.25614525054047094;0.02382723667480207;-0.07522279433214406;0.03288467421229727;0.0774956663607626;2.059890552116395;4.243149086698387;3.5584779583715584;-1.5288027740593644;0.6375606408315966;0
2.065392658899958;-1.543493312444104;4.265846835437838;3.576183309701602;0.41825616647719793;-0.09484665612607047;0.1749382207962015;0.5669532063695708;0.023434541274412246;-0.2511889927141218;0.02944325481798705;0.0774956663607626;2.0559137591986643;4.226781385262384;3.5584779583715584;-1.5281402006380023;0.6335103910272729;1
1.8985649033038725;-1.6791264430985124;3.604548692057243;3.182486628544232;0.41154173063546656;-0.3644245250850372;0.1693665960544349;0.6068483248206956;0.026396438557215348;-1.0236970485349792;0.031355154481492675;0.0774956663607626;1.9002201934183542;3.6108367834748876;3.173983246560306;-1.6311047721819467;0.5262743619604286;1
1.7519935523514483;-1.5256946864497851;3.0694814074810473;2.7091379860287397;0.42061835912375894;-0.46165781721479454;0.17691980403196345;0.6395653427559975;0.028958876983034308;-0.47569368231263554;0.031355154481492675;0.0917711838482715;1.7547526276978167;3.079156784412392;2.6112904245079456;-1.4163525972017286;0.44105470809142205;1
1.6872274147607949;-0.9961928144566105;2.846736349120395;2.375707159556453;0.4683548022144499;-0.43504585451838046;0.2193562207573365;0.6395653427559975;0.02897323512602004;-0.4608892801782051;0.031355154481492675;0.0917711838482715;1.684764067030268;2.8384299615563693;2.167654138048412;-0.8585743484214257;0.4100709307652824;1
1.4033214525544826;0.1963252439621971;1.9693110991996232;1.2553421552830262;0.5972947635660801;0.08111289268677423;0.35676103458345954;0.6395653427559975;0.028092595437372306;-0.18599603236771095;0.0247272356480064;0.0917711838482715;1.3913866119398182;1.9359567038853664;1.2806842030963543;0.3300923880071015;0.31434273915904626;0
1.0774392264771255;0.5157449303739057;1.1608752867516268;1.2553421552830262;0.7719875467036713;-0.2502491912250053;0.5959647722655531;0.9093242491676526;0.029864271374840753;-0.21951673336167538;0.0247272356480064;0.0958499031304169;1.0497527461413778;1.1019808280313639;1.2384352987819494;-0.01865793395872422;0.2259850688732311;0
1.12677220427121;-0.042928098680546;1.2696156003182013;1.029602984120085;0.9329221636274003;-1.1084249982645618;0.8703437633872299;1.3847776059436878;0.029498790687253564;-0.021687904930040754;0.020138676455592825;0.0958499031304169;1.0942521471053877;1.197387761444751;1.0087587377162688;-0.15327000747094693;0.24599233043775795;0
1.320005114392446;-0.7010211703163846;1.7424135020222147;1.5409500753118985;1.0692882127041605;-1.6201873957308806;1.1433772818280579;1.8338840563439933;0.028862973497620313;0.03245541247774497;0.020138676455592825;0.0958499031304169;1.2494611101551527;1.5611530657901467;1.4092924677132705;-0.6573035478521163;0.2918571931557587;0
1.2326032635505753;-1.1140953110276075;1.519310805315529;1.8813816262571113;1.13784960109646;-1.504525506660777;1.2947017147153734;1.8485342962975488;0.030537523847022456;-0.5461658175409779;0.03619863362904045;0.0958499031304169;1.1114251983007502;1.2352659714178618;1.624151066675989;-0.6263289122803037;0.2848124383927533;0
1.1898915306609532;-1.5455298128430717;1.4158418547386664;2.0232901395962943;1.0916161596947516;-1.2459530212439565;1.1916258401067175;1.6633643115906411;0.03424502744951382;-0.7403613822571755;0.04295401244009375;0.1050270215152441;0.9453088219874763;0.8936087689273502;1.7132157690903127;-1.622016152812964;0.2660068621642302;1
1.3220379681678132;-1.6750513040650148;1.7477843892772795;2.1829879003606147;0.9956540683666736;-1.0514796505852162;0.9913270238551086;1.4524446582633967;0.033920641997221335;-0.5149217508411839;0.04078719282145403;0.1050270215152441;0.9886784871230029;0.9774851508998298;1.7928945114200845;-1.711807637892107;0.2814000132277183;0
1.4646476138949365;-1.3725084920288495;2.145192632888131;2.1734869559569088;0.9021490867793021;-0.7497558460452822;0.8138729747767286;1.2571410682967945;0.047936069124797864;2.3544796724284955;0.03913021311308248;0.18252268787600678;0.9861368350925409;0.9724658575263333;1.444763730286878;-1.1787650458718697;0.29907807512850704;0
1.2560022611190942;-0.9866089801556731;1.5775416799362771;1.9771669004131718;0.7920605442911235;-0.5696706242836795;0.6273599058227508;1.025954639954902;0.08072162914129057;4.2757394870535945;0.044738452126032426;0.2651167533394514;0.7935524739309361;0.6297255288819089;1.286879411246257;-0.9589683522549863;0.2528355419367872;0
1.669702810545799;0.939104940315481;2.7879074755445403;1.5754300027421295;0.6466284670064038;-0.7753551443585829;0.4181283743430518;0.9697449846114816;0.07848813896998805;4.25751133562496;0.043081472417660825;0.2651167533394514;0.767098800772849;0.588440570147143;0.9267916611630915;0.2860968526265322;0.25479068180057235;1
1.842794045440301;0.014274601733016519;3.3958898939102298;1.5576036015073285;0.516791058741462;-0.9772202587410496;0.2670729983951213;0.7906603721357675;0.07528072055893502;4.834205807791577;0.026894055266646198;0.2513510757622107;0.5340908812344708;0.2852530694178136;0.7780765153747837;0.04062085949652326;0.1878260091680797;1
1.9115746355637708;-1.2517655696653947;3.6541175873307634;2.994727249442265;0.4075871943879403;-0.4600667632053858;0.1661273210290326;0.5433659542117362;0.07558946719367446;4.834579265257285;0.026894055266646198;0.2513510757622107;0.37897598780135283;0.14362279933001112;0.41865971385432177;-0.22676012289236422;0.1388215644150348;1
1.9363574684861764;-2.0210966312858063;3.749480245762194;3.745861462834876;0.3402320010820022;-1.0379739338583056;0.11575781456026354;0.5433659542117362;0.07476369582673538;4.997985610510982;0.026894055266646198;0.2513510757622107;0.31190461347563603;0.0972844879073859;0.3056313375811608;2.790722082619098;0.11696738451350511;1
1.9840927059033424;-2.1177430780461033;3.936623865618847;3.512664246266997;0.3698644335540978;-0.2828870027684078;0.13679969920829363;0.5433659542117362;0.07683550388768402;4.6475410919361115;0.0346691138982359;0.2518609156724789;0.30986652075232046;0.09601726068314824;0.3064033549995635;2.407768396622372;0.11536093243657615;0
1.9124016819711303;-1.6411549435970916;3.6572801932060077;3.3648751194736777;0.5182685666055536;0.7758607885602414;0.2686023071313752;0.5782098130384017;0.07876684696322263;4.343371478434681;0.04958193127358005;0.2549199551340879;0.31854368867898325;0.10147008159721302;0.34194280513054176;2.1400928840728204;0.11924327382600484;0
1.7605423660365593;-0.23898240800312007;3.0995094226096063;2.336709410630079;0.6752677149683918;-0.5481308712856355;0.45598648687863313;0.9133258496202603;0.08291368803373479;3.9502087309458065;0.049836851228714146;0.2773529111858875;0.4805862058536711;0.23096310125682715;0.36520316241687256;2.5795364121250435;0.18615653152195308;0
1.603051482923535;2.8602283273517477;2.5697740569033445;0.8984856214125125;0.8310729070198585;-1.1788496505748687;0.6906821767824383;1.3425928009049632;0.08322113452487048;3.906509268777715;0.052258590802487945;0.2773529111858875;0.4863275236848738;0.2365144602934615;0.41025265556646273;2.185160497008791;0.18916082970012663;0
1.4677478216099775;8.28983666374536;2.154283667840834;0.6876512448411392;0.9469691061626772;-1.4171474926142906;0.8967504880265397;1.5725184180177192;0.07956626753282989;7.750246751894807;0.0337768940552666;0.2773529111858875;0.49004780241036333;0.24014684864722652;0.4450816593843778;1.9562112408509142;0.19106815264799656;0
0.46331271736295676;0.34158286978995683;0.21465867407024708;0.3328189058470947;1.029328575593765;-1.3781944713774017;1.0595173165338891;1.6511102108809925;0.025482986749831144;-0.22290796737384358;0.0307178545936576;0.08157438564290789;0.42791431896100257;0.18311066437185863;0.4450816593843778;2.678020364728206;0.16942674678157862;0
0.3772710322149827;2.0375246233637307;0.14233343174855853;0.3041402451186306;1.0770419708082741;-1.3169621956944384;1.160019406882571;1.6298209956497796;0.01937100939012261;-0.8295256389423601;0.02013867645559295;0.0571020699500355;0.4280920966483452;0.18326284321277614;0.4450816593843778;2.6909681434397683;0.1694203763525743;0
0.4004235908527594;1.8082522890469508;0.16033905211141805;0.20906179634709332;1.1283617276139624;-0.9905694207333516;1.2732001883439656;1.655238963430254;0.017668239542784275;-0.2397852683368227;0.021668196186397398;0.0571020699500355;0.4657198880896509;0.216895014162237;0.4450816593843778;1.9099463511046781;0.18218619320069981;0
0.3916538816028781;3.0828852649700837;0.15339276297460128;0.2618318971123781;1.127342014562587;-1.1323123688350714;1.2709000177980319;1.5443493572011708;0.016409841674623227;-0.7694334924160228;0.0193739165901906;0.0509839910268175;0.4948462716380689;0.24487283255409745;0.6144501019530448;1.2509862512174377;0.1910692237168033;0
0.3993797224287369;3.411533121001288;0.15950416268725495;0.34062024679479164;1.0249818200726886;-1.2752917482250474;1.0505877314795213;1.6365992405403413;0.017902085466014222;-0.24619305101141822;0.0193739165901906;0.0591414295911083;0.5125259019599037;0.26268280017981277;0.6899774372754153;0.9528285832608431;0.19556485152293834;0
0.41564131264605636;2.9979609002545433;0.1727577007781368;0.45327125559189785;0.8934223870032599;-1.3501607070793658;0.7982035615986027;1.4163986281344894;0.01780599615697835;-0.022539587004822743;0.0180993168145202;0.0591414295911083;0.5372255929733523;0.2886113377455699;0.76577036573986;0.6215458422510564;0.20198340733893122;0
0.4303923039114731;1.692118305008158;0.1852375352662258;0.4873394890287077;0.7841491934317132;-1.000413388713559;0.6148899575596064;1.1640176937476698;0.01773969389306931;0.15683540197891993;0.0178443968593861;0.0591414295911083;0.5315974832692169;0.2825958842181653;0.7273701731793869;1.1220828526801907;0.1981903051619564;0
0.28990169012606015;-1.2971042184755512;0.08404298993794619;0.46762622506809937;0.6630122613097517;-0.5712560924194509;0.43958525864707043;0.8861641370306603;0.01709666544423371;0.4846877203019803;0.015550117263179276;0.0591414295911083;0.39042392928241776;0.15243084455632233;0.5200993340566589;-1.0906991605726002;0.13608755046347723;0
0.3328662502338643;-1.2046582862204238;0.11079994054475355;0.4916361156517608;0.5299508736010377;0.21830014851976035;0.28084792843050294;0.6873819727274741;0.017080186563818132;0.6735325404091738;0.01427551748750885;0.0591414295911083;0.3424399112101957;0.11726509278964668;0.46233767950370375;-0.41183017906074326;0.11775547157108336;0
0.3276018676819618;-0.27577786517562536;0.10732298370870963;0.3576323297859485;0.3998818009774468;0.7243355442903214;0.15990545475296639;0.3795790626185047;0.017130165764756608;0.5914878775019129;0.015040277352911075;0.0591414295911083;0.2897637918860147;0.08396305508816165;0.4239747907568985;-1.1854789547738005;0.09597278749645417;0
0.310532929609007;-0.09470344899687026;0.0964307003715525;0.344401781634061;0.27776936089525345;2.4989266650965516;0.07715581785215757;0.316172718154919;0.016606925865329848;0.9065920397113965;0.011726317936167949;0.0591414295911083;0.2956796857058659;0.08742647653911964;0.44139886091537317;-1.2356009681897366;0.09728217945888748;0
0.3647423156137147;0.5115545463028042;0.13303695679925465;0.223780835003907;0.16507877628524503;-0.7724461963340578;0.027251002379833973;0.2014547650816132;0.017116672263571678;2.1272370746295275;0.007775058631589626;0.061180789232180996;0.3121867905395515;0.0974605921873858;0.29694999922785215;0.021148207264714763;0.09916670008756627;0
0.5587120739230736;1.8978859509988146;0.3121591815474221;0.27222867166686004;0.16421321022999696;0.08036325300732981;0.026965978414041178;0.14531486418095807;0.019099537283745246;1.056138707764872;0.02026613643315995;0.06423982869379;0.4983908744357952;0.2483934637208766;0.34905823477961917;1.973158992488765;0.15264277336961143;0
0.8119634506798429;1.0844046212354062;0.6592846452399176;0.43910987551906544;0.16581276966681313;0.03795409391899897;0.027493874584579622;0.1568634630176935;0.019590432235105138;0.8470109179516498;0.021795656163964474;0.06423982869379;0.7386282983671393;0.5455717631487358;0.5597861295744755;1.098620527852809;0.2137946747876943;0
0.8443317535751246;-0.20364441865538702;0.7128961100952449;0.9229992638285944;0.13503176074399137;2.4584447072134656;0.018233576409622528;0.12176048951104224;0.021256309552091804;1.4066607695140516;0.026384215356378075;0.07137758743754449;0.7619088926770163;0.5805051607403172;0.9673844830444089;-0.28066028830070827;0.21284548452116495;0
0.8688941304209282;-0.8332259338857487;0.7549770098799411;1.1023540474367604;0.08228149618997271;-0.08587266564471971;0.006770244615260494;0.0698104638370125;0.020732444904000804;1.3850048379783015;0.0258743754461099;0.07137758743754449;0.7748377793538505;0.6003735843140062;1.036275083976511;-0.8660829092253428;0.2096597593315603;0
0.8078449230313005;-0.5906946442465463;0.6526134196674479;1.133001238591521;0.07251334605031122;1.3437517158797658;0.005258185355412186;0.09339346366250756;0.02019499560833101;1.6704313130421298;0.023197715917201975;0.07137758743754449;0.7171712187561523;0.5143345570121849;0.9655364242390241;-0.8007393768957038;0.184938059446786;0
