acc_X;acc_X_std;acc_Z;acc_Z_std;acc;acc_std;acc_var;acc_max;acc_range;fb_tilt_max;fb_tilt_std;fb_tilt_var;fb_tilt_range;tilt_max;tilt_var;tilt_range;hole;lat;lon
-0.0071377587437544;0.0761778524598324;-0.0183542367696543;0.0336037406238528;0.9587013187736384;0.04796969475559598;0.0023010916149450527;1.0518475544567119;0.1549245253485645;4.842067384636279;1.9994890537553902;3.997956476087626;7.122482933580425;2.427923163152554;10.826878230755362;9.432920173909809;1;53.72483479;86.84396695000001
0.003059039461609;0.0761778524598324;-0.0662791883348628;0.0336037406238528;0.9719827455073644;0.04796969475559598;0.0023010916149450527;1.0518475544567119;0.1549245253485645;4.842067384636279;1.9994890537553902;3.997956476087626;7.122482933580425;2.427923163152554;10.826878230755362;9.432920173909809;1;53.72483479;86.84396695000001
-0.0410421127765881;0.0761778524598324;-0.0622004690527174;0.0336037406238528;1.0371458709987869;0.04796969475559598;0.0023010916149450527;1.0518475544567119;0.1549245253485645;4.842067384636279;1.9994890537553902;3.997956476087626;7.122482933580425;2.427923163152554;10.826878230755362;9.432920173909809;1;53.72483479;86.84396695000001
0.0479249515652085;0.0761778524598324;-0.023452635872336;0.0336037406238528;1.0149651379105276;0.04796969475559598;0.0023010916149450527;1.0518475544567119;0.1549245253485645;4.842067384636279;1.9994890537553902;3.997956476087626;7.122482933580425;2.427923163152554;10.826878230755362;9.432920173909809;1;53.72483479;86.84396695000001
-0.0774956663607627;0.0761778524598324;-0.0836137452839808;0.0336037406238528;0.9905731560882451;0.04796969475559598;0.0023010916149450527;1.0518475544567119;0.1549245253485645;4.842067384636279;1.9994890537553902;3.997956476087626;7.122482933580425;2.427923163152554;10.826878230755362;9.432920173909809;1;53.72483479;86.84396695000001
-0.1356174161313347;0.0761778524598324;-0.0560823901294993;0.0336037406238528;0.9626139355777845;0.04796969475559598;0.0023010916149450527;1.0518475544567119;0.1549245253485645;4.842067384636279;1.9994890537553902;3.997956476087626;7.122482933580425;2.427923163152554;10.826878230755362;9.432920173909809;1;53.72483479;86.84396695000001
-0.0591414295911083;0.07780049096381775;0.0356887937187723;0.03297069873022704;0.8969230291081474;0.046467569236540524;0.0021592349907526872;1.0518475544567119;0.1549245253485645;4.842067384636279;1.9692324623796698;3.8778764908898973;7.122482933580425;-0.0974257398291267;5.6016903945603405;6.907571270928128;1;53.724764619999995;86.84382253999999
-0.1651881309268889;0.07091073567491743;-0.0397675130009177;0.03674323319949122;1.0518475544567119;0.045422944817617314;0.0020632439159043075;1.0518475544567119;0.1549245253485645;5.511472264405756;2.175053413785988;4.73085735282208;7.791887813349902;-2.17289503899586;2.5036589902841446;4.832101971761395;1;53.72469761999999;86.84367874
-0.1498929336188436;0.06854358914111071;-0.0193739165901906;0.03711787837943256;1.0358637167308515;0.04399082414303248;0.001935192608783209;1.0518475544567119;0.1549245253485645;5.511472264405756;2.200181253541459;4.840797548435265;7.791887813349902;-3.83110541036327;1.0182681323341116;3.173891600393984;1;53.7246415;86.84354326
-0.1621290914652799;0.044421333179054445;-0.037728153359845;0.03739478701244597;1.028146252521336;0.04369171321079974;0.0019089658032947722;1.0518475544567119;0.1549245253485645;5.511472264405756;2.219531211103665;4.926318797063303;7.791887813349902;-4.6405168185116725;0.6895279028219304;2.3644801922455816;1;53.7246079;86.84343798
-0.1723258896706434;0.06096789109784428;-0.0428265524625267;0.03546965860056844;1.0129321964331444;0.04363590771130946;0.0019040924417899163;1.0518475544567119;0.1549245253485645;5.511472264405756;2.1054974019410593;4.433119309580551;7.791887813349902;-4.242059897687249;0.9554910876808455;2.762937113070005;1;53.72460041000001;86.84337416999999
-0.1284796573875803;0.07517936729009132;-0.095849903130417;0.03530573378846721;0.9979680949230092;0.04318970895562119;0.0018653509596712648;1.0518475544567119;0.1549245253485645;5.511472264405756;2.0890613575855266;4.364177355757083;7.791887813349902;-3.614570704155645;1.5325202763365142;3.390426306601609;1;53.72462376;86.84333608
-0.1519322932599164;0.0782851024256107;-0.0678087080656673;0.021759541570382485;1.0120363314148237;0.020570879038126526;0.0004231610644012333;1.0518475544567119;0.05799392683769278;5.511472264405756;1.276116479477073;1.6284732691929587;4.4397981025235405;-3.0379426399618863;2.141961122452729;3.967054370795368;0;53.72467465;86.84331273000001
-0.058121749770572;0.07840594498362188;-0.0713775874375446;0.021421097743224732;0.9984399477227696;0.018218245959408103;0.0003319044858374897;1.038505852500601;0.05034771705724428;5.511472264405756;1.2471933129011958;1.55549115974546;4.4397981025235405;-2.1169038716067434;2.8346604463155867;4.888093139150511;0;53.72475484;86.84330844
0.0112164780258998;0.0787500514425975;-0.0571020699500356;0.018465935778270624;0.9938536276190191;0.017843831680535237;0.00031840232904327295;1.038505852500601;0.05680040057253388;5.511472264405756;1.0699114812400066;1.144710577689185;3.40851329786545;-1.4529232810759525;3.362997274567506;5.391764730580844;0;53.72486691;86.84332323
0.0254919955134087;0.07307855564367195;-0.049454471296013;0.01860306403289205;1.038505852500601;0.015883702975478392;0.00025229202021322117;1.038505852500601;0.05680040057253388;5.511472264405756;1.0720635943465708;1.149320350323289;3.249424984516424;-0.9794302488261956;3.5901204537772338;5.51603456804018;1;53.725004999999996;86.8433666
-0.0224329560517997;0.05950646965123485;-0.0683185479759355;0.017470315876108426;0.9978019037923037;0.0183582368547511;0.00033702486041514154;1.038505852500601;0.05680040057253388;5.511472264405756;1.0002293262909139;1.0004587051723757;3.249424984516424;-0.359294530861093;3.6703866123769484;5.630653571540518;0;53.725165649999994;86.84343509
-0.0132558376669725;0.05049034208811793;-0.0448659121035994;0.015649492467785707;0.9881581354433567;0.01828751519101727;0.0003344332118616874;1.038505852500601;0.05680040057253388;4.867329639164231;0.8839350461956901;0.7813411658929768;2.605282359274898;-0.0540379407312985;3.4865664256271955;5.306720603546829;0;53.725336979999994;86.84353218
0.0040787192821454;0.026170678487576732;-0.0387478331803813;0.016319213732024725;0.9817054519280671;0.01815800434658303;0.0003297131218505283;1.038505852500601;0.05680040057253388;4.867329639164231;0.9223918641917274;0.85080675112709;2.605282359274898;0.198681730026063;3.1490879260875935;4.839198548537736;0;53.72551479;86.84364599
-0.0050983991026817;0.02341720355738623;-0.0825940654634444;0.016590134623058722;1.0006743136742644;0.01803725725522079;0.000325342649291015;1.038505852500601;0.05680040057253388;4.867329639164231;0.9376000045103193;0.8790937684577509;2.605282359274898;0.198681730026063;2.644166473645121;4.4407416277133125;0;53.72569116999999;86.84376861
-0.0499643112062812;0.022549107423076212;-0.0703579076170082;0.016371427998765887;1.0324694999489428;0.02008003473423632;0.00040320779492813714;1.038505852500601;0.06259714965933516;4.867329639164231;0.9260326729153983;0.8575365113068371;2.605282359274898;0.198681730026063;1.8730486077493522;3.813252434181708;0;53.72587707;86.84389051000001
-0.0295707147955541;0.01949584974198683;-0.0856531049250535;0.01693413987327224;1.0094794173958932;0.01601907376188767;0.00025661072418879796;1.0324694999489428;0.05656079710767692;4.867329639164231;0.948866244204232;0.9003471493902454;2.605282359274898;0.198681730026063;1.1519811405698908;3.236624369987949;0;53.726075619999996;86.84401738
-0.0101967982053635;0.019379953227610106;-0.078515346181299;0.017740426519484088;1.007500424643621;0.01615019316267241;0.00026082873919163065;1.0324694999489428;0.05656079710767692;4.867329639164231;0.993340485976764;0.9867253210805538;2.605282359274898;0.198681730026063;0.5452502095227741;2.3155856016328062;0;53.726287400000004;86.8441498
0.0209034363209951;0.021098106654540885;-0.0759661466299581;0.018115466508045117;1.0028957965539056;0.015953715628683758;0.0002545210423609084;1.0324694999489428;0.05656079710767692;4.867329639164231;1.0222979075288923;1.0450930117379515;2.605282359274898;0.198681730026063;0.26148508976663276;1.6516050111020155;1;53.72651320999999;86.84428856999999
-0.0112164780258998;0.02063266957999072;-0.0632201488732537;0.01684316073108824;0.9759087028412659;0.014520352368957825;0.00021084063291869912;1.0324694999489428;0.05656079710767692;4.867329639164231;0.9543519463697852;0.9107876375397973;2.498490657489535;0.198681730026063;0.13677522979209314;1.1781119788522585;0;53.72674587;86.84443418999999
0.0010196798205363;0.02056986240595181;-0.0448659121035994;0.015527673682669075;1.0064053867130054;0.014507336807415672;0.0002104628212437975;1.0324694999489428;0.05656079710767692;4.867329639164231;0.8760747369490299;0.767506944720312;2.498490657489535;0.198681730026063;0.08784503694719531;0.8871360863207134;0;53.726990580000006;86.84458930000001
-0.020393596410727;0.01568129582166829;-0.0479249515652085;0.016004696883795435;0.9935146084062835;0.010893957197226916;0.00011867830341501211;1.0114828069306607;0.035574104089394876;4.867329639164231;0.914976197226497;0.8371814414910616;2.498490657489535;0.198681730026063;0.0930071407873129;0.8871360863207134;0;53.72724287;86.84475967
0.0152951973080452;0.01307385680615486;-0.0418068726419904;0.014442964692786045;1.0114828069306607;0.012088193008365986;0.00014612441020750831;1.0182762849968492;0.04236758215558334;4.469639748472197;0.8268845302080625;0.6837380262974082;2.1008007667975015;0.2182668029665129;0.11052973734690605;0.9067211592611633;0;53.72750203;86.84493179
-0.0086672784745589;0.014410532844912246;-0.0489446313857448;0.013364441865395366;0.9954296208579949;0.014347145865305505;0.00020584059448035282;1.0251961524128674;0.04928744957160158;4.430255541411404;0.7648023786558419;0.5849226783976338;2.061416559736709;0.4397436495701354;0.13736803906728642;1.1281980058647858;0;53.727760690000004;86.84510596999999
-0.0091771183848271;0.011644011358107572;-0.0632201488732537;0.012190754506759051;1.0013261029518072;0.014689385690385593;0.00021577805196090503;1.0251961524128674;0.04928744957160158;4.430255541411404;0.6986373800007877;0.48809418873436505;2.061416559736709;0.7653784711652143;0.221769268342042;1.4538328274598646;0;53.72802829999999;86.84528398
0.0076475986540226;0.011644011358107572;-0.0764759865402263;0.013998074386791683;0.9900378253502359;0.012103195269011505;0.0001464873357198225;1.0251961524128674;0.035158327062631556;4.562139362709727;0.7911033273342227;0.6258444745192784;2.1933003810350318;1.0030981864716904;0.34200841338346666;1.6915525427663407;0;53.72829289;86.84546153
-0.0071377587437544;0.01189140796338385;-0.0734169470786173;0.0163038977138855;1.0182762849968492;0.012142365578915678;0.00014743704185203629;1.0251961524128674;0.035158327062631556;5.378631531490085;0.9283793112928967;0.8618881456366733;3.0097925498153897;1.2775078340152262;0.4773616921417784;1.9659621903098765;0;53.72856086;86.84563990000001
-0.0224329560517997;0.0217361681973679;-0.0672988681553992;0.01760109019563684;1.0251961524128674;0.012084968421106063;0.00014604646173913078;1.0251961524128674;0.035158327062631556;5.532856163839533;1.01649950784814;1.0332712494555107;3.1640171821648373;1.5711789287193316;0.5667448246084014;2.259633285013982;0;53.72881314;86.84581794
-0.003059039461609;0.03038406333651885;-0.0601611094116447;0.021959315190120086;0.9919398964044692;0.011844815792194702;0.000140299661151025;1.0251961524128674;0.035158327062631556;7.202963193159082;1.2682988781365698;1.6085820442824816;4.384630337949197;1.955661079771462;0.6288183699539902;2.4422967261389106;0;53.729044290000004;86.84599021
-0.0112164780258998;0.03417579962613057;-0.0805547058223717;0.026635360710892696;1.0127540878139867;0.011554697339768369;0.00013351103061365024;1.0251961524128674;0.035158327062631556;7.984968599488755;1.5350304440568936;2.3563184641815043;4.507848246577571;2.217730550220669;0.6709839489000949;2.367509283839316;0;53.729257180000005;86.84615958
-0.0173345569491179;0.03572313069930242;-0.0938105434893443;0.026728883730790718;1.0007844465208175;0.011564757298388984;0.00013374361137064128;1.0251961524128674;0.035158327062631556;7.984968599488755;1.5385389171641786;2.367101999628723;4.507848246577571;2.3211531536729098;0.68830098542519;2.3139073497276645;0;53.729452249999994;86.84631369
0.0530233506678902;0.0366966697917642;-0.095849903130417;0.029522621810409846;0.9941229817299942;0.010381342905823494;0.00010777228052829178;1.0251961524128674;0.03325625600839821;7.984968599488755;1.6988836871820414;2.8862057825732483;4.507848246577571;2.3211531536729098;0.6089837059340105;2.102886350706397;1;53.729637419999996;86.84647326
0.0672988681553992;0.03568782258192072;-0.1254206179259712;0.029029552045450668;1.000287713773778;0.00961855175702119;9.251653790249543e-05;1.0251961524128674;0.03325625600839821;7.984968599488755;1.667536150319911;2.7806768126237493;4.507848246577571;2.3211531536729098;0.4802177460672359;1.8814095041027743;1;53.72980586999999;86.84663915
0.058121749770572;0.031204535022125685;-0.1396961354134801;0.028196805209824413;1.005635410807368;0.007562198332928938;5.71868436265532e-05;1.0127540878139867;0.022917529279778304;8.351820436511229;1.6222692889671235;2.6317576459258962;4.874700083600045;2.3211531536729098;0.3284800952086002;1.5557746825076955;1;53.72996353999999;86.84681218
0.0540430304884266;0.028941667746885714;-0.1182828591822167;0.021572113260074275;1.0077124796527732;0.00691730093357445;4.784905220562995e-05;1.0127540878139867;0.022917529279778304;8.351820436511229;1.2523683157004504;1.5684263981703828;3.7896810738015017;2.3211531536729098;0.20482928741393902;1.3180549672012194;1;53.73009867;86.84698315
0.0479249515652085;0.02340480499972678;-0.1386764555929438;0.02557682767970561;1.0084871845904446;0.0057774799502230785;3.3379274575229666e-05;1.0084871845904446;0.01865062605623624;8.351820436511229;1.4718498911555875;2.166342102094715;4.790167753752328;2.3211531536729098;0.11202938966550834;1.0436453196576836;0;53.73021986;86.84718114
0.0428265524625267;0.011850533864668252;-0.1254206179259712;0.029319415219130517;1.0009610493702328;0.009832572639056193;9.667948470231645e-05;1.0084871845904446;0.03288163916006648;8.351820436511229;1.669470756814356;2.787132607858299;4.790167753752328;2.3211531536729098;0.05670159895227186;0.7499742249535781;0;53.73031354;86.84739257999999
0.0295707147955541;0.01224606738759013;-0.1437748546956255;0.0352548143526474;0.9898365585342084;0.010036050352019044;0.00010072230666826157;1.0084871845904446;0.03288163916006648;8.351820436511229;2.019418810274579;4.078052331290796;5.448409248440867;2.3211531536729098;0.05150208403193415;0.6953908543914447;0;53.73040503;86.84762230999999
0.0489446313857448;0.015224126676274376;-0.1244009381054349;0.03579319864940472;0.9985879416833155;0.010417532887718847;0.00010852499146670379;1.0084871845904446;0.03288163916006648;8.351820436511229;2.0476647736337337;4.19293102518049;5.448409248440867;2.3211531536729098;0.09537461195167228;0.9505215567828773;0;53.730500310000004;86.84786095
0.0458855919241358;0.0205909830597295;-0.0622004690527174;0.03392485643169578;1.0012544528617233;0.01015929091267655;0.00010321119184839233;1.0084871845904446;0.03288163916006648;8.351820436511229;1.9461662544159286;3.787563089827325;5.448409248440867;2.3211531536729098;0.15351153425143146;1.1872962731184786;0;53.7306011;86.84809998
0.0703579076170082;0.025451232378192783;-0.0672988681553992;0.0337608735871127;0.9756055454303781;0.009499095324670161;9.023281198717051e-05;1.0084871845904446;0.03288163916006648;8.351820436511229;1.9401794437576216;3.764296273979634;5.448409248440867;2.2554433627947224;0.2374076874107793;1.491300297911054;1;53.730705490000005;86.84833237000001
0.0418068726419904;0.031229561548917345;-0.0509839910268175;0.031438244551006585;1.0065463989894319;0.008914898453701171;7.947541443980354e-05;1.0065463989894319;0.030940853559053738;8.351820436511229;1.8162193402354956;3.298652691845459;5.448409248440867;2.200249605461454;0.3109430257453058;1.6057109163426644;1;53.730803560000005;86.84854052
0.014785357397777;0.03797480319909934;-0.0815743856429081;0.03117031659353969;0.9905255274490145;0.010906653205456111;0.00011895508414408606;1.0159782922685359;0.040372746838157725;8.351820436511229;1.7930080476302799;3.2148778588669478;5.448409248440867;2.112647109752298;0.35968561674221583;1.6564720250211997;1;53.730904980000005;86.84872642
-0.0020393596410727;0.03841730087066708;-0.1142041399000713;0.029953112807679268;0.9946499724604807;0.013886841623680332;0.0001928443702811806;1.0266783384834535;0.05107279305307533;7.59057776943323;1.680591577137358;2.8243880491450324;4.687166581362868;1.9468849471775929;0.3849507506043468;1.6322536217249;0;53.731012320000005;86.84889776
-0.0122361578464362;0.03618231347719903;-0.1147139798103395;0.029339356231779235;0.9973138504029705;0.013942811630875513;0.00019440199617407747;1.0266783384834535;0.05107279305307533;7.59057776943323;1.6395415848169963;2.688096608344228;4.687166581362868;1.8651054583082665;0.3958538483617755;1.669187261572756;0;53.73112843;86.84905227
-0.0285510349750178;0.03503312963357925;-0.1091057407973896;0.026595698454473182;1.0036037729090908;0.014010569425524857;0.00019629605562745194;1.0266783384834535;0.05107279305307533;7.59057776943323;1.479065291342571;2.187634136054285;4.687166581362868;1.8651054583082665;0.3739820638719819;1.6782747687068966;0;53.73125278;86.84916125999999
-0.0479249515652085;0.027714591975031972;-0.1223615784643621;0.025293232798807654;1.0159782922685359;0.01156838041028022;0.00013382742531695512;1.0266783384834535;0.03741757914416732;7.59057776943323;1.412218345895314;1.9943606564832967;4.687166581362868;1.625762299281465;0.2810195699699394;1.4713343405310193;0;53.73138829;86.84923533
-0.0091771183848271;0.027082957521360612;-0.1356174161313347;0.021502716062472088;1.0266783384834535;0.011525135393708034;0.00013282874584330165;1.0266783384834535;0.03741757914416732;7.59057776943323;1.1868185267322438;1.4085382153948938;3.628155911566587;1.3706315968900324;0.1944063248212884;1.284799523870819;0;53.731527619999994;86.84927225999999
0.0071377587437544;0.031183054495566558;-0.1172631793616804;0.021383649953437632;1.0061682555920461;0.010765019088938546;0.0001158856359852113;1.0266783384834535;0.03741757914416732;7.59057776943323;1.1846148188182917;1.403312268963894;3.628155911566587;1.1338568805544311;0.11458199878389246;1.0480248075352177;0;53.73166899;86.84928307
0.0346691138982359;0.03496789884967027;-0.1040073416947078;0.021190989530393802;1.0062958690437094;0.010247090410964168;0.0001050028618904738;1.0266783384834535;0.03741757914416732;7.59057776943323;1.169481410082473;1.3676867685284895;3.628155911566587;0.7641430648836683;0.0500945280588282;0.6783109918644549;0;53.731811070000006;86.84927155
0.0193739165901906;0.034741681806708315;-0.0774956663607627;0.02095353127790929;0.9892607593392861;0.009876964898579546;9.755443560777248e-05;1.0266783384834535;0.03741757914416732;7.59057776943323;1.1511801603856944;1.3252157616656328;3.628155911566587;0.5945386891187898;0.02534210753319368;0.5087066160995763;0;53.73195198;86.84924094
0.037728153359845;0.03316076537033189;-0.0693382277964719;0.02192667287564484;1.0034157188620503;0.010924789504836862;0.00011935102572499366;1.0266783384834535;0.03741757914416732;7.59057776943323;1.198794538356896;1.4371083451943236;3.628155911566587;0.5028006677536835;0.019523284201915896;0.41696859473447;0;53.732094700000005;86.84919421999999
0.0509839910268175;0.028150879372472456;-0.0825940654634444;0.02223354114395794;0.9989147002695735;0.010682554615967843;0.00011411697312313588;1.0266783384834535;0.03741757914416732;7.59057776943323;1.227942166307207;1.5078419637952363;3.628155911566587;0.5663896169184165;0.02557572728030143;0.480557543899203;0;53.732236490000005;86.84914145
-0.0448659121035994;0.027668439851037886;-0.1091057407973896;0.021200187319418043;1.00318772730104;0.009328584977904085;8.702249768997775e-05;1.021208703921588;0.032907478682240865;7.469621440793904;1.2102570590256454;1.4647221489214044;3.507199582927261;0.5663896169184165;0.03377391111196618;0.480557543899203;0;53.73237405;86.84907165
0.0091771183848271;0.02809912308278588;-0.0968695829509534;0.021061318775413174;1.0060421762076666;0.009317560791656406;8.681693910621275e-05;1.021208703921588;0.032907478682240865;7.469621440793904;1.2026038082872998;1.4462559197071168;3.507199582927261;0.5663896169184165;0.03325664552751038;0.480557543899203;0;53.732506550000004;86.84898655
0.0183542367696543;0.026797787948493912;-0.1233812582848985;0.02106241580480556;1.021208703921588;0.009216467054876082;8.494326497361621e-05;1.021208703921588;0.032907478682240865;7.469621440793904;1.2027642224584272;1.446641774826025;3.507199582927261;0.5663896169184165;0.034251795494584174;0.480557543899203;0;53.73262872;86.84888856
-0.0132558376669725;0.026605253184394505;-0.1254206179259712;0.019437616397170933;1.0011438524397849;0.008422529953410798;7.093901081610209e-05;1.021208703921588;0.032907478682240865;7.469621440793904;1.1156643025571;1.2447068360002203;3.507199582927261;0.5663896169184165;0.04858100458405184;0.6555210037668968;0;53.73273689;86.84877913
-0.0020393596410727;0.024774699232275897;-0.1284796573875803;0.015074180461316122;0.9883012252393472;0.009027444518227058;8.149475452966774e-05;1.021208703921588;0.032907478682240865;7.469621440793904;0.8668732165526599;0.7514691735763549;2.7267738698063733;0.5663896169184165;0.08475543980100242;0.899974374660478;0;53.73283149;86.84864589
-0.0040787192821454;0.01949725705567021;-0.1152238197206077;0.012162766279244524;1.0059155642046889;0.009519855628252019;9.062765118276163e-05;1.021208703921588;0.032907478682240865;7.469621440793904;0.7071750813718916;0.5000965957133414;2.0632295091321593;0.5663896169184165;0.15285608930689257;1.1446731053706543;0;53.73290863;86.84849519000001
0.0086672784745589;0.012538791390272957;-0.1019679820536351;0.014016219435447527;1.0024838651093173;0.010812989288173466;0.00011692073734615412;1.021208703921588;0.032907478682240865;7.469621440793904;0.7995428595933115;0.6392687843266498;2.3235022739361613;0.5663896169184165;0.23868404306020802;1.3256369588321097;0;53.73296997999999;86.84833126
0.0142755174875089;0.012656176038823101;-0.0938105434893443;0.013796485270723087;0.9956608247980768;0.011678874876553287;0.00013639611838218757;1.021208703921588;0.032907478682240865;7.469621440793904;0.7938245858095728;0.6301574730357399;2.3235022739361613;0.5663896169184165;0.3350366879478817;1.5478999749914273;0;53.73301848999999;86.84815705
0.0178443968593861;0.013455331110835678;-0.1029876618741715;0.01438877063986056;1.0128512301871666;0.011189087668667755;0.00012519568285713283;1.0149555339613054;0.03341518673259103;7.521368963817731;0.8598817540083581;0.7393966308764904;2.375249796959989;0.5663896169184165;0.37334571379487497;1.56425159638581;0;53.733056669999996;86.84797507
-0.0142755174875089;0.014934915852898122;-0.1091057407973896;0.013565531873120932;1.0149555339613054;0.012020499613002337;0.00014449241094618932;1.0149555339613054;0.03341518673259103;7.521368963817731;0.8153404667527765;0.6647800767246355;2.375249796959989;0.5553291840358409;0.3386213045061214;1.5531911635032343;0;53.733087139999995;86.84778026000001
-0.0081574385642908;0.015206283375616981;-0.0887121443866625;0.012066929272694637;0.9890310816942661;0.011513754452321614;0.00013256654158835576;1.0149555339613054;0.03341518673259103;7.521368963817731;0.7194607687712701;0.5176237978009469;2.375249796959989;0.3861143852787322;0.2759025756940454;1.4753636876449518;0;53.73311209999999;86.84757737999999
-0.0071377587437544;0.018397380831916027;-0.1203222188232894;0.014048739232326505;0.989321717447446;0.013228018153598926;0.00017498046427194273;1.0217217242855856;0.04018137705687119;7.521368963817731;0.8497170751134495;0.7220191077393555;2.884626331477455;0.1549115362924414;0.1995836913936874;1.2787234971518375;0;53.73313125;86.84736101
-0.0249821556031406;0.019214945670463113;-0.1284796573875803;0.01429815908379437;0.9815403472287144;0.013691592443017176;0.00018745970362568504;1.0217217242855856;0.04018137705687119;7.521368963817731;0.8674116651370141;0.7524029968157674;2.884626331477455;-0.0891313868484803;0.1300283572218982;1.0594989793514966;0;53.73314796;86.8471294
-0.0254919955134087;0.018111878931713593;-0.113184460079535;0.01541032771474453;1.012076270064604;0.015235469628778031;0.00023211953480941778;1.0274691019016335;0.045928754672919125;7.521368963817731;0.946039949921255;0.8949915868470106;2.884626331477455;-0.3335847577420616;0.08604927132262559;0.9812178034717984;0;53.73316162;86.8468845
-0.0142755174875089;0.013438577986395927;-0.1029876618741715;0.01766431588305508;1.0056948594714954;0.015422898351640244;0.00023786579356502736;1.0274691019016335;0.045928754672919125;7.521368963817731;1.0622307085725051;1.1283340782344462;3.1767942939468403;-0.5782834884522378;0.056851900854626165;0.7855214109498158;0;53.733176709999995;86.84659751000001
-0.0387478331803813;0.013583085278383849;-0.0825940654634444;0.017424627920709715;1.0217217242855856;0.015807229688671025;0.0002498685104304027;1.0274691019016335;0.045928754672919125;7.521368963817731;1.0516256329388027;1.1059164718539374;3.1767942939468403;-0.7592473419136933;0.051372086878671105;0.7595650742187482;0;53.73319421;86.84630268999999
-0.037728153359845;0.014911304240915257;-0.095849903130417;0.017084159850392237;1.0137104767503426;0.016125731597525943;0.0002600392195554466;1.0274691019016335;0.045928754672919125;7.521368963817731;1.0364355208033158;1.0741985887828402;3.1767942939468403;-0.9201967932069948;0.05464563303776059;0.6834737700364091;0;53.73321271;86.84600119000001
-0.040787192821454;0.013454901804118983;-0.0836137452839808;0.015451131005310008;1.0274691019016335;0.015558812504020908;0.0002420766465352774;1.0274691019016335;0.045928754672919125;7.521368963817731;0.9349581138819901;0.8741466747137685;3.1767942939468403;-0.9201967932069948;0.06265113353535073;0.6883698897918098;0;53.733229089999995;86.84569757
-0.0081574385642908;0.013596155800438136;-0.07545630671969;0.010995429196574981;0.9960638346373661;0.013620970136274717;0.00018553082745328766;1.0274691019016335;0.04151411347270306;6.421044035369262;0.6433112990451725;0.4138494274791873;2.0764693654983715;-0.9201967932069948;0.061945922672922475;0.6883698897918098;0;53.733242989999994;86.84538891
-0.0122361578464362;0.015247537997364023;-0.0948302233098807;0.009531567381846072;0.9886257308351623;0.013579943140028694;0.0001844148556864124;1.0274691019016335;0.04151411347270306;5.984369639845026;0.5766517155736666;0.3325272010740528;1.639794969974135;-1.0892493023662198;0.04944864700607052;0.5674654874969813;0;53.73325544000001;86.84507624
-0.0479249515652085;0.018459678472076777;-0.0978892627714897;0.010900457299768443;0.9859549884289305;0.01433536083407348;0.00020550257024308792;1.0274691019016335;0.04151411347270306;6.512870566434237;0.6696062536767712;0.44837253496304047;2.168295896563346;-1.1238119608593962;0.04360397879486893;0.5615953742058946;0;53.73326625;86.84476193
-0.0316100744366268;0.017687844785769655;-0.0989089425920261;0.010720925680562661;0.9985815642076264;0.012641640226945446;0.00015981106762752532;1.0274691019016335;0.04151411347270306;6.512870566434237;0.6439771363199064;0.41470655210278723;2.168295896563346;-1.1486303661999768;0.03171825583289419;0.5367769688653139;0;53.73327482;86.84445561999999
-0.0214132762312633;0.016844789667610143;-0.0978892627714897;0.011190698911086726;1.0022684993998225;0.012392503975506343;0.00015357415478294052;1.0274691019016335;0.04151411347270306;6.512870566434237;0.6747686088502434;0.4553126754896928;2.168295896563346;-1.31480256121386;0.015340445331087499;0.37060477385143065;0;53.73328029;86.84415901
-0.0061180789232181;0.01727246520584036;-0.1040073416947078;0.01174674300413588;0.9976038970331411;0.008614425839064825;7.420833253674771e-05;1.0114370624210822;0.025482073992151744;6.512870566434237;0.6958614279030203;0.4842231268432303;2.168295896563346;-1.3638048994020535;0.011920768382515188;0.3216024356632372;0;53.73328351;86.84386527000001
0.0081574385642908;0.01799477296964281;-0.1121647802589986;0.01256042469363448;0.9888771888569867;0.008645150487810227;7.473862695688542e-05;1.0114370624210822;0.025482073992151744;6.512870566434237;0.7461436833191544;0.5567303961570745;2.4270205845175425;-1.1767970899296103;0.023539622340120445;0.5086102451356804;0;53.73328191;86.84360255
-0.023452635872336;0.017793339825242237;-0.1070663811563169;0.01462291810290908;1.0042655672590257;0.00950144330764031;9.027742492830283e-05;1.01673481108883;0.030779822659899425;6.512870566434237;0.8728878096638397;0.7619331282597357;2.48723754620249;-1.1767970899296103;0.03311521829327451;0.5086102451356804;0;53.73327930000001;86.84330042
-0.023452635872336;0.016263813225146747;-0.0866727847455898;0.017679678576604047;1.0114370624210822;0.009872322129254223;9.746274422376262e-05;1.0226743019598197;0.033797113102832954;6.512870566434237;1.0512295293316236;1.105083523338787;3.140370755536387;-1.0597900254111374;0.05160571560560682;0.6256173096541533;0;53.733276309999994;86.84299023
-0.0438462322830631;0.017687844785769655;-0.0795350260018354;0.018501249801286205;1.0084824162195392;0.009872243753713903;9.746119673274318e-05;1.0226743019598197;0.033797113102832954;6.512870566434237;1.0922866330873346;1.1930900888212657;3.140370755536387;-1.0060000524870265;0.06768924276514664;0.6794072825782642;0;53.73327618;86.84266754000001
-0.0438462322830631;0.018025242436208334;-0.0713775874375446;0.018069092140342177;1.0017750972911272;0.010327954732767248;0.00010666664896208939;1.0226743019598197;0.033797113102832954;6.512870566434237;1.0690796009802812;1.142931193232157;3.140370755536387;-0.8410041859549939;0.0918094956301349;0.8444031491102968;0;53.73328127999999;86.84233728000001
-0.0367084735393086;0.017403066678956733;-0.0713775874375446;0.017015045050520067;1.01673481108883;0.012242653632119726;0.0001498825679560543;1.0226743019598197;0.038129211375438565;6.512870566434237;0.9989605446510448;0.9979221697695121;3.140370755536387;-0.6362494003405067;0.12016282369879039;1.049157934724784;0;53.7332929;86.84199817999999
-0.020393596410727;0.013223661270709315;-0.0601611094116447;0.012940964926321435;1.0226743019598197;0.011271132285915374;0.00012703842300660392;1.0226743019598197;0.038129211375438565;6.120026958692048;0.743567835692708;0.552893126276738;2.747527147794198;-0.6326485681296203;0.12222719017915422;1.0134732054258813;0;53.73331341000001;86.84165261000001
-0.0469052717446721;0.015272615501402968;-0.0672988681553992;0.007381242406792491;0.9985826054309294;0.011394491992899951;0.00012983444777626112;1.0226743019598197;0.038129211375438565;4.915859679458755;0.41742698717086574;0.1742452896185461;1.5433598685609056;-0.5808072329005164;0.11003144173552509;0.949426948704475;0;53.73334407;86.84129927000001
-0.0142755174875089;0.019188849277629656;-0.0795350260018354;0.005941816629866157;1.0157613093930349;0.012709631880062069;0.0001615347425266901;1.0226743019598197;0.038129211375438565;4.523389315051898;0.34420986208558935;0.11848042915698044;1.1508895041540486;-0.5751980691281874;0.09055183091551305;0.815531567294122;0;53.73338582;86.8409391
-0.0122361578464362;0.022271180921587044;-0.0703579076170082;0.00542233647175258;0.9845450905843811;0.01290679902416846;0.00016658546105027594;1.0226743019598197;0.038129211375438565;4.490908154723262;0.3159058690933283;0.09979651812761106;1.1184083438254122;-0.5475305714344096;0.07216802850776738;0.6850356522360326;0;53.73344125;86.84057725
-0.0178443968593861;0.02304992693613758;-0.0734169470786173;0.006380585312671633;1.017390746633753;0.013257924855581455;0.00017577257147624456;1.0226743019598197;0.038129211375438565;4.643596164708173;0.3608709701362422;0.1302278570870726;1.2710963538103233;-0.5475305714344096;0.0619201103578963;0.6850356522360326;0;53.73350901;86.84023029
-0.0040787192821454;0.021033325193566224;-0.0764759865402263;0.010577181588571275;1.0154342122301607;0.013453660400879659;0.00018100097818219741;1.0226743019598197;0.038129211375438565;5.745293059825651;0.6160670220221988;0.3795385756233004;2.3727932489278016;-0.5475305714344096;0.03716682347900029;0.5122594539767278;0;53.73358852;86.83992324
0.0101967982053635;0.020783577371551457;-0.0764759865402263;0.009120926907746785;0.9910773806159214;0.012400812880882536;0.00015378016010666223;1.0202170502790182;0.0356719596946371;5.745293059825651;0.5240988424226399;0.2746795966287512;1.8809497169284946;-0.5475305714344096;0.022498626654540985;0.45846948105261687;0;53.73367435;86.83962763
0.0219231161415315;0.017679025116916266;-0.0723972672580809;0.010670835509296393;1.0143468423365969;0.012136869422065677;0.00014730359936827284;1.0202170502790182;0.0356719596946371;5.745293059825651;0.6167945449922461;0.38043551073219184;2.473832384819531;-0.5475305714344096;0.007344014211657864;0.2934736145205843;0;53.733761949999995;86.83933891
0.0224329560517997;0.021618387894848334;-0.0825940654634444;0.016796454693325025;1.0202170502790182;0.01776601380242615;0.0003156312464279965;1.0484277304515806;0.06388263986719944;5.745293059825651;0.9837730293308918;0.9678093732388798;3.850306845638377;-0.5475305714344096;0.000796236948678192;0.08871882890609706;0;53.73384811999999;86.83904107999999
-0.0091771183848271;0.02437913973746577;-0.0999286224125624;0.017194115285126994;0.9982248813388243;0.01686452652158069;0.0002844122547970985;1.0484277304515806;0.057847751715486506;5.745293059825651;1.0017429537493983;1.003488945386569;3.850306845638377;-0.5240194384289023;0.0007645115372445857;0.10862912970071803;0;53.73393066;86.83873194
-0.0163148771285816;0.024152101875383046;-0.0734169470786173;0.017274555245659105;1.0061796226289532;0.017090561393670992;0.0002920872887508373;1.0484277304515806;0.057847751715486506;5.745293059825651;1.0049682510029472;1.0099611855239226;3.850306845638377;-0.4481054106289847;0.0017342531936218048;0.1335370420969656;0;53.734005409999995;86.83841244999999
-0.0305903946160905;0.024928396936955324;-0.0576119098603038;0.017414431122067624;1.0095531872539418;0.019648347657048558;0.00038605756565224556;1.0484277304515806;0.057847751715486506;5.745293059825651;1.020146110881075;1.0406980875457825;3.850306845638377;-0.4481054106289847;0.001712736551135128;0.1335370420969656;0;53.73407462;86.83807462
0.0367084735393086;0.026638234064102116;-0.0346691138982359;0.018451619065578104;1.0484277304515806;0.024133143368441058;0.0005824086088417306;1.0484277304515806;0.08286146993633725;5.745293059825651;1.0582648448955805;1.1199244819418668;3.850306845638377;-0.4481054106289847;0.002157900599008125;0.1335370420969656;0;53.734155699999995;86.83768978
-0.0367084735393086;0.024648473389467292;-0.0601611094116447;0.01974959802791386;0.990579978736094;0.029865805688569152;0.0008919663494273695;1.0484277304515806;0.09275923577081235;5.745293059825651;1.1166627520712813;1.246935701863408;3.850306845638377;-0.4033632132970038;0.003972338703549902;0.17827923942894647;0;53.73424456;86.83729991999999
-0.0142755174875089;0.022127287053658795;-0.0764759865402263;0.020872948043551453;1.0216265703279264;0.02943406252843851;0.0008663640369280279;1.0484277304515806;0.09275923577081235;5.745293059825651;1.188921005824392;1.4135331580904837;3.942045527136541;-0.4033632132970038;0.004209798415435096;0.17827923942894647;0;53.73434648999999;86.83689240999999
-0.0214132762312633;0.021852785066186257;-0.061180789232181;0.021764385746591085;1.0420913251774055;0.029790614779795;0.0008874807289581403;1.0484277304515806;0.09275923577081235;4.293010768399797;1.2306818885191764;1.5145779107291266;4.064103508131095;-0.4033632132970038;0.00434691604002859;0.1867051494803788;0;53.73446836000001;86.83646388
-0.0387478331803813;0.022057999801987443;-0.0479249515652085;0.022715006691767688;0.9655662605152433;0.029792124753803897;0.000887570697346215;1.0484277304515806;0.09275923577081235;4.293010768399797;1.2858797144718956;1.6534866400903239;4.064103508131095;-0.4033632132970038;0.0042353097063139635;0.1867051494803788;0;53.7346052;86.83602728000001
-0.023452635872336;0.028037589904339567;-0.0428265524625267;0.026710508087200574;0.9556684946807682;0.03122548495159603;0.00097503091046235;1.0484277304515806;0.09275923577081235;4.293010768399797;1.518091913868539;2.304603058953043;4.651959081357204;-0.2928243744477193;0.00825164949948676;0.2972439883296633;0;53.73475846;86.83558406
-0.0367084735393086;0.025326040597120552;-0.0316100744366268;0.02679794961354782;1.0045336821108353;0.027569157038601712;0.0007600584198190824;1.0420913251774055;0.08642283049663735;4.293010768399797;1.5229498566948834;2.319376266006966;4.651959081357204;-0.1098172464757947;0.020326728776250573;0.4802511163015879;0;53.73492278;86.83514422
-0.020393596410727;0.02652234932006715;-0.0040787192821454;0.031429377985629;1.0209113598909294;0.029752686686220914;0.0008852223650484272;1.0420913251774055;0.08642283049663735;5.070835387434512;1.7533705852603925;3.074308409256371;5.429783700391919;-0.088834277253704;0.030832220088740005;0.5012340855236787;0;53.73508606;86.83470846
-0.0101967982053635;0.027410659272200065;-0.0122361578464362;0.03243604198210432;1.0075695667032407;0.029855417946380438;0.0008913459807530551;1.0420913251774055;0.08642283049663735;5.070835387434512;1.8087714149829976;3.2716540316595957;5.429783700391919;-0.0826725185491317;0.03973564714386002;0.5073958442282509;0;53.735244820000005;86.83427842
0.037728153359845;0.027072451227672975;0.0061180789232181;0.033999692515607194;0.9765818124504179;0.0269421704792122;0.0007258805501309334;1.0382849403426349;0.08261644566186666;5.070835387434512;1.908100543791928;3.640847685219051;5.429783700391919;-0.0358285240955046;0.04527830436942555;0.554239838681878;1;53.73539505;86.83386801
0.0214132762312633;0.02426395214358146;-0.0295707147955541;0.03407758501612933;1.0172761513401833;0.024467024934844882;0.0005986353091623212;1.0382849403426349;0.08261644566186666;5.070835387434512;1.911666117419981;3.654467344491584;5.429783700391919;0.1492110531816671;0.06108077946957518;0.7392794159590497;1;53.73551976;86.83349864
0.023452635872336;0.023283061378525743;-0.0917711838482716;0.0342313196442856;1.0382849403426349;0.017885535774145145;0.00031989238992822573;1.0382849403426349;0.06170312789221699;5.070835387434512;1.9206931514138545;3.689062181888084;5.429783700391919;0.1492110531816671;0.06519859457253241;0.7392794159590497;1;53.73561831000001;86.83312103
0.0152951973080452;0.01915774297271608;-0.0836137452839808;0.03406486965704083;1.0232165645014513;0.01800175980482784;0.0003240633560707152;1.0382849403426349;0.06170312789221699;5.070835387434512;1.9113634398100467;3.653310199042494;5.429783700391919;0.1492110531816671;0.05960894945964845;0.7392794159590497;1;53.735684930000005;86.83273709
0.0081574385642908;0.01915774297271608;-0.0774956663607627;0.032237224069149875;1.0063862736386593;0.017479315389856347;0.000305526466498069;1.0382849403426349;0.06170312789221699;5.070835387434512;1.8057783649560344;3.260835503343289;5.429783700391919;0.1492110531816671;0.037367091737969864;0.7014843472798236;0;53.73571448;86.83235192
-0.0122361578464362;0.022952487167864494;-0.0509839910268175;0.030318975353386107;0.9874234218002246;0.02044077808436185;0.00041782540869412767;1.0394064124426028;0.06282459999218493;5.070835387434512;1.6935097657826141;2.867975326801085;5.429783700391919;0.1492110531816671;0.0354620880071252;0.6812315140592682;0;53.73571731;86.83194003
-0.0122361578464362;0.019774954431892835;-0.0520036708473539;0.02345041907230534;1.0007132771516978;0.01791928670311882;0.000321100835948571;1.0394064124426028;0.05198299064237821;5.070835387434512;1.2941521268803269;1.674829727508874;3.846009877198375;0.1492110531816671;0.08814252425035682;0.999027093104029;0;53.73569354;86.83148874
-0.0010196798205363;0.02154934076225423;-0.037728153359845;0.029614828947754617;1.001017659570712;0.01853557410087666;0.00034356750724908965;1.0394064124426028;0.05198299064237821;5.070835387434512;1.6502681046089842;2.7233848170897295;5.42359201039239;0.1492110531816671;0.19033349306826028;1.3432252808680547;0;53.73564904999999;86.83101417
-0.020393596410727;0.019745722281285405;-0.0214132762312633;0.03157826196101835;1.00176212340018;0.01729579162956601;0.0002991444080933656;1.0394064124426028;0.059438931277637996;4.687240912505624;1.7867615599661324;3.192516872172607;5.283428087955498;0.1492110531816671;0.3212437941614767;1.6167621910027767;0;53.73559597;86.83051565
-0.0367084735393086;0.023952469742529063;-0.0601611094116447;0.03174974342561375;1.0394064124426028;0.01785277720697761;0.0003187216540019792;1.0394064124426028;0.0655640038160985;4.416370290982188;1.8109694877018556;3.279610485387121;5.136300583917369;0.1492110531816671;0.45961794089250385;1.8410685655745915;0;53.735537320000006;86.82999108
-0.0152951973080452;0.024086900807622477;-0.0428265524625267;0.02884270312957634;0.9942087413120575;0.023638967458801115;0.000558800782518258;1.046804515538053;0.0729621069115487;3.3181488587264267;1.643519025479447;2.7011547871129107;4.0380791516616075;0.1492110531816671;0.5001871914860101;1.8410685655745915;0;53.73547312000001;86.82941744
0.0326297542571632;0.02406674801551432;0.0061180789232181;0.02823058672357925;0.993722846873001;0.023106751158292606;0.0005339219490912567;1.046804515538053;0.0729621069115487;3.3181488587264267;1.6007989043347586;2.562557132119364;4.0380791516616075;0.0405910795003242;0.44251910247268333;1.7324485918932486;0;53.735406409999996;86.82879777000001
0.0020393596410727;0.024082104053456097;0.0101967982053635;0.025658002687329144;0.9799674811649648;0.023142899432125354;0.0005355937941254681;1.046804515538053;0.0729621069115487;3.3181488587264267;1.449608521458059;2.1013648654838195;4.0380791516616075;-0.0368256528348417;0.35212258833862653;1.6550318595580829;1;53.735338920000004;86.82815683999999
-0.0540430304884266;0.02765403089013584;0.0122361578464362;0.02771516513369141;0.9738424086265043;0.023469553482149692;0.0005508199406514847;1.046804515538053;0.0729621069115487;3.3181488587264267;1.5607845848439874;2.4360485202866182;4.9842689862218945;-0.1895720252866505;0.2331622960597342;1.502285487106274;0;53.73526833999999;86.82748978
-0.0356887937187723;0.029136011439506105;0.003059039461609;0.02782478525231859;1.046804515538053;0.024076728800876586;0.00057968886975096;1.046804515538053;0.0729621069115487;3.3181488587264267;1.5661502665073472;2.452826657281035;4.9842689862218945;-0.5320204608776011;0.11780668622217513;1.1598370515153233;0;53.73518885;86.82680101000001
-0.0142755174875089;0.029333596887202714;0.0040787192821454;0.02019892813608942;1.0004160773498518;0.02101102656211565;0.0004414632371939295;1.046804515538053;0.0729621069115487;2.468837869657038;1.1571065464275758;1.3388955597855519;4.1349579971525054;-0.8498160399223619;0.04952085576319565;0.8420414724705626;0;53.735102760000004;86.82611588
-0.0203935964107269;0.02934304752476005;-0.0214132762312633;0.0137851761593516;1.0083871729536713;0.021058428987785517;0.0004434574314336054;1.046804515538053;0.0729621069115487;1.2167772584739276;0.7837756460216296;0.6143042632966228;2.882897385969395;-1.1940142276863877;0.018269778911209626;0.4978432847065368;0;53.735014;86.8254588
-0.0642398286937901;0.01997115231544006;0.0295707147955541;0.014149116447103281;1.0170430883116475;0.021556951850835674;0.0004647021730992476;1.046804515538053;0.0729621069115487;1.2167772584739276;0.8046633486906634;0.6474831047260721;2.882897385969395;-1.2111316107439247;0.01749255125778733;0.48072590164899975;0;53.7349241;86.82480826
-0.0520036708473539;0.02039812781760672;0.0101967982053635;0.01430623668405662;0.9884716434056119;0.020047681045870732;0.00040190951531696465;1.046804515538053;0.0729621069115487;1.2167772584739276;0.8124811498162179;0.6601256188066834;2.882897385969395;-1.2111316107439247;0.017344905077896707;0.48072590164899975;0;53.73483451;86.82415291
-0.040787192821454;0.024326719835867962;-0.0091771183848271;0.014254866172838549;1.0123859658403684;0.01624876846904803;0.0002640224767607294;1.046804515538053;0.058332872132441094;1.2167772584739276;0.8082480059166115;0.6532648390681788;2.882897385969395;-1.2111316107439247;0.007433455104540163;0.30899676552233957;0;53.73474688;86.82349184
-0.0397675130009177;0.02750490630653406;0.0152951973080452;0.01913722888075686;0.9930629262592425;0.010935090584091874;0.00011957620608229477;1.019283725454395;0.03081208204878305;1.2167772584739276;1.079994246108394;1.1663875716272385;3.7969612614242525;-1.1228384539241738;0.008480191407153321;0.3170803696538358;0;53.73465882000001;86.82285850000001
-0.0316100744366268;0.029515772944811364;-0.0040787192821454;0.01904494532400714;1.0191586309500773;0.011321235387218137;0.0001281703706928002;1.019283725454395;0.03081208204878305;1.2167772584739276;1.0747928506291289;1.1551796717634888;3.7969612614242525;-0.9122127748596388;0.02149974661901826;0.4801301331452611;0;53.73455394;86.82225697999999
0.0040787192821454;0.03127923135911701;0.0132558376669725;0.01776214735716698;1.0156957960196507;0.01142207853647978;0.00013046387809351206;1.019283725454395;0.03081208204878305;0.5193842769846039;1.0003907487270003;1.0007816501385682;3.0995682799349287;-0.6002810392889233;0.061065764145807284;0.7585398073512046;0;53.73442755;86.82169027
0.0142755174875089;0.030617762664997723;0.0112164780258998;0.022152073108630568;1.0065877175256541;0.013767364661769687;0.00018954032973014475;1.0333261429048373;0.044854499499225375;0.5193842769846039;1.2367547317676313;1.5295622665496253;3.8004461825302616;-0.6002810392889233;0.07628423244869614;0.7585398073512046;0;53.73428457;86.82118633
0.0142755174875088;0.029889163931203982;0.0458855919241357;0.0252412809579911;1.019283725454395;0.012990695546729764;0.0001687581707878245;1.0333261429048373;0.040263216645594735;1.117491811786513;1.4168484515861095;2.0074595347619564;4.39855371733217;-0.6002810392889233;0.06955551131089274;0.7566890306128382;1;53.73413127;86.82075143
0.0112164780258998;0.02912173355166039;0.0091771183848271;0.023612432435768643;0.9963325912288252;0.019027397358488754;0.00036204185023782476;1.0539514407754298;0.060888514516187264;1.117491811786513;1.3248500479007297;1.7552276494225656;4.39855371733217;-0.6002810392889233;0.06720679949839897;0.7566890306128382;1;53.73396288;86.82037056
0.0122361578464362;0.028937076888745198;0.040787192821454;0.023789858405945052;1.0124183166495602;0.01759092840867426;0.00030944076227910314;1.0539514407754298;0.06055352777688139;1.117491811786513;1.3354628240658117;1.783460954461833;4.39855371733217;-0.6002810392889233;0.06033382006726981;0.7466273647866961;1;53.73377307;86.82002202999999
-0.0601611094116447;0.028801016529341365;0.0591414295911083;0.022325581197966966;1.0333261429048373;0.017623492754788996;0.0003105874968781002;1.0539514407754298;0.06055352777688139;1.117491811786513;1.2547593304741438;1.5744209774119213;4.39855371733217;-0.6002810392889233;0.07726198028152104;0.8975611361453237;1;53.73355915999999;86.81970572
-0.0458855919241358;0.029074089952340926;-0.0193739165901906;0.022078939620450697;0.9933979129985484;0.017620767219750005;0.0003104914374126163;1.0539514407754298;0.06055352777688139;1.117491811786513;1.2411504231186088;1.5404543728075017;4.39855371733217;-0.6002810392889233;0.12029232757160196;1.1854607272198268;1;53.733312690000005;86.81943109
-0.0305903946160905;0.027385359455156;0.0193739165901906;0.02157077436687847;1.0539514407754298;0.018087572821548152;0.00032716029057480744;1.0539514407754298;0.06055352777688139;1.117491811786513;1.2139452447502506;1.473663057251746;4.39855371733217;-0.6002810392889233;0.18324706527264464;1.3379630622370675;1;53.73303442;86.81919378
-0.037728153359845;0.026964485529805744;0.0295707147955541;0.02045157908401889;1.0223337798284589;0.019004401442532036;0.0003611672741889137;1.0539514407754298;0.06055352777688139;1.117491811786513;1.1506577892327368;1.3240133479219693;4.39855371733217;-0.6002810392889233;0.22233078715361954;1.3379630622370675;1;53.732733870000004;86.81898027
0.003059039461609;0.028957630280638517;0.0316100744366268;0.02071843976569184;1.0130399703010342;0.02045855189149563;0.0004185523454970194;1.0539514407754298;0.0676232093844441;1.117491811786513;1.165389543397389;1.358132787859975;4.39855371733217;-0.6002810392889233;0.23365548149691648;1.3379630622370675;1;53.73242529;86.81879457
-0.0346691138982359;0.028197010068170644;0.0193739165901906;0.02963997971569732;1.0163773378875036;0.020869589798981493;0.0004355397783777524;1.0539514407754298;0.0676232093844441;2.738020399583258;1.673453184785501;2.800445561668736;6.019082305128916;-0.7468876718162504;0.1750340687758637;1.1913564297097405;0;53.73211581;86.81861309000001
-0.0071377587437544;0.031003781865546986;0.0275313551544814;0.02650208686666096;1.0007101601293313;0.02016570861263523;0.0004066558038497108;1.0539514407754298;0.0676232093844441;2.738020399583258;1.5081636230760307;2.2745575139698198;4.774922618618486;-1.0723896502944978;0.13966371735522484;1.1297221224480494;0;53.73180343;86.81841334999999
-0.0530233506678902;0.03174701429168158;0.0224329560517997;0.02405834603648879;1.0345389249425112;0.019053937112598857;0.000363052519490872;1.0539514407754298;0.0676232093844441;2.738020399583258;1.368754790523214;1.8734896765802478;4.774922618618486;-1.198768353753653;0.16046337792036314;1.3161385895312303;0;53.73148837;86.81818789
0.023452635872336;0.04109884559414583;0.0061180789232181;0.02409673116855264;0.9863282313909857;0.02894515986626529;0.0008378222796836549;1.0345389249425112;0.10439081561806607;2.738020399583258;1.3703961208357824;1.8779855280017606;4.774922618618486;-1.198768353753653;0.1839468295401777;1.4282213202169454;0;53.731177190000004;86.81792535
-0.0601611094116447;0.04137340313411119;-0.0479249515652085;0.026128929253485512;1.0032587211371318;0.033909817660846;0.001149875733791823;1.0345389249425112;0.10439081561806607;2.738020399583258;1.515773669920155;2.2975698184232147;5.71895189093668;-1.497842175434247;0.18110208330045477;1.3238445475330396;0;53.730861059999995;86.81757338
-0.0795350260018354;0.04261508071820948;0.0356887937187723;0.025672406928494537;1.0040973119313483;0.03725343958644267;0.0013878187610207341;1.0345389249425112;0.10439081561806607;2.738020399583258;1.4920765121716202;2.2262923181742273;5.71895189093668;-1.78574176650875;0.23788270026307648;1.3874960944265382;1;53.73056454;86.81719749999999
-0.0571020699500356;0.04571393947146821;0.0122361578464362;0.025618349263860144;1.0203327164384106;0.03587010890747005;0.0012866647130337623;1.0345389249425112;0.10439081561806607;2.738020399583258;1.4899425411336003;2.21992877587965;5.71895189093668;-1.857630077741589;0.35828336984334147;1.6831576824818892;1;53.73029407;86.81680415000001
-0.116243499541144;0.04566235585858447;0.0091771183848271;0.02644623046657401;0.9301481093244451;0.03830017974295858;0.0014669037683429347;1.0345389249425112;0.10439081561806607;2.738020399583258;1.5380607679043792;2.3656309257666086;5.71895189093668;-1.857630077741589;0.49063417381315744;1.9202073132511757;1;53.730049120000004;86.81638512
-0.058121749770572;0.04673266768495291;0.0489446313857448;0.027879589072839318;0.9411777312040994;0.03560754869613507;0.00126789752414763;1.0287437472240124;0.09859563789956727;2.738020399583258;1.6170100684723512;2.614721561540958;5.71895189093668;-1.8652711473563413;0.581965371474633;2.12807373865834;1;53.72982504;86.81594088
0.0122361578464362;0.04275041342908146;0.0081574385642908;0.027829974720274073;0.9402598056139169;0.03693119050220044;0.0013639128319098198;1.0287437472240124;0.09859563789956727;2.738020399583258;1.613777278222002;2.6042771037056127;5.71895189093668;-1.8821888186646576;0.5147499332759684;2.1111560673500236;1;53.72961521999999;86.8154469
0.0091771183848271;0.04241620888260985;0.0112164780258998;0.018462494522303734;0.9830781748662389;0.04069725288469239;0.0016562663923606034;1.0382725478435966;0.10812443851915143;0.7950990293523423;1.0777938597320902;1.1616396040761963;3.7760305207057643;-2.202111772742547;0.3962108563609744;1.791233113272134;1;53.72942179;86.81492579
-0.0764759865402263;0.052859933731670986;-0.0142755174875089;0.01801306083435144;1.0287437472240124;0.04098278928611342;0.0016795890176699733;1.0382725478435966;0.10812443851915143;0.7950990293523423;1.0581327759133852;1.1196449714621663;3.7760305207057643;-2.5149069432848834;0.33994045705760784;1.6364201610973317;1;53.729249419999995;86.81438222
-0.0122361578464361;0.0632020780392718;0.0392576730906495;0.018398558211543858;1.0098107601424784;0.04235714310396088;0.001794127571929421;1.0382725478435966;0.10812443851915143;0.7950990293523423;1.0811206848740007;1.1688219352624283;3.7760305207057643;-2.6269896739705985;0.29149635527480044;1.5770799086320437;1;53.72910905;86.81382457
-0.0081574385642908;0.06802284770634748;0.011726317936168;0.021919558830291622;0.9535076380493598;0.03916141376067601;0.001533616327734864;1.0382725478435966;0.0980127422296797;1.305164447599314;1.2762393472463607;1.6287868714598168;4.2860959389527356;-2.8216867229672866;0.18114571001001303;1.3823828596353556;1;53.72900989;86.81328253000001
-0.046395431834404;0.0681511229446193;0.0214132762312633;0.023780144095976355;1.0382725478435966;0.03398723946322479;0.0011551324463305844;1.0382725478435966;0.0980127422296797;2.5545503506275726;1.3480372342573193;1.8172043849441226;4.7825578556668225;-3.1732378609352883;0.10891008132119973;1.030831721667354;1;53.72896942999999;86.81283759
-0.1468338941572346;0.0641705763268125;0.0020393596410727;0.02540369693453324;1.0090096357022296;0.02695407500564186;0.0007265221594097672;1.0382725478435966;0.08476490979423679;2.5545503506275726;1.4355814675639338;2.060894150013018;4.7825578556668225;-2.892160377405815;0.15181617939614536;1.311909205196827;1;53.728968599999995;86.81242716
-0.1590700520036708;0.05825083047852766;0.003059039461609;0.025071362827620965;1.0330247379398418;0.024990434842904863;0.0006245218336374735;1.0382725478435966;0.08476490979423679;2.5545503506275726;1.4163718095119906;2.0061091027802704;4.7825578556668225;-2.308031100380041;0.34892490207779314;1.8960384822226013;1;53.72900975;86.81205102999999
-0.1549913327215254;0.06037869410736545;-0.023452635872336;0.026461515413006814;1.0296428735242675;0.02457272243072087;0.0006038186876572526;1.0382725478435966;0.08476490979423679;2.5545503506275726;1.4953516116003809;2.2360764423158566;4.7825578556668225;-2.223230646060674;0.5230491981251507;1.9808389365419683;0;53.72909510000001;86.81171398
-0.0499643112062812;0.058908539721926695;-0.0448659121035994;0.02286909699134793;1.0066269685641611;0.026942637978120892;0.0007259057412200823;1.0382725478435966;0.08476490979423679;2.5545503506275726;1.2941168386620896;1.6747383921087609;4.002105850579156;-2.0481623146633567;0.6565384739388228;2.1559072679392854;0;53.72922375;86.81141255
-0.0295707147955541;0.06007773457997017;-0.0285510349750178;0.028466949423734643;1.0347720665923004;0.018961519686148245;0.00035953922880818743;1.0382725478435966;0.05983994630803513;2.5545503506275726;1.6158533506206898;2.6109820507121095;5.3614915372777165;-1.698951387945258;0.8553458749908308;2.505118194657384;0;53.72940206999999;86.81116591
-0.0744366268991536;0.06377008357726878;-0.0112164780258998;0.027626444981198456;1.008218445274911;0.017444796106001595;0.00030432091117996846;1.0347720665923004;0.056339465056738924;2.5545503506275726;1.571855482810006;2.470729658839877;5.3614915372777165;-1.1996032862322583;1.0937708515050997;3.004466296370384;0;53.729623360000005;86.810952
-0.0254919955134087;0.060925430779962715;0.0254919955134087;0.028079587022718996;1.009107524923813;0.01973506598576523;0.00038947282946250777;1.0403258070637578;0.06189320552819633;2.5545503506275726;1.5958555835493238;2.5467550435455526;5.3614915372777165;-0.960684470041157;1.1381219917871235;3.2433851125614854;1;53.729879030000006;86.81076991
-0.0275313551544814;0.05231442229948077;-0.0183542367696543;0.029029353062302088;0.9784326015355614;0.03500538177716895;0.0012253767533653521;1.0403258070637578;0.12228263245314785;2.5545503506275726;1.6585791989312353;2.7508849591273785;5.3614915372777165;-0.3985666902629409;1.1105803645659857;3.3164335429621383;1;53.73015485999999;86.81060286
0.0010196798205363;0.03725825663585791;0.0489446313857448;0.03609612155760845;0.9994662126191388;0.033881958454564695;0.0011479871087168479;1.0403258070637578;0.12228263245314785;4.163833415590438;2.0610720010661403;4.248017793578783;6.970774602240581;0.1953668219185974;1.21758539625753;3.5357270108995538;1;53.730431509999995;86.81042639
-0.0010196798205363;0.07024706764656487;0.0101967982053635;0.043292850830805966;1.000358393732028;0.03523643360504148;0.0012416062532024966;1.0403258070637578;0.12228263245314785;5.048426354197313;2.448898669569501;5.997104693819272;7.855367540847457;0.4874090872858551;1.2767664088879997;3.37956946469167;1;53.73069931;86.81022315
0.0081574385642908;0.07496946966079934;-0.0214132762312633;0.05026756074341058;1.0403258070637578;0.033506333061246105;0.0011226743552111538;1.0403258070637578;0.12228263245314785;5.481824559293838;2.8673460468997645;8.221673352671706;8.288765745943982;0.6725046182909733;1.289916305201474;2.980535718671014;1;53.730943939999996;86.80999674
-0.1070663811563169;0.07033606567337401;0.0183542367696543;0.052651761034983494;0.9180431746106099;0.0334089611087882;0.0011161586823685227;1.0403258070637578;0.12228263245314785;5.481824559293838;3.0063134831151075;9.03792075875969;8.288765745943982;0.6725046182909733;1.2300403865574598;2.8957352643516474;1;53.731158400000005;86.8097504
0.0;0.06917007664141955;-0.0734169470786173;0.05221550607705539;1.0111322175193989;0.03356603189783153;0.0011266784973662436;1.0403258070637578;0.12228263245314785;5.481824559293838;2.9998779775350544;8.999267880099808;8.288765745943982;0.6725046182909733;1.0071949325326064;2.7206669329543303;1;53.731341480000005;86.80948804
0.1611094116447435;0.0702811845488697;-0.0907515040277353;0.0522202627613433;1.031294108740168;0.03344770806627379;0.001118749174886677;1.0403258070637578;0.12228263245314785;5.481824559293838;3.0009116998856715;9.00547103051071;8.288765745943982;0.6725046182909733;0.7477549067489248;2.3714560062362313;1;53.731492349999996;86.80921139
0.078515346181299;0.07687571382155782;-0.0948302233098807;0.04141903226899406;0.9926749332136331;0.03387154460093686;0.001147281533653255;1.0403258070637578;0.12228263245314785;5.481824559293838;2.390762114038226;5.7157434859205285;6.627402896128062;0.6871628821637595;0.4902186715139351;1.8867661683960177;1;53.73160717;86.80891917
0.0285510349750178;0.07747210877262518;-0.0723972672580809;0.047614183087828256;1.0043452845562126;0.03514682832347423;0.0012352995411997706;1.0403258070637578;0.12228263245314785;5.481824559293838;2.756602141378263;7.5988553658512235;8.008396374648724;0.8778831221554675;0.3222486445153614;1.8385675921966245;1;53.7316907;86.80860078
0.0071377587437544;0.07752406013659739;-0.0866727847455898;0.0662818899955643;0.9817324591960109;0.03209067977461809;0.0010298117283970825;1.031294108740168;0.113250934129558;5.481824559293838;3.8054994643956324;14.481826173515445;11.07072128163409;0.8778831221554675;0.13800234956148763;1.2764498124184085;0;53.731748370000005;86.80825909
-0.0418068726419904;0.06780755804107998;-0.0622004690527174;0.0715198770789141;1.0148033952833253;0.018053358693596214;0.000325923760119646;1.031294108740168;0.0597895108407972;5.481824559293838;4.086963156599695;16.70326784340334;11.07072128163409;0.8778831221554675;0.04409231344473195;0.6825163002368702;0;53.73178170999999;86.80790075
-0.0846334251045171;0.06766702303053096;-0.0387478331803813;0.07897740384929171;1.0163038076034054;0.018412681939234725;0.0003390268561954206;1.031294108740168;0.0597895108407972;5.481824559293838;4.503788477297522;20.28411064823793;11.07072128163409;0.8778831221554675;0.06563449054403367;0.8906157457765819;0;53.73179395;86.80752387
-0.0254919955134087;0.04451187598596418;0.0428265524625267;0.07659645934697282;0.9715045978993707;0.016584852265989068;0.0002750573246846827;1.017876451606862;0.046371853707491195;5.481824559293838;4.388421882338417;19.258246617386654;11.07072128163409;0.8778831221554675;0.12701437417569295;1.1107663565672108;0;53.731788560000005;86.80714472
-0.0091771183848271;0.03525415896124421;0.0978892627714897;0.07111589569009431;1.005126076040882;0.019714757643289376;0.0003886716689336369;1.0369266432094915;0.06542204531012075;5.064983381030407;4.059727968850411;16.481391181066286;10.653880103370659;0.8778831221554675;0.2017155898404039;1.3169433109981699;1;53.73177805;86.80675277
0.0275313551544814;0.03271267490890832;0.0622004690527174;0.06532588229423911;1.017876451606862;0.01973858767224651;0.00038961184329496185;1.0369266432094915;0.06542204531012075;5.064983381030407;3.732779507178441;13.933642849211324;10.653880103370659;0.8778831221554675;0.43824339166834636;2.0750245740400386;1;53.73176896;86.80635456
0.0081574385642908;0.040073402532602886;0.0887121443866625;0.05372574718973031;1.0174693078552584;0.01811941267563199;0.00032831311570985316;1.0369266432094915;0.06542204531012075;3.5140398771092216;3.039045491817781;9.235797501337979;9.102936599449473;0.8778831221554675;0.7569200300021753;2.5012906205431467;1;53.731757400000006;86.80594108
0.0183542367696543;0.038596224443340384;0.0504741511165493;0.039596654622781155;0.9885101675147718;0.018200817954545683;0.0003312697742145125;1.0369266432094915;0.06542204531012075;2.185001668474292;2.23357395069044;4.988852593202901;7.773898390814544;0.8778831221554675;0.8926863037073116;2.5012906205431467;1;53.73174134999999;86.80552311
-0.0173345569491179;0.029734154192041135;0.061180789232181;0.01891293049207649;1.0369266432094915;0.018214754577062935;0.00033177728430263515;1.0369266432094915;0.06542204531012075;-2.526571815354885;1.052764800457533;1.1083137250823891;3.0623249069853666;0.8778831221554675;0.8894937105302626;2.5012906205431467;1;53.731713709999994;86.80507307
-0.0142755174875089;0.02837732280369413;0.061180789232181;0.016219801743082234;1.00227679851434;0.012776218076630633;0.00016323174834162335;1.0369266432094915;0.04841647569471963;-2.92684290008405;0.9176379884323563;0.8420594778141813;2.6620538222562016;0.8232535824051944;0.7379685442975045;2.4466610807928735;1;53.7316775;86.80462725999999
0.061180789232181;0.039260395085269455;0.0887121443866625;0.01762937322261714;1.0162325740637748;0.012851538643966095;0.0001651620455173539;1.0369266432094915;0.04841647569471963;-2.153532186752169;0.9857936429066901;0.971789106395243;2.9097878035856;0.4245498415017754;0.4832287455082009;2.0479573398894546;1;53.731630470000006;86.80418855
-0.020393596410727;0.038968582224984824;0.0897318242071989;0.01964696317388308;1.016714869542744;0.013713325363644802;0.00018805529252918383;1.0369266432094915;0.04841647569471963;-2.153532186752169;1.0950313922208257;1.19909374994908;2.9097878035856;-0.0127326236211144;0.30331531869898387;1.6106748747665647;1;53.731572830000005;86.80375715
0.0438462322830631;0.06380992686640931;0.0652595085143265;0.023625944523452524;1.0166064625010016;0.01447476106727707;0.00020951870795476004;1.0369266432094915;0.04841647569471963;-0.8541390962789728;1.3300969992926126;1.7691580275272123;4.209180894058797;-0.2328832344117432;0.23530527635849344;1.5446704630956;1;53.73150618;86.80333722
-0.0122361578464362;0.0658590033323005;0.078515346181299;0.03525481435264732;1.0065066282963513;0.020486950265801253;0.00041971513119341396;1.0369266432094915;0.07569031741460952;1.3980645245632268;2.008946903353513;4.035867660493668;6.461384514900995;-0.4390601888427023;0.1513704263827329;1.3384935086646408;1;53.731442730000005;86.80291025
-0.0774956663607627;0.0659126588683202;0.037728153359845;0.04441561122713599;1.0040123970002504;0.018053490967611045;0.00032592853611761353;1.0260421475548724;0.0648058217599905;2.0535418434212342;2.532992013240176;6.416048539138521;7.116861833759003;-1.02128402416576;0.06458454250835176;0.7562696733415832;1;53.7313902;86.80248908
-0.0254919955134087;0.06880308006751396;0.040787192821454;0.04467767469077079;0.9953506258386335;0.01810459553884966;0.00032777637962533497;1.0260421475548724;0.0648058217599905;2.0535418434212342;2.5449533166630918;6.476787383994471;7.116861833759003;-1.02128402416576;0.058112696120165896;0.7562696733415832;1;53.73136211999999;86.80201300000002
-0.1651881309268889;0.06142587123952562;0.0152951973080452;0.043966479199462165;1.0260421475548724;0.018958357287903755;0.0003594193110558134;1.0260421475548724;0.0648058217599905;2.0535418434212342;2.509418513504516;6.297181275919214;7.116861833759003;-1.02128402416576;0.05522297774803028;0.7562696733415832;1;53.73133616;86.80153136
-0.092790863668808;0.061228355799551326;-0.023452635872336;0.03795331148868761;0.9612363257948819;0.02021383178471217;0.0004085989954206399;1.0276121563161944;0.06637583052131246;2.0535418434212342;2.173360428519065;4.723495552252572;6.52760377595057;-1.02128402416576;0.05525800608811472;0.7562696733415832;0;53.731313639999996;86.80102500000001
-0.0152951973080452;0.05621263431124281;-0.0356887937187723;0.03991409417984009;0.9959646634065773;0.021137914863850006;0.000446811444791371;1.0276121563161944;0.06637583052131246;2.734435550571891;2.276473314268715;5.182330750577587;7.208497483101226;-1.02128402416576;0.052580505231648325;0.7562696733415832;0;53.731306270000005;86.80051843
0.0316100744366268;0.05697051323678995;0.0132558376669725;0.031425885801875456;1.0090457012571308;0.02128063494137021;0.00045286542350786674;1.0276121563161944;0.06637583052131246;2.734435550571891;1.7910599467905972;3.207895732997537;5.08294316214166;-1.02128402416576;0.04891187008177727;0.7562696733415832;1;53.73130797;86.79998508999999
-0.0305903946160905;0.056712290172636376;-0.020393596410727;0.02859732813499642;0.9816207184220721;0.022108049413732317;0.0004887658488800298;1.0276121563161944;0.06637583052131246;2.734435550571891;1.6278294039803176;2.649828568462916;5.08294316214166;-1.251469741753671;0.02339247442334182;0.5260839557536721;0;53.73132105;86.79942216999999
-0.0295707147955541;0.05703286073877047;0.0275313551544814;0.024032221144329086;1.0276121563161944;0.022111253226259363;0.0004889075192357651;1.0276121563161944;0.06637583052131246;2.734435550571891;1.3603066148495637;1.8504340864034792;4.2696638137300305;-1.4379176978357204;0.01408517867796454;0.3396359996716227;0;53.73134171;86.79883611
0.0010196798205363;0.03323766948325861;-0.0489446313857448;0.02546484624326318;1.0259468875799418;0.021261724156634253;0.00045206091411280455;1.0276121563161944;0.06637583052131246;2.734435550571891;1.447841568388035;2.0962452071523248;4.2696638137300305;-1.3381320951697226;0.011776985993976065;0.38446795597780303;0;53.73137167;86.79822607
-0.0010196798205363;0.03190672861522415;-0.0010196798205363;0.02480761066896011;1.0115234098745836;0.01565489549893961;0.0002450757530827197;1.0276121563161944;0.0459914378941223;2.734435550571891;1.4056158911774854;1.9757560335306767;4.2696638137300305;-1.2630866053730692;0.011410930131526205;0.3829755736205853;0;53.731396489999995;86.79760321
0.0010196798205363;0.03306691675701288;-0.0071377587437544;0.024149231707738084;1.0227642754304376;0.019770438348132705;0.00039087023247731624;1.047670278478852;0.06604956005677998;2.734435550571891;1.3569869695434253;1.841413635510649;4.2696638137300305;-1.2630866053730692;0.008942160932064715;0.2895085828670392;1;53.73140703;86.79698143
-0.0127459977567044;0.03964472946765282;-0.0005098399102682;0.02464923501548114;0.995289253479777;0.02132393312031102;0.00045471012371949736;1.047670278478852;0.06604956005677998;2.734435550571891;1.3872574335056906;1.9244831868167955;4.2696638137300305;-1.1779180162130805;0.015185121781402982;0.3746771720270279;1;53.7313843;86.79642878
0.0086672784745589;0.04287791029410924;0.0265116753339451;0.03370436440479925;0.9915211849544378;0.02037787990118863;0.0004152579892672675;1.047670278478852;0.06109962027457638;4.376383193863196;1.9228977612487206;3.6975358002153413;5.911611457021335;-1.1779180162130805;0.014972093398261388;0.3746771720270279;1;53.731349269999995;86.79592015
-0.0876924645661262;0.047420410770079253;-0.003059039461609;0.03570372162269494;1.0041470149005347;0.020474672477265393;0.00041921221305128904;1.047670278478852;0.06109962027457638;4.376383193863196;2.0259933946364437;4.104649235110501;5.908562420996992;-1.1779180162130805;0.024635801113269913;0.537338718835902;1;53.73129612;86.79545484
0.0142755174875089;0.05155521071408446;0.0275313551544814;0.039173676676765704;1.047670278478852;0.019724060800108186;0.0003890385744463644;1.047670278478852;0.06109962027457638;4.376383193863196;2.228230115503221;4.965009447635499;5.908562420996992;-1.1779180162130805;0.029935438154480323;0.537338718835902;1;53.73122411000001;86.79503467
0.0683185479759355;0.050986370224218765;-0.020393596410727;0.03990385391885967;0.9865706582042757;0.01970621468816669;0.00038833489733611654;1.047670278478852;0.06109962027457638;4.376383193863196;2.2681783312296333;5.144632942259644;5.908562420996992;-1.1779180162130805;0.030532618882118372;0.537338718835902;0;53.73113636000001;86.79464996
-0.0622004690527174;0.050314538011207666;-0.07545630671969;0.04800831562740065;0.9888381533050128;0.019552647324608704;0.0003823060174005279;1.047670278478852;0.06109962027457638;6.3661886675592445;2.714653149285236;7.36934172092425;7.89836789469304;-1.1779180162130805;0.032123336822961424;0.537338718835902;0;53.73103184;86.79429968000001
-0.07545630671969;0.05062267880712719;-0.0652595085143265;0.04686350538867523;1.0286077996625382;0.019027043225626514;0.0003620283739098598;1.047670278478852;0.06109962027457638;6.3661886675592445;2.649109960122789;7.017783580821765;7.89836789469304;-1.1779180162130805;0.03223517816625434;0.537338718835902;0;53.73091332;86.79397123999999
-0.0825940654634444;0.04842208853472576;-0.07545630671969;0.04066081164443249;1.0075556354759139;0.023000048483993576;0.0005290022302660552;1.047670278478852;0.08167230721369934;6.3661886675592445;2.295044105382679;5.267227445651781;7.872017454623228;-0.9715493592892608;0.04972682742933446;0.7437073757597217;0;53.730780870000004;86.79367239000001
-0.0285510349750178;0.04753939356974061;-0.0530233506678902;0.03800441520209558;1.010259843060956;0.023743743380396618;0.0005637653497141282;1.047670278478852;0.08167230721369934;6.3661886675592445;2.1452133908985265;4.601940492490353;7.872017454623228;-0.7292103102342946;0.08868659344962136;0.9860464248146878;0;53.730643459999996;86.79339418
-0.0428265524625267;0.04810288443031142;-0.113184460079535;0.025657102153751457;1.0207606181966318;0.018738831519729403;0.0003511438067248042;1.0286077996625382;0.06260982839738549;6.3661886675592445;1.4595023568702619;2.130147129709849;5.1817319601500875;-0.4758779596215486;0.15571339230569245;1.239378775427434;0;53.7305027;86.79313565999999
-0.058121749770572;0.03723111544648265;-0.0591414295911083;0.019614227469239777;1.0088179514062994;0.018329465643046678;0.0003359693107596286;1.0286077996625382;0.06260982839738549;6.3661886675592445;1.1106402520817995;1.2335217695443232;3.357645128198356;-0.2130719408582731;0.2563570742584687;1.5021847941907094;0;53.73036201;86.79287977
-0.0509839910268175;0.0420094886114825;-0.0632201488732537;0.019632772144314376;0.9659979712651527;0.01777132920062074;0.0003158201415568354;1.0286077996625382;0.06260982839738549;6.3661886675592445;1.1128377774651528;1.2384079189535808;3.357645128198356;0.1485838357961;0.3867183661832805;1.8638405708450825;0;53.73022708999999;86.79260661
0.0081574385642908;0.04117621486940012;-0.0805547058223717;0.019150203581560273;0.9883327863760156;0.017028277148321405;0.0002899622226400449;1.0234456818700606;0.05744771060490783;6.3661886675592445;1.0751681348682116;1.1559865182359887;3.357645128198356;0.2605409622914462;0.44153386349972745;1.9202089603391514;0;53.73010094999999;86.79231918999999
0.0193739165901906;0.035289368993626356;-0.1009483022330988;0.01967979118457885;0.9913737092477223;0.017461805178674968;0.00030491464009799993;1.0234456818700606;0.05744771060490783;6.3661886675592445;1.1092948667299956;1.2305351013535184;3.357645128198356;0.5608463416008511;0.4874131938819413;1.900180381722557;1;53.729979830000005;86.79202654999999
0.0112164780258998;0.03526529895859169;-0.095849903130417;0.018863311138998026;1.009010150933519;0.018080861591075904;0.00032691755587564383;1.0234456818700606;0.05744771060490783;6.3661886675592445;1.0519922268365398;1.1066876453245018;3.0053262899495743;0.9178147611781688;0.59161578898442;2.2222596673614246;1;53.729859669999996;86.79173231
0.0346691138982359;0.0324480159868242;-0.0744366268991536;0.0199498097724223;1.0067194090422067;0.01680592687228608;0.0002824391780366273;1.0234456818700606;0.05744771060490783;5.844369070213224;1.140055643060288;1.2997268692736066;3.9472593323649114;0.954722280305222;0.6005659367270958;2.2048270292049548;1;53.72973598;86.79144222
0.0265116753339451;0.023569644111983083;-0.0836137452839808;0.02418556199723676;1.0234456818700606;0.017286763999725254;0.00029883220958219704;1.0234456818700606;0.05744771060490783;5.844369070213224;1.3870424887286423;1.9238868655385457;4.290123255144059;0.9770390923350044;0.5173403396848246;1.948588451624265;0;53.72960349;86.79115869
0.0214132762312633;0.012613773223900305;-0.0652595085143264;0.03024711176750578;1.0158861825580345;0.01258475788505658;0.0001583761310254938;1.0234456818700606;0.036428797878324426;5.844369070213224;1.7357873655446454;3.01295777838442;5.209105317917207;0.9770390923350044;0.3831714468831984;1.706249402569299;0;53.729450299999996;86.79087494000001
0.0214132762312633;0.012551338645564174;-0.0591414295911083;0.04239550399423305;0.9870168839917361;0.016211033721436736;0.00026279761431755906;1.044019688946031;0.05700280495429477;5.844369070213224;2.404869740059854;5.783398466655551;7.747359198901271;0.9770390923350044;0.2565850149798257;1.452917051956553;0;53.729273160000005;86.79060564
0.0198837565004588;0.012767619289726136;-0.0331395941674314;0.04420445638180225;1.0010521954142537;0.016304829182390086;0.00026584745466691934;1.044019688946031;0.05700280495429477;5.45097406827643;2.4996461332711584;6.248230791577454;7.353964196964477;0.9770390923350044;0.15039056129704875;1.1901110331932776;0;53.72906102;86.79033974000001
0.0132558376669725;0.01583342752842487;-0.0275313551544814;0.04203179232521195;1.0150414540634591;0.016309374802174457;0.0002659957064378031;1.044019688946031;0.05700280495429477;4.686189239999629;2.376072363089926;5.645719874639744;6.589179368687676;0.9770390923350044;0.08260821500645403;0.8284552565389044;0;53.728825289999996;86.79009377
-0.0122361578464362;0.015006297648808902;-0.0112164780258998;0.04353052976429525;1.0116585699575624;0.01632460278963584;0.0002664926562393863;1.044019688946031;0.05700280495429477;4.686189239999629;2.462095567068643;6.061914581379063;6.893246196855627;0.9770390923350044;0.07194880264788964;0.7164981300435582;0;53.72855917;86.78987117
0.0254919955134087;0.01430391484118067;0.0346691138982359;0.04800446522544025;1.044019688946031;0.01623954956113145;0.0002637229699484447;1.044019688946031;0.05700280495429477;3.6831595087265128;2.7181584020483816;7.38838509862621;8.603241536277245;0.9770390923350044;0.09662613383610513;0.9493028418506108;1;53.728257510000006;86.78967447000001
0.0254919955134087;0.014687263845236375;0.0214132762312633;0.042969588057847445;0.9906686688823129;0.01616062639567627;0.00026116584550062855;1.044019688946031;0.05700280495429477;3.435184665847117;2.439967624025024;5.953442006290321;8.35526669339785;0.9770390923350044;0.14555687326833122;1.063725104665199;1;53.72792451;86.78950019000001
-0.0112164780258998;0.015430649261246135;0.0122361578464362;0.035905384935734044;1.0085999435482345;0.014153881186227629;0.00020033235263384845;1.044019688946031;0.05335102006371806;1.8971097378483124;2.0249283479000244;4.100334814129122;6.817191765399045;0.9770390923350044;0.18972082708265517;1.256986990253658;1;53.72757369;86.78935417
0.0020393596410727;0.024092655652002054;0.0387478331803813;0.03338592920040153;1.0061527548802167;0.025941259179202043;0.0006729489278025343;1.082475979965595;0.0918073110832821;1.5542458150691647;1.8715974526531562;3.502877024777783;6.474327842619897;0.9770390923350044;0.22864282383740017;1.468652819945234;1;53.727211069999996;86.78923475
0.0081574385642908;0.02547975641747383;0.0876924645661262;0.031466114302708396;1.0224602654522943;0.025889278051286012;0.0006702547180167997;1.082475979965595;0.0918073110832821;0.8096063397761647;1.7616292246574543;3.1033375251672237;5.729688367326897;0.7048523882302218;0.23279278813962329;1.3023985715058521;1;53.72684279;86.78915831
-0.0050983991026817;0.027161917602493296;0.0326297542571632;0.03421646684186304;1.0059465726992773;0.02872147354460499;0.0008249230425734443;1.082475979965595;0.0918073110832821;1.6511080121120518;1.9057232988229058;3.6317812916764587;6.571190039662784;0.6888752656458892;0.2668122819940337;1.501487181979843;1;53.7264816;86.78913248
-0.0132558376669725;0.025303222283993898;0.0336494340776996;0.03964691495841065;1.010130671755149;0.027954592619231673;0.000781459248507202;1.082475979965595;0.0918073110832821;2.6284944005332034;2.2189784705740405;4.923865452871108;7.548576428083935;0.5998170736022179;0.25883744568584904;1.4542557798173024;1;53.72612961;86.78915425
-0.0571020699500356;0.02342947228276848;-0.0152951973080452;0.041833668646064776;1.082475979965595;0.030188654562518593;0.0009113548642950746;1.082475979965595;0.10672763512791972;2.6284944005332034;2.353143641453421;5.537284997312666;7.548576428083935;0.4009342047472438;0.23530328148649612;1.3933500874915379;1;53.725800570000004;86.78922457000002
-0.0356887937187723;0.02709783002344531;-0.0142755174875089;0.043435780493610944;1.020404045859131;0.02993966160790257;0.0008963833371957152;1.082475979965595;0.10672763512791972;2.6284944005332034;2.442542542267993;5.966014070788992;7.548576428083935;0.262352184387497;0.25711816267004983;1.6362378029917426;1;53.72548434;86.78932818000001
0.023452635872336;0.026913023267370155;-0.0305903946160905;0.04150888764844096;1.061676825377079;0.02973477061238901;0.0008841565833713932;1.082475979965595;0.10672763512791972;2.6284944005332034;2.33264000036582;5.441209371306653;7.548576428083935;0.0277362504843937;0.25988987318706636;1.5195358923744544;1;53.72518662;86.7894759
0.0020393596410727;0.026406010699145232;-0.0469052717446721;0.0271923116008763;1.022797314548496;0.031378347566107384;0.0009846006959794372;1.082475979965595;0.10672763512791972;2.6284944005332034;1.537658993706645;2.364395180926932;4.537482377690697;-0.0866860123301946;0.25874648902926806;1.4852237473157275;1;53.72491792000001;86.78966544
-0.0275313551544814;0.026739254985760918;-0.0326297542571632;0.024034324197647883;0.9757483448376753;0.03177401646345597;0.001009588122219971;1.082475979965595;0.10672763512791972;2.6284944005332034;1.3583791583914868;1.8451939379523639;4.537482377690697;-0.2799478979186535;0.21787520913692182;1.2919618617272688;1;53.724675379999994;86.7898965
0.0316100744366268;0.03399680418086804;-0.0316100744366268;0.025707258756654295;1.0308463723769155;0.033978994010172923;0.0011545720339433676;1.082475979965595;0.10672763512791972;2.6284944005332034;1.4692910458354804;2.15881617737232;5.009071409803482;-0.4916137276102297;0.20972042738163005;1.329554841644356;1;53.72444614;86.79017157999999
-0.0101967982053635;0.031366827504429866;-0.0061180789232181;0.027095485081437765;1.009553058515429;0.02530522669232949;0.0006403544979501849;1.061676825377079;0.08592848053940372;2.6284944005332034;1.5462127328608144;2.3907738152609084;5.009071409803482;-0.5975461832756302;0.20229241881889623;1.3077818760745297;0;53.72423026;86.79048306
-0.0183542367696543;0.03234616262589642;-0.0254919955134087;0.02789279430755664;0.9926456050385011;0.027253023608150684;0.0007427272957864186;1.061676825377079;0.08671040354617765;2.6284944005332034;1.5913644269888283;2.5324407394854815;5.009071409803482;-0.8126119163339538;0.1528030891963518;1.0927161430162062;0;53.72403218000001;86.79081234
-0.0265116753339451;0.02973162861074865;0.0132558376669725;0.028751837000574543;0.9997257343334287;0.019691568534032342;0.00038775787133049264;1.0308463723769155;0.055879950546014134;2.6284944005332034;1.6436814675427336;2.7016887667434344;5.009071409803482;-0.8544387062150844;0.1123541255552152;1.0508893531350756;0;53.72385365;86.79115605
-0.0795350260018354;0.028996900558275408;0.040787192821454;0.024988282179625163;0.9819495494591232;0.021356431552721523;0.0004560971686660794;1.0308463723769155;0.06761088838087204;1.91637099686139;1.439772702342249;2.0729454344099025;4.296948006131669;-0.992415882744294;0.08860124803313668;0.912912176605866;0;53.72368758;86.79150453999999
-0.0163148771285816;0.02946700221160824;0.0122361578464362;0.023798355174375695;1.005611113385136;0.020672561443061677;0.00042735479661716027;1.0308463723769155;0.06761088838087204;1.7572044245962983;1.3651269161510906;1.8635714972001867;4.137781433866577;-0.9239457286663848;0.09638500482588201;0.9813823306837752;0;53.72351456;86.7918896
-0.0469052717446721;0.02317862797462971;0.0091771183848271;0.019150203581560138;0.9749664218309013;0.026231841715686117;0.0006881095197968103;1.017732922650459;0.08964837985364904;1.4715668297588165;1.1109744173774014;1.2342641560670566;3.8521438390290954;-0.6714741489657093;0.16015170061356898;1.2338539103844508;1;53.723347049999994;86.79228273
-0.040787192821454;0.023241344328765335;0.0244723156928724;0.0215453195875967;1.017732922650459;0.024863487803409294;0.0006181930257502827;1.017732922650459;0.08964837985364904;1.4715668297588165;1.2512619661017945;1.5656565078129283;4.620419451046333;-0.1145544425774919;0.32053693198736405;1.7907736167726682;1;53.723184790000005;86.79266575
-0.0071377587437544;0.022927306706571438;0.0152951973080452;0.02339814037470298;0.9632354839960434;0.03004629850086621;0.000902780053603155;1.036497891829537;0.10841334903272715;-0.539319000670051;1.3029357799545007;1.6976416466856432;4.0311812957108;0.3136538920606377;0.5446885881715241;2.2189819514107976;1;53.723024620000004;86.79303806
-0.040787192821454;0.04110390502064255;0.0356887937187723;0.027993053691881088;0.98395523170649;0.031573897967853704;0.0009969110328844361;1.036497891829537;0.10841334903272715;-0.539319000670051;1.5540580840688514;2.4150965286597494;4.2214478055535505;0.9412952301804204;0.9062526723293932;2.8466232895305805;1;53.72287064;86.79339096
-0.0050983991026817;0.03617844184768951;0.0173345569491179;0.028009556842184556;0.92808454279681;0.034621438009247524;0.001198643969828169;1.036497891829537;0.10841334903272715;-0.539319000670051;1.555372962146022;2.4191850513748903;4.2214478055535505;1.4869834288209545;1.2682967172245365;3.3923114881711145;1;53.72272416;86.79371040000001
-0.0530233506678902;0.03844266551233303;0.0540430304884266;0.027356869193741532;0.9838494237832109;0.034773415537755176;0.0012091904281613932;1.036497891829537;0.10841334903272715;-0.539319000670051;1.51669532952804;2.30036472261217;4.2214478055535505;1.5928634313216;1.3950268139028899;3.2820866758979905;1;53.72257941;86.79400085
-0.023452635872336;0.036841044302528714;0.0825940654634444;0.02491767764958287;1.036497891829537;0.03427613230429081;0.0011748532457412479;1.036497891829537;0.10841334903272715;-0.9098367935612356;1.3764858925525096;1.8947134123960794;3.8509300126623653;1.8222697200392128;1.4225680473870963;3.1337525010377174;1;53.72242618;86.79426746
0.0734169470786173;0.0531501144166659;0.0846334251045171;0.02756197048884415;1.0197353915723013;0.03470538723286094;0.0012044639029828272;1.036497891829537;0.10841334903272715;-0.9098367935612356;1.517057653122664;2.3014639228980456;4.232390753797905;2.022444556398513;1.4092181846203782;3.090016912223502;1;53.72226522;86.79450842
-0.0152951973080452;0.06062890033030319;0.0326297542571632;0.02726444100050525;1.0361117384542915;0.03448343747207853;0.0011891074598907496;1.036497891829537;0.10841334903272715;-1.0290771316925589;1.4995023053698564;2.248507163809514;4.113150415666581;2.022444556398513;1.1355293196203797;2.946390285064898;1;53.722100069999996;86.79471703
0.023452635872336;0.057590098419682996;0.0591414295911083;0.026827033453120697;1.0094505774516713;0.03603921405647884;0.001298824949808702;1.036497891829537;0.10841334903272715;-1.0290771316925589;1.4735362541481634;2.1713090922890004;4.113150415666581;2.022444556398513;0.7962169843230541;2.6939187053642226;1;53.72194347;86.79485483
0.003059039461609;0.056978928176945325;0.0489446313857448;0.031598011405820844;1.0106734918055484;0.026848201241875553;0.0007208259099242481;1.036497891829537;0.07248135086341956;-1.0290771316925589;1.7521442171683252;3.070009357756403;5.918207946115254;2.022444556398513;0.4513651092479928;2.136998998976005;1;53.72178343;86.79494823
0.1213418986438258;0.049234570192666055;0.0917711838482716;0.032455091481072465;1.0239078246847249;0.025759780300910945;0.0006635662811511996;1.036497891829537;0.07248135086341956;-1.0290771316925589;1.8032882746893109;3.251848601631951;5.918207946115254;2.022444556398513;0.2276482376001745;1.7087906643378754;1;53.721620810000005;86.79500577
0.1029876618741715;0.04401795052864209;0.0173345569491179;0.03203825414042937;0.9651855274305294;0.025797777494395952;0.0006655253236503623;1.0361117384542915;0.07209519748817395;-1.0290771316925589;1.7866197598327598;3.1920101662248683;5.918207946115254;2.022444556398513;0.11332510845933827;1.081149326218093;1;53.721455230000004;86.79502706999999
0.0530233506678902;0.04335791360296865;0.0438462322830631;0.03154403692300196;0.9640165409661176;0.0320523053040746;0.0010273502753056088;1.0653917112136395;0.10137517024752196;-1.0290771316925589;1.7553231553600492;3.0811593797431596;5.918207946115254;2.022444556398513;0.11157606748174254;1.0652159951328284;1;53.721278270000006;86.79501651000001
0.0061180789232181;0.04411927288216979;0.1233812582848985;0.03057759873469288;1.020049897154487;0.031044786319950984;0.0009637787576514158;1.0653917112136395;0.10137517024752196;-1.0290771316925589;1.6903666906590846;2.8573395488897457;5.918207946115254;2.022444556398513;0.16805806625569503;1.3362406134999743;1;53.72107688;86.7949892
0.0489446313857448;0.045974915796204927;0.0907515040277353;0.03390940094453088;1.0187928231424832;0.03145856041036453;0.0009896410230925544;1.0653917112136395;0.10137517024752196;-1.0290771316925589;1.8786734956022364;3.529414103078326;5.918207946115254;2.022444556398513;0.29974737216643316;1.8593292434139979;1;53.720873759999996;86.79494992
0.043846232283063;0.06658406426510131;0.0693382277964718;0.03497768502956186;0.9782599030898248;0.04133134864654424;0.0017082803809421944;1.0653917112136395;0.14484105624392807;-1.0290771316925589;1.9213781330320088;3.691693930093568;5.918207946115254;2.022444556398513;0.4862591712036577;2.3886251567332706;1;53.720675140000004;86.79489722
0.0244723156928724;0.06484396270296952;0.0744366268991536;0.03677454377884187;1.0653917112136395;0.040431428607483985;0.0016347004192420742;1.0653917112136395;0.14484105624392807;-1.0290771316925589;2.03440985108323;4.1388234421844885;5.918207946115254;1.520860624452045;0.5700325424311384;2.089127072644602;1;53.72048092;86.79483612
-0.020393596410727;0.05547827199775156;0.0953400632201488;0.043783247505176495;1.0223002171967595;0.03913494437859192;0.0015315438715154835;1.0653917112136395;0.14484105624392807;1.3914240657869748;2.4472588584796457;5.9890759204071;8.338709143594787;1.520860624452045;0.8032751985905305;2.5393123944882254;1;53.72029194;86.79476746
-0.0025491995513408;0.05311915867862853;0.0244723156928724;0.04568527856277656;0.9914341441679364;0.0391599007849951;0.00153349782949066;1.0653917112136395;0.14484105624392807;1.3914240657869748;2.561963022290921;6.563654527586031;8.338709143594787;1.520860624452045;1.0019303364236956;2.8783248137702655;1;53.720108370000005;86.79469909
-0.1152238197206077;0.05567740763414081;0.0356887937187723;0.041302312629210386;0.9205506549697114;0.042346681200636255;0.0017932414087083201;1.0653917112136395;0.14484105624392807;1.3914240657869748;2.292363288067259;5.254929444478535;6.74262400025568;1.205145581875113;1.1375150821644853;2.982008967086929;1;53.71993029;86.79463109
-0.078515346181299;0.0706342261535689;0.0183542367696543;0.040579363839372135;1.00659959629092;0.04278535221007259;0.0018305863637399634;1.0653917112136395;0.14484105624392807;1.3914240657869748;2.249876880620349;5.061945977949952;6.74262400025568;0.9968161255005392;1.1152480771384468;2.7736795107123555;1;53.719758520000006;86.79456172
0.0122361578464362;0.06785873655234748;-0.0244723156928724;0.04693854116221222;1.0078151374574045;0.04265669593582538;0.0018195937081614613;1.0653917112136395;0.14484105624392807;2.56447547165367;2.613453590810504;6.830139671320317;7.915675406122375;0.9572285612656848;0.9789458829394414;2.734091946477501;1;53.71959350000001;86.79449398
-0.0448659121035994;0.06896852463386158;0.0132558376669725;0.0451278246129714;1.0431623586141359;0.03769602535799317;0.0014209903277904643;1.0588912216371797;0.1383405666674683;2.56447547165367;2.5292625423774866;6.397169008273828;7.915675406122375;0.6862039428985389;0.6956017329296678;2.4630673281103554;1;53.71943252;86.7944354
-0.0713775874375446;0.07048578503308885;0.0938105434893443;0.044952861128683526;1.0588912216371797;0.03702621029986304;0.0013709402491696842;1.0588912216371797;0.1383405666674683;3.910487941277749;2.5315425928918898;6.408707899625792;8.99316703221563;0.1631153129845154;0.41873238173975147;1.9399786981963316;1;53.71929449;86.79437417
0.1294993372081166;0.0711020861393598;0.0050983991026817;0.04482933291569642;0.9894562323968075;0.038109778777290146;0.0014523552384539942;1.0588912216371797;0.1383405666674683;3.910487941277749;2.5206116036778963;6.353482856595657;8.99316703221563;-0.3661806003347574;0.2285931721850113;1.410682784877059;1;53.71915375;86.79430255
-0.011726317936168;0.06956630179527021;-0.0438462322830631;0.046151574298271436;0.9799442714829949;0.024811614279542232;0.0006156162031567841;1.0588912216371797;0.07894695015418485;3.910487941277749;2.5750593836523463;6.630930829336003;8.99316703221563;-0.5682664481925568;0.12497153563736117;1.2085969370192595;0;53.71900184;86.7942428
-0.0836137452839808;0.06689081056368046;-0.0050983991026817;0.04682589615238915;1.0007589923643427;0.024763474525197234;0.0006132296705600923;1.0588912216371797;0.07894695015418485;3.910487941277749;2.6146855425751574;6.836580486551546;8.99316703221563;-1.0184517700361804;0.0437194361530102;0.7584116151756359;0;53.718843330000006;86.79418669
0.0173345569491179;0.06606062082810375;-0.0683185479759355;0.04644352732680307;1.0017688698444418;0.026627850701316794;0.0007090424329716173;1.0588912216371797;0.07894695015418485;3.910487941277749;2.5945168225452835;6.731517542470474;8.99316703221563;-1.3574641893182204;0.01590648951127233;0.41939919589359587;1;53.718681249999996;86.79412701
0.0112164780258998;0.06557405899371868;-0.0163148771285816;0.046127912825559426;1.0310863993790127;0.023836680983520243;0.0005681873603101157;1.0588912216371797;0.07894695015418485;3.910487941277749;2.5766388256024984;6.6390676376022215;8.99316703221563;-1.1156176683763204;0.03181495159359349;0.6612457168354959;1;53.718524190000004;86.79405443
-0.1040073416947078;0.06282256210476758;-0.0550627103089629;0.03125928051144925;0.9980910272922269;0.015044828863861695;0.000226346875542886;1.0310863993790127;0.0511421278960178;3.910487941277749;1.791583746462062;3.2097723205870388;5.473524405716763;-1.1156176683763204;0.031967440408758256;0.5306904045290433;1;53.718377775;86.793979695
-0.0316100744366268;0.038392935049326685;0.0275313551544814;0.030888473295427505;1.0093341793033088;0.01473044012559027;0.0002169858662935999;1.0310863993790127;0.0511421278960178;3.910487941277749;1.7678379424846467;3.1252509908883486;5.473524405716763;-1.1156176683763204;0.032684110168833755;0.5306904045290433;0;53.718241505;86.793912545
-0.0224329560517997;0.03807111920524713;-0.003059039461609;0.03085474680601974;0.9811932322727175;0.012400209906799539;0.00015376520573268945;1.0310863993790127;0.04989316710629521;3.910487941277749;1.7615200607749912;3.102952924512729;5.473524405716763;-1.1156176683763204;0.038556761912326556;0.5306904045290433;0;53.718116540000004;86.79384902000001
-0.0112164780258998;0.03274819215427269;0.0040787192821454;0.030510462473599773;1.0044555324690858;0.012307586588320204;0.00015147668762899937;1.0310863993790127;0.04989316710629521;3.910487941277749;1.7418440187767406;3.0340205857483062;5.473524405716763;-1.1156176683763204;0.04150206128637149;0.5306904045290433;1;53.718010334999995;86.79378633500001
-0.0152951973080452;0.03238457911893435;-0.0458855919241358;0.027634232430147468;1.009622574923062;0.012279141760697311;0.00015077732237930066;1.0310863993790127;0.04989316710629521;3.162500541151764;1.5750085110618939;2.480651809917404;4.725537005590778;-1.1156176683763204;0.035583089023874595;0.5306904045290433;1;53.71791792500001;86.793727205
-0.0203935964107269;0.029118410955893407;-0.0463954318344039;0.027500968291791536;1.0094813807996394;0.008764759390985899;7.68210071818755e-05;1.009622574923062;0.02842934265034458;3.162500541151764;1.5662901773758284;2.453264919744004;4.725537005590778;-0.8301126750434594;0.052313247864147344;0.8161953978619042;1;53.717847655;86.793659495
-0.0219231161415315;0.022085479242184305;-0.0433363923727949;0.025660310160368186;1.005048877670674;0.010311735676724191;0.00010633189266662651;1.0219266631906285;0.04073343091791104;2.634223088694238;1.4584073551608512;2.1269520135872693;4.197259553133252;-0.8301126750434594;0.050082334913612504;0.8161953978619042;0;53.717809824999996;86.793565345
-0.0173345569491179;0.02254750631287341;-0.0443560721933312;0.025364158348290436;1.0060222810910333;0.013059265678879021;0.00017054442007154752;1.0219266631906285;0.04238155163148072;4.896713354392942;1.4733510303343427;2.1707632585872694;5.1293707845653715;-0.8301126750434594;0.04718429678514983;0.7836833691968422;0;53.717803045000004;86.793445925
-0.0662791883348628;0.02319482104111278;-0.0397675130009177;0.027103638210513176;1.0093877447201698;0.02427110078993346;0.0005890863335551085;1.0739823393197365;0.09443722776058872;4.896713354392942;1.5205328302982473;2.3120200880147985;5.1293707845653715;-0.8301126750434594;0.09569761304600448;1.1146531718550015;0;53.717828135000005;86.793327655
-0.0254919955134087;0.022721045457258855;-0.020393596410727;0.021839366140165992;0.9998193328482236;0.02839822769348052;0.000806459336130764;1.0739823393197365;0.10857977024467846;4.896713354392942;1.2274211393237628;1.5065626532588443;3.8104219420390035;-0.8301126750434594;0.1793251672411165;1.3949329059646787;0;53.717876794999995;86.79322271499998
-0.0759661466299581;0.04909558031243396;-0.0193739165901906;0.026276465091031938;1.0219266631906285;0.02983599538288412;0.0008901866204874825;1.0739823393197365;0.10857977024467846;5.247670126961109;1.4570999314724704;2.123140210297078;4.161378714607171;-0.8301126750434594;0.3566311189691975;1.9235920993581588;1;53.71795191;86.79314423
-0.0163148771285816;0.049166710446968784;-0.0836137452839808;0.028142259934242977;0.9795451115591478;0.030489096215680318;0.0009295849880490119;1.0739823393197365;0.10857977024467846;5.247670126961109;1.5557249838254155;2.420280225298589;4.161378714607171;-0.8301126750434594;0.6057435972309317;2.3597335022123604;0;53.71804598;86.79305398
-0.0112164780258998;0.05104086310560347;-0.0836137452839808;0.02775333166806726;1.0739823393197365;0.03058830081969671;0.0009356441470362583;1.0739823393197365;0.10857977024467846;5.247670126961109;1.5359142223925972;2.3590324985478563;4.161378714607171;-0.8301126750434594;0.8682340914695426;2.7313440351589935;1;53.718141925;86.792952805
-0.0183542367696543;0.05436382796685631;-0.0560823901294993;0.028307417021038235;0.9654025690750581;0.0305632911063926;0.0009341147632540969;1.0739823393197365;0.10857977024467846;5.247670126961109;1.5698578109135541;2.4644535464862964;4.161378714607171;-0.8301126750434594;1.1872920446468842;3.2214501290088484;1;53.718236409999996;86.79284505
0.1080860609768532;0.05852881735813218;-0.0948302233098807;0.028913712107714807;1.036836394494884;0.03054985204038697;0.000933293459689536;1.0739823393197365;0.10857977024467846;5.247670126961109;1.6046496447956358;2.57490048254276;4.161378714607171;-0.8301126750434594;1.5451631526599943;3.6657227713342677;1;53.718330679999994;86.79274732
-0.0254919955134087;0.06076986141932179;-0.0866727847455898;0.026462825140472435;1.0307843395053438;0.03298114846571172;0.0010877561541173188;1.0739823393197365;0.10857977024467846;5.247670126961109;1.4596722590390414;2.1306431038081386;4.161378714607171;-1.1034755502455371;1.610606970503265;3.770360902239226;0;53.71842404;86.79266916
-0.0601611094116447;0.06384350268134775;-0.0632201488732538;0.025630071433366833;1.002073969219847;0.03477578449723975;0.0012093551873984607;1.0739823393197365;0.10857977024467846;5.247670126961109;1.4168519869960137;2.0074695530545523;3.9082987733885064;-1.6137960442403017;1.5653750146330827;3.5513315934392446;0;53.71851213;86.79261645
-0.0805547058223717;0.07056631722720892;-0.0367084735393086;0.025486103349050007;1.0194518966231174;0.03262650310411896;0.001064488704803084;1.0739823393197365;0.10857977024467846;5.247670126961109;1.3862528111245083;1.9216968563506016;3.9082987733885064;-1.944765846898461;1.4883926443471491;3.4045049703697368;0;53.71858698;86.79259146
-0.1040073416947078;0.0818184780632528;-0.0326297542571632;0.031125762478346804;1.0102824849351537;0.026813180159034538;0.0007189466302408434;1.0469748454237315;0.08157227634867348;5.247670126961109;1.7391371854847755;3.0245981499359065;5.9267842987681885;-2.225045581008138;1.2893419747980008;3.180782225548705;0;53.71864386000001;86.79258946
-0.0836137452839808;0.0797136506777931;-0.0428265524625267;0.046784429339026976;0.9732404544126823;0.020806529805018247;0.00043291168252711264;1.0469748454237315;0.07373439101104928;5.247670126961109;2.6239787809585606;6.885264642920774;8.994255711217745;-2.7537047744016183;0.9516358148090625;2.6521230321552247;0;53.71868528;86.7925976
-0.1080860609768532;0.04660260919165017;-0.0244723156928724;0.04673513971121722;1.0469748454237315;0.020103160275098612;0.00040413705304630297;1.0469748454237315;0.07373439101104928;4.823370900032751;2.6408509500806763;6.974093740542011;8.569956484289387;-3.18984617725582;0.6310416701188889;2.215981629301023;1;53.71870254;86.79258926
-0.1412256551442847;0.04483194210300341;-0.0336494340776996;0.057210106411669494;1.0198690810389281;0.019470825416533628;0.00037911304240113185;1.0469748454237315;0.07373439101104928;3.617153075360804;3.25777755915792;10.613114624952935;10.183631860090234;-3.561456710202453;0.3733052440939017;1.84437109635439;1;53.71870216999999;86.79258377
-0.1957785255429795;0.048341409696904335;0.0122361578464362;0.074434376430218;1.0323692937531967;0.019763528339757638;0.0003905970524364033;1.0469748454237315;0.07373439101104928;2.522062545839105;4.195187924600689;17.599601722715438;12.203814729100811;-3.9474301668338505;0.28302295879827555;1.4583976397229925;1;53.718700739999996;86.79259257999999
-0.0734169470786173;0.04897793077914236;0.0662791883348628;0.0772738966472728;1.0143169875828655;0.019833297756600664;0.00039335969990198096;1.0469748454237315;0.07373439101104928;2.522062545839105;4.365670887841134;19.05908230094359;12.203814729100811;-3.05948343421433;0.5522514946833592;2.346344372342513;1;53.71870423;86.79261398999999
-0.0825940654634444;0.05275930315951688;0.040787192821454;0.07665787749770336;1.0055537277807443;0.02015237255324069;0.00040611811952460876;1.0469748454237315;0.07373439101104928;2.522062545839105;4.340218595734655;18.8374974587609;12.203814729100811;-1.9213214031315493;1.3473850750917966;3.4845064034252937;1;53.71870772999999;86.79263541
-0.0367084735393086;0.05631183796366662;0.1152238197206077;0.06978133901366995;1.0075891732894606;0.014524284687769402;0.0002109548456913727;1.0469748454237315;0.04389543226756665;1.890752999346474;3.93593819496149;15.491609474556713;11.572505182608179;-0.5125058888916332;2.8577924900131664;4.89332191766521;1;53.71871283;86.79266099
-0.0305903946160905;0.05631183796366662;0.1733455694911797;0.06978133901366995;1.030742477815747;0.014524284687769402;0.0002109548456913727;1.0469748454237315;0.04389543226756665;1.890752999346474;3.93593819496149;15.491609474556713;11.572505182608179;-0.5125058888916332;2.8577924900131664;4.89332191766521;1;53.71871283;86.79266099
-0.0662791883348628;0.05631183796366662;0.1244009381054349;0.06978133901366995;1.009178617458321;0.014524284687769402;0.0002109548456913727;1.0469748454237315;0.04389543226756665;1.890752999346474;3.93593819496149;15.491609474556713;11.572505182608179;-0.5125058888916332;2.8577924900131664;4.89332191766521;1;53.71871283;86.79266099
-0.0275313551544814;0.05631183796366662;0.1223615784643621;0.06978133901366995;1.003079413156165;0.014524284687769402;0.0002109548456913727;1.0469748454237315;0.04389543226756665;1.890752999346474;3.93593819496149;15.491609474556713;11.572505182608179;-0.5125058888916332;2.8577924900131664;4.89332191766521;1;53.71871283;86.79266099
-0.0224329560517997;0.05631183796366662;0.1091057407973896;0.06978133901366995;1.0075019726521066;0.014524284687769402;0.0002109548456913727;1.0469748454237315;0.04389543226756665;1.890752999346474;3.93593819496149;15.491609474556713;11.572505182608179;-0.5125058888916332;2.8577924900131664;4.89332191766521;1;53.71871283;86.79266099
-0.0275313551544814;0.026542215456170023;-0.0550627103089629;0.011355182643113203;1.006269521033345;0.008080865493379349;6.530038712208907e-05;1.0157138382101036;0.0259597413042969;4.665239578514131;0.6773531235512127;0.45880725398458444;2.064796188701562;-0.3743845287302276;0.06405656629264082;0.7371059533270989;1;53.725943395;86.845303395
-0.0224329560517997;0.026542215456170023;-0.0560823901294993;0.011355182643113203;1.0051814172872162;0.008080865493379349;6.530038712208907e-05;1.0157138382101036;0.0259597413042969;4.665239578514131;0.6773531235512127;0.45880725398458444;2.064796188701562;-0.3743845287302276;0.06405656629264082;0.7371059533270989;1;53.725943395;86.845303395
-0.040787192821454;0.026542215456170023;-0.0458855919241358;0.011355182643113203;1.011348137398289;0.008080865493379349;6.530038712208907e-05;1.0157138382101036;0.0259597413042969;4.665239578514131;0.6773531235512127;0.45880725398458444;2.064796188701562;-0.3743845287302276;0.06405656629264082;0.7371059533270989;1;53.725943395;86.845303395
-0.0132558376669725;0.026542215456170023;-0.0805547058223717;0.011355182643113203;0.9904204214393665;0.008080865493379349;6.530038712208907e-05;1.0157138382101036;0.0259597413042969;4.665239578514131;0.6773531235512127;0.45880725398458444;2.064796188701562;-0.3743845287302276;0.06405656629264082;0.7371059533270989;1;53.725943395;86.845303395
0.0071377587437544;0.026542215456170023;-0.0474151116549403;0.011355182643113203;1.0157138382101036;0.008080865493379349;6.530038712208907e-05;1.0157138382101036;0.0259597413042969;4.665239578514131;0.6773531235512127;0.45880725398458444;2.064796188701562;-0.3743845287302276;0.06405656629264082;0.7371059533270989;1;53.725943395;86.845303395
0.0122361578464362;0.026542215456170023;-0.0530233506678902;0.011355182643113203;1.0028031332124017;0.008080865493379349;6.530038712208907e-05;1.0157138382101036;0.0259597413042969;4.665239578514131;0.6773531235512127;0.45880725398458444;2.064796188701562;-0.3743845287302276;0.06405656629264082;0.7371059533270989;1;53.725943395;86.845303395
0.0163148771285816;0.026352635916683412;-0.0601611094116447;0.022264955283861583;1.0052993305284939;0.009623113523841908;9.260431389274902e-05;1.0199540775254707;0.030199980619664002;4.665239578514131;1.2874898058957522;1.657630000285482;4.837080955631978;-0.1727384656139645;0.1121888077054395;0.938752016443362;1;53.725930405;86.845277605
0.0015295197308044;0.026481209056142912;-0.0565922300397674;0.02351634091410682;1.0049608099777616;0.011003679421449657;0.00012108096081003466;1.0199540775254707;0.03205692388930792;4.665239578514131;1.3650212392886345;1.8632829837090799;4.837080955631978;0.040151305300044;0.16987579642695916;1.1516417873573705;1;53.725913864999995;86.845245705
-0.0693382277964719;0.02734023616419825;-0.0458855919241358;0.031437096173160366;1.0027393654920662;0.010614268642895903;0.00011266269882356323;1.0199540775254707;0.03205692388930792;4.665239578514131;1.8147823540208645;3.2934349924655106;5.364695968777307;0.2600039188909674;0.2304385512872838;1.3684185157995379;1;53.725895765;86.845214805
-0.0101967982053635;0.0306587218289867;-0.0723972672580809;0.03170787089245499;0.9897540969058067;0.010641572566315283;0.00011324306668415405;1.0199540775254707;0.03205692388930792;4.3805599588203;1.8256327428430636;3.3329349117406877;5.0800163490834755;0.4825385100379802;0.2882060104565498;1.546667458154227;1;53.725875574999996;86.84518693499999
-0.023452635872336;0.033629214652951885;0.003059039461609;0.04909078561102218;1.0199540775254707;0.011913125324096142;0.00014192255498762083;1.0199540775254707;0.037149870684008435;4.3805599588203;2.8413630951710926;8.073344238600251;9.022390016949926;0.6681015928241719;0.3313809125160764;1.6510159936253594;1;53.725848135;86.845156935
-0.0010196798205363;0.042213903038615816;-0.07545630671969;0.05534734336643212;0.9878971536361628;0.014832423458155358;0.00022000078564203736;1.0293722080187495;0.04656800117728721;4.3805599588203;3.181654362369763;10.122924481586542;9.022390016949926;0.8469229628527707;0.3574356051052272;1.7159747829369953;1;53.725808735;86.845127775
0.0295707147955541;0.041915917690567885;0.0122361578464362;0.05848103054300999;1.0023464305649854;0.016496865405852542;0.00027214656821881436;1.0293722080187495;0.04656800117728721;4.3805599588203;3.351604189807277;11.233250645133694;9.022390016949926;0.9727899481937328;0.35758108485782114;1.6996120192799218;1;53.725760385;86.845097345
-0.0489446313857448;0.04210576690619157;-0.0050983991026817;0.0560562225424434;1.0167925882320605;0.01666180047271086;0.0002776155949924279;1.0293722080187495;0.04656800117728721;4.3805599588203;3.2166313808197233;10.346717440074201;9.022390016949926;1.1237645922471675;0.3420921729267154;1.6842706111750805;1;53.72570286;86.84506542
0.0367084735393086;0.03461642372440695;0.0795350260018354;0.056207393341791645;0.9828042068414623;0.016781015985256522;0.00028160249749743495;1.0293722080187495;0.04656800117728721;4.3805599588203;3.231765759298973;10.444309922977265;9.022390016949926;1.2851988039932425;0.3180556696284973;1.6595833327234701;1;53.725629960000006;86.84503604
0.07545630671969;0.03750919011887308;0.061180789232181;0.04801538392093442;1.0293722080187495;0.02551744252528782;0.0006511398730313673;1.0293722080187495;0.08422361724352811;4.3805599588203;2.759702127531203;7.615955832700247;9.022390016949926;1.696136518593058;0.3383537137783917;1.8688749842070225;1;53.725550999999996;86.84501084
0.0061180789232181;0.036618511888275744;0.0662791883348628;0.047494657923635594;1.0269375643838266;0.025254968883651037;0.0006378134533141821;1.0293722080187495;0.08422361724352811;4.3805599588203;2.7309017751150026;7.457824505326272;9.022390016949926;1.9650867308265831;0.3711317542526895;1.9249354255265392;1;53.725468049999996;86.84499701
0.0122361578464362;0.057508194173514736;0.0295707147955541;0.033979809006798534;1.01406683941159;0.025243050396550386;0.0006372115933227826;1.0293722080187495;0.08422361724352811;0.5563341247296438;1.9414754747150091;3.76932701891987;5.198164182859269;2.097255403181458;0.38565886841002933;1.8372514842904906;1;53.72538152;86.84499496
-0.0091771183848271;0.062320245045600194;0.0693382277964719;0.04827250379776256;0.9996966130082039;0.02760246463550434;0.0007618960539542677;1.0293722080187495;0.08422361724352811;4.098615374282924;2.7865999131407615;7.7651390759161005;8.74044543241255;2.311887258372454;0.40552635355051536;1.829348748334474;1;53.725296209999996;86.84499413
-0.040787192821454;0.05932401131534574;-0.0091771183848271;0.04805978509835369;0.9451485907752214;0.027444062705497697;0.0007531765777832896;1.0293722080187495;0.08422361724352811;4.098615374282924;2.774976590469493;7.7004950776536925;8.74044543241255;2.311887258372454;0.37087311545455603;1.643785665548282;1;53.72521375;86.84498847
0.0224329560517997;0.05934542882283018;0.0244723156928724;0.04965071777175929;1.0161435570928696;0.026624805421013347;0.0007088802637068217;1.0293722080187495;0.08422361724352811;4.098615374282924;2.842855198848722;8.081825681621208;8.34391148551035;2.311887258372454;0.3036664403497515;1.4649642955196835;1;53.72513789;86.84498173
0.1498929336188436;0.057382224576789015;0.07545630671969;0.05042646342119816;1.0193131797253328;0.025073446840015143;0.0006286777364390654;1.0269375643838266;0.08178897360860515;4.098615374282924;2.8880426901353156;8.34079058004403;8.34391148551035;2.311887258372454;0.23236693288573015;1.3390973101787214;1;53.72507236;86.84497252000001
0.0989089425920261;0.05696696439544971;-0.0693382277964719;0.04824880495561419;0.9701271538733673;0.02347730116037679;0.0005511836697750294;1.0193131797253328;0.07416458895011135;4.098615374282924;2.76847868511892;7.664474229957782;8.34391148551035;2.311887258372454;0.1552508946151173;1.1881226661252866;1;53.725014805;86.844966165
-0.0249821556031406;0.056725529643285276;-0.0025491995513408;0.04832536534406277;1.0138727783005028;0.02300774372093256;0.0005293562711281117;1.0193131797253328;0.07416458895011135;4.098615374282924;2.770276354114147;7.674431078163969;8.34391148551035;2.311887258372454;0.1703759646862102;1.2768889431061923;1;53.724964944999996;86.844962385
0.0254919955134087;0.05518227747360283;-0.0382379932701131;0.04115390363886145;1.0041621906423923;0.02315923225708901;0.0005363500387377923;1.0193131797253328;0.07416458895011135;4.098615374282924;2.351533505052708;5.529709825385473;8.34391148551035;2.311887258372454;0.36069621094744936;1.9201492070045718;1;53.724932875;86.844958475
0.0173345569491179;0.0498179658981922;-0.0367084735393086;0.04833110248418259;1.0011293125085061;0.01357781163042642;0.00018435696867134298;1.0193131797253328;0.04918602585196541;5.566345408267846;2.7535472513929937;7.58202246565391;9.811641519495272;2.311887258372454;0.6543839554257578;2.268148967744792;1;53.724906015;86.844952095
0.0270215152442132;0.05020777067694582;-0.0356887937187723;0.04535073049774963;1.0053816805873583;0.01577851168192593;0.0002489614308966731;1.0320998469496523;0.061972693076284946;5.566345408267846;2.5843403665403457;6.678815130129889;9.811641519495272;2.311887258372454;1.254438853134115;3.25210211985548;1;53.724880665;86.844931865
0.0244723156928724;0.030558087695223404;-0.0356887937187723;0.029712436897760142;1.0053163957729623;0.015454820006767019;0.00023885146144156613;1.0320998469496523;0.061972693076284946;5.566345408267846;1.711088672336121;2.927824444596989;5.654373503599593;2.311887258372454;2.0467764944444764;4.056344546655382;1;53.724855225;86.844903865
0.0244723156928724;0.028879729593823785;-0.037728153359845;0.027570614209826934;1.0064095192218947;0.010183052767335566;0.00010369456366234053;1.0320998469496523;0.0365647350813435;5.566345408267846;1.570554098228483;2.466640175462283;5.654373503599593;2.196915927446646;2.9760690957204656;4.86210219916631;1;53.724826155;86.84486967500001
0.0091771183848271;0.029933821882542334;-0.0978892627714897;0.025583376315993847;1.0091853143230245;0.010981593851639666;0.00012059540352237012;1.0320998469496523;0.037600414773872104;5.566345408267846;1.4581852010087584;2.1263040804409528;5.654373503599593;2.075800060910725;4.121381631827043;5.780132558845037;1;53.724794305;86.844825025
0.0132558376669725;0.03018172844483286;-0.0142755174875089;0.02557033384167857;1.0320998469496523;0.015540110555972517;0.00024149503609184844;1.0320998469496523;0.059553523716147416;5.566345408267846;1.4573222904929277;2.1237882583675534;5.654373503599593;2.0594709810199374;5.096120018897232;6.485532626245331;1;53.724760095;86.84477033499999
0.0254919955134087;0.06216612199084781;0.0015295197308045;0.031560742280019316;0.9955351118683088;0.016118298107619708;0.00025979953388609707;1.0320998469496523;0.059553523716147416;5.566345408267846;1.786806941494061;3.192679046171361;5.654373503599593;1.6943247472389165;5.268253675142411;6.304214825249737;1;53.724722795000005;86.844694635
-0.061180789232181;0.06256298699799945;-0.023452635872336;0.03187435141273348;1.0177124898364907;0.018763374733089026;0.00035206423137432364;1.0360990690820204;0.06355274584851556;5.566345408267846;1.8005784876357056;3.242082890136485;5.654373503599593;1.0349983152662618;4.821159418115641;5.721947856249724;0;53.72468160999999;86.84459969
-0.0326297542571632;0.06693015539220515;-0.0397675130009177;0.03424772618609538;0.9944994321757802;0.019447088436488656;0.00037818924865661084;1.0360990690820204;0.06355274584851556;5.566345408267846;1.9470726019629911;3.7910917173149326;5.654373503599593;0.3917380513678823;4.245781892209696;5.446750942621229;0;53.72463755;86.84448139
-0.0183542367696543;0.0802361250584492;-0.0346691138982359;0.035114816428641026;0.9725463232335049;0.020499188983637836;0.00042021674898689876;1.0360990690820204;0.06355274584851556;5.566345408267846;1.9901033170180966;3.9605112124064306;5.654373503599593;0.0437382906276622;3.479188356495923;5.238425541697433;1;53.72458926;86.84434862
-0.171306209850107;0.0768928436276504;-0.0938105434893443;0.03206911498204865;1.018194084313115;0.020699523289164443;0.00042847026439866125;1.0360990690820204;0.06355274584851556;5.28640059775984;1.817928331138052;3.304863417154383;5.374428693091587;-0.940214861483026;2.3750534872084335;4.387094653108388;1;53.72454049;86.84419489
-0.0734169470786173;0.07163971413841444;-0.0571020699500356;0.030677180331208694;1.0360990690820204;0.02163541041917362;0.00046809098400608646;1.0360990690820204;0.06355274584851556;5.28640059775984;1.7506223061221766;3.064678458692528;5.374428693091587;-1.744457288282927;1.4695446475741045;3.5828522263084874;1;53.724499720000004;86.84403124
-0.1254206179259712;0.059237459381020915;-0.0846334251045171;0.02550241677699577;0.9925324739594104;0.021921672219220034;0.0004805597128869234;1.0360990690820204;0.06355274584851556;5.404640418730882;1.4454272334752676;2.0892598872719654;4.084173167822822;-2.6651862717196644;0.7343984696010822;2.66212324287175;1;53.72447429;86.84386244999999
-0.205975323748343;0.05927177371830402;-0.0764759865402263;0.02120045978563092;1.0281356339938823;0.02330117890051077;0.0005429449381536082;1.0360990690820204;0.06355274584851556;5.404640418730882;1.2000102009816407;1.4400244824599977;3.361740450448599;-3.704332497934312;0.2703222448553962;1.6229770166571025;1;53.72446221;86.84370444999999
-0.1091057407973896;0.0628554476833919;-0.0703579076170082;0.024740868501484384;1.0006062538275435;0.022960184267672136;0.000527170061605459;1.0360990690820204;0.06355274584851556;5.404640418730882;1.4049874559029074;1.9739897512445244;4.2397207789115186;-4.426061645225394;0.1067730452714607;0.9012478693660206;1;53.724465269999996;86.84356415
-0.130519017028653;0.05903391875993239;-0.078515346181299;0.022060094678273346;0.9735470183031238;0.01942478012862366;0.0003773220830453726;1.0360990690820204;0.06255205077889658;5.404640418730882;1.2646444129714933;1.599325491260013;4.2397207789115186;-4.245674631860836;0.1322468436951045;1.0816348827305786;1;53.72447666000001;86.84344242
-0.0856531049250535;0.06137970469581475;-0.095849903130417;0.022060094678273346;1.0176343305372115;0.019298886538031308;0.0003724470216078061;1.0360990690820204;0.06255205077889658;5.404640418730882;1.2671956677587086;1.6057848603864393;4.2397207789115186;-3.642045789539608;0.3017200938424611;1.6852637250518065;1;53.72449664999999;86.84334721
-0.15091261343938;0.0674576624601408;-0.0571020699500356;0.021937207961476246;1.0323672794585892;0.017150853724045224;0.0002941517834635959;1.0323672794585892;0.05882026115546535;5.404640418730882;1.2549901876474945;1.5750003710914933;4.2397207789115186;-3.1571937681504907;0.5964474473567036;2.1701157464409238;1;53.72453229;86.84327533000001
-0.0101967982053635;0.06872489440183023;-0.020393596410727;0.021588976199925756;1.0031142667110209;0.01737248923369822;0.0003018033821749605;1.0323672794585892;0.05882026115546535;5.404640418730882;1.2323286888438658;1.5186339973476413;4.2397207789115186;-2.547536575310032;1.034374768530243;2.7797729392813824;0;53.7245885;86.8432317
-0.0453757520138676;0.05392321355012628;-0.0652595085143265;0.021583624313034247;1.0085413104635252;0.016125963994820722;0.0002600467147622543;1.0323672794585892;0.05882026115546535;5.404640418730882;1.2351453362399918;1.5255840016354023;4.2397207789115186;-1.8492857442963104;1.6087156866945422;3.478023770295104;0;53.724668859999994;86.84321478
-0.0183542367696543;0.0514441971815976;-0.0938105434893443;0.02247540255342999;1.0139986530817822;0.01603960507658618;0.0002572689310128492;1.0323672794585892;0.05882026115546535;5.404640418730882;1.286836777693217;1.6559488924238623;4.2397207789115186;-1.648061889940428;1.9812448643004668;3.646249171963934;0;53.72477557;86.84323445
-0.0061180789232181;0.04373546237170066;-0.0836137452839808;0.02269917114586722;1.0038130257969713;0.012936120891033919;0.0001673432237074442;1.0323672794585892;0.04351900567732092;5.404640418730882;1.2862046051375189;1.6543222862769609;4.2397207789115186;-1.2085452669651704;2.2569327440570612;4.069739479405564;0;53.72490173;86.84328637
-0.0265116753339451;0.04133586441600242;-0.0764759865402263;0.020194352030879895;0.990363205489816;0.012536702782831843;0.0001571689166650637;1.0323672794585892;0.04351900567732092;5.3083358087742605;1.1511981619353715;1.3252572080433778;4.143416168954897;-0.9559431726014082;2.2737872383021274;4.1976878065335175;0;53.72504514;86.84336066
-0.0224329560517997;0.014396496478083585;-0.0662791883348628;0.020258608572360677;1.01597419868095;0.008977181366045426;8.058978527887323e-05;1.01597419868095;0.027125924899681797;5.3083358087742605;1.1509644250466036;1.3247191077228588;4.143416168954897;-0.9559431726014082;1.9139768887822077;3.8215803544130322;0;53.72520826;86.84344954000001
-0.037728153359845;0.013232394805069105;-0.0509839910268175;0.013102874672704795;1.009438217223342;0.012960530184216001;0.00016797534265597405;1.03461530471743;0.045767030936161746;5.3083358087742605;0.7466243055581446;0.5574478536501818;2.4132493506754384;-0.9559431726014082;1.4415207783125141;3.2897314592594276;0;53.72538346;86.84355561999999
-0.0418068726419904;0.016510558477500933;-0.0530233506678902;0.013419974744006948;0.9888482737812683;0.013462139993983168;0.00018122921321760114;1.03461530471743;0.045767030936161746;5.3083358087742605;0.768694138933392;0.5908906792305489;2.4132493506754384;-0.9559431726014082;0.9468324443792441;2.6861026169381996;0;53.725575070000005;86.84366786999999
-0.0469052717446721;0.022831367681258326;-0.0652595085143265;0.010677735150729319;1.0055619997815815;0.014399241697419936;0.00020733816146071697;1.03461530471743;0.04674341104422475;4.778053102311826;0.625812692400249;0.39164152596924856;1.8829666442130035;-0.9559431726014082;0.5568455403341026;2.2012505955490824;0;53.7257837;86.84379202
-0.0285510349750178;0.022133290434569186;-0.0723972672580809;0.0105880982821454;1.0084117901401748;0.014463466019484904;0.00020919184929679452;1.03461530471743;0.04674341104422475;4.578537250131243;0.6193356318490391;0.3835766248778485;1.7141453166584322;-0.9559431726014082;0.247083195226658;1.5915934027086238;0;53.72600496;86.84392624
