acc_X;acc_X_std;acc_Z;acc_Z_std;acc;acc_std;acc_var;acc_max;acc_range;fb_tilt_max;fb_tilt_std;fb_tilt_var;fb_tilt_range;tilt_max;tilt_var;tilt_range;hole;lat;lon
0.0020393596410727;0.031438933557579755;0.0448659121035994;0.04783941980435615;1.0145563134289204;0.020438645857964073;0.00041773824450727203;1.030204681284032;0.07672934819329769;3.871413744476186;2.7163664299944075;7.378646582000562;6.405985720544383;-1.282591861946744;0.3673810750479789;1.7600983795626377;1;53.72503542;86.84487157999999
-0.0387478331803813;0.031438933557579755;-0.0499643112062812;0.04783941980435615;1.0226560013021453;0.020438645857964073;0.00041773824450727203;1.030204681284032;0.07672934819329769;3.871413744476186;2.7163664299944075;7.378646582000562;6.405985720544383;-1.282591861946744;0.3673810750479789;1.7600983795626377;1;53.72503542;86.84487157999999
-0.095849903130417;0.031438933557579755;-0.0071377587437544;0.04783941980435615;1.0038979575919267;0.020438645857964073;0.00041773824450727203;1.030204681284032;0.07672934819329769;3.871413744476186;2.7163664299944075;7.378646582000562;6.405985720544383;-1.282591861946744;0.3673810750479789;1.7600983795626377;1;53.72503542;86.84487157999999
-0.0387478331803813;0.031438933557579755;0.0356887937187723;0.04783941980435615;1.030204681284032;0.020438645857964073;0.00041773824450727203;1.030204681284032;0.07672934819329769;3.871413744476186;2.7163664299944075;7.378646582000562;6.405985720544383;-1.282591861946744;0.3673810750479789;1.7600983795626377;1;53.72503542;86.84487157999999
-0.0040787192821454;0.031438933557579755;0.0112164780258998;0.04783941980435615;0.9534753330907343;0.020438645857964073;0.00041773824450727203;1.030204681284032;0.07672934819329769;3.871413744476186;2.7163664299944075;7.378646582000562;6.405985720544383;-1.282591861946744;0.3673810750479789;1.7600983795626377;1;53.72503542;86.84487157999999
-0.0091771183848271;0.031438933557579755;0.0326297542571632;0.04783941980435615;1.0008800236962858;0.020438645857964073;0.00041773824450727203;1.030204681284032;0.07672934819329769;3.871413744476186;2.7163664299944075;7.378646582000562;6.405985720544383;-1.282591861946744;0.3673810750479789;1.7600983795626377;0;53.72503542;86.84487157999999
-0.0652595085143265;0.027428565856682557;-0.0683185479759355;0.043749955228453354;1.0118641020132813;0.020171309239266945;0.000406881716426136;1.030204681284032;0.07672934819329769;3.871413744476186;2.4875981899791864;6.188144754787724;5.856676004517992;-1.679093035398224;0.22693743293597957;1.369751945429566;0;53.72498926000001;86.84484846000001
-0.0601611094116447;0.02731883596002354;-0.0652595085143265;0.04347316685342168;1.0042360599016136;0.02027526602583812;0.00041108641241850556;1.030204681284032;0.07672934819329769;3.871413744476186;2.476326972495674;6.132195274709591;5.856676004517992;-2.0157539531703588;0.129557438928415;1.0330910276574312;0;53.724956665;86.84483378499999
-0.0601611094116447;0.02239197693299222;-0.0662791883348628;0.04312899439381488;1.0053184642677588;0.02095544514610741;0.00043913068127151666;1.030204681284032;0.07672934819329769;3.871413744476186;2.454662576637449;6.0253683651443986;5.856676004517992;-2.296691722679288;0.06635221890693194;0.752153258148502;0;53.724930674999996;86.844820595
-0.0601611094116447;0.022244985829867916;-0.0642398286937901;0.035432508458598314;1.0041703123204715;0.01832744293664313;0.00033589516459591015;1.0168518958669823;0.06337656277624804;3.871413744476186;2.0264085380157604;4.106331562943172;5.739648186163092;-2.5260234513411515;0.02936518029435932;0.5228215294866385;0;53.724909690000004;86.84480985
-0.0601611094116447;0.016370744371523995;-0.0642398286937901;0.03004784379599636;1.0051860720194865;0.009616338693234585;9.247396986300063e-05;1.0168518958669823;0.036234103951305885;3.871413744476186;1.7130400347531873;2.934506160667201;5.739648186163092;-2.707866246572089;0.013168836865382037;0.3409787342557009;0;53.72489791;86.84480063000001
-0.0591414295911083;0.0074680380583585235;-0.0433363923727949;0.010737749796394021;0.9806177919156764;0.009622719606852391;9.259673263210144e-05;1.0168518958669823;0.036234103951305885;3.871413744476186;0.6027291994720646;0.36328248789623585;1.3517531565790448;-2.76532044463473;0.01055117034222044;0.28352453619306006;0;53.72489360000001;86.84479376
-0.0448659121035994;0.007083381120629408;-0.0509839910268175;0.010230872223379192;1.0168518958669823;0.00931103568929223;8.669538560727363e-05;1.0168518958669823;0.036234103951305885;3.780169491422647;0.5785396453374093;0.3347081212271354;1.2605089035255057;-2.76532044463473;0.009465876306840747;0.28352453619306006;0;53.724889870000005;86.84479003
-0.0486897114306107;0.0069856647210757026;-0.0438462322830631;0.00954262093598458;0.997362099631523;0.00933100679421439;8.70676877936751e-05;1.0168518958669823;0.036234103951305885;3.780169491422647;0.539289786620865;0.2908334739535781;1.2605089035255057;-2.76532044463473;0.009551833890190264;0.28352453619306006;0;53.72488627;86.84478899
-0.0469052717446721;0.006549508343778622;-0.0458855919241358;0.00814344136353642;1.0065257390852638;0.009400192970835304;8.836362788894146e-05;1.0168518958669823;0.036234103951305885;3.6678900038297617;0.4600569113060255;0.2116523616404402;1.1482294159326205;-2.76532044463473;0.011667395296095113;0.28352453619306006;0;53.72488327999999;86.84478856
-0.0469052717446721;0.005768743397260974;-0.0448659121035994;0.006312322326366288;1.0064797692769567;0.009470535107348957;8.969103521952912e-05;1.0168518958669823;0.036234103951305885;3.6641784671870634;0.3544540694360096;0.1256376873397475;1.1445178792899222;-2.612591048151071;0.019132906859780585;0.4362539326767192;0;53.724881100000005;86.84478382
-0.0458855919241358;0.004205020372995396;-0.0448659121035994;0.0023889444126040144;1.0074503710874525;0.009638162871591067;9.289418353931655e-05;1.0168518958669823;0.036234103951305885;2.873961133973413;0.11983866515383361;0.014361305665852654;0.3543005460762716;-2.601838469996852;0.02276389727321404;0.43037496121525987;0;53.724879050000006;86.84477921
-0.0458855919241357;0.001167880904695915;-0.0458855919241357;0.00229270547622993;1.0054611801318507;0.004738150107482591;2.2450066441037293e-05;1.0168518958669823;0.019489796235459322;2.873961133973413;0.12077240637473415;0.014585974141543926;0.3543005460762716;-2.411598360370555;0.03470836703530297;0.5853143397079337;0;53.72487843500001;86.84477603500001
-0.0458855919241358;0.0010616565173947913;-0.0448659121035994;0.0014380337718844834;1.0074503710874525;0.003371942456481517;1.1369995929822606e-05;1.0097457616889558;0.012383662057432798;2.778343053723211;0.07809374490999176;0.006098632994066864;0.25868246582607;-2.411598360370555;0.03302582464158356;0.5354615344725668;0;53.72487757500001;86.84477773500001
-0.0448659121035994;0.0007289898572288243;-0.0443560721933312;0.0013595730940485118;1.0073818659269371;0.0011558382452602387;1.3359620492062678e-06;1.0097457616889558;0.004284581557105094;2.778343053723211;0.07601649673834572;0.0057785077763709254;0.25745596469982157;-2.411598360370555;0.028863369747818515;0.5115347190584214;0;53.724876689999995;86.84477685
-0.0474151116549403;0.0007289898572288243;-0.0489446313857448;0.0013553177687622771;1.0097457616889558;0.0011155825465736853;1.2445244182198287e-06;1.0097457616889558;0.004284581557105094;2.778343053723211;0.07565840739303212;0.005724194609250017;0.25745596469982157;-2.411598360370555;0.02733966543305175;0.5115347190584214;0;53.72487590000001;86.84477605999999
-0.0463954318344039;0.0007289898572288243;-0.0443560721933312;0.0013553177687622771;1.0084687553564489;0.0011155825465736853;1.2445244182198287e-06;1.0097457616889558;0.004284581557105094;2.778343053723211;0.07565840739303212;0.005724194609250017;0.25745596469982157;-2.411598360370555;0.027360870757413405;0.5115347190584214;0;53.72487509;86.84477525
-0.0458855919241358;0.0008992730740167808;-0.0448659121035994;0.0013816985570972056;1.0074503710874525;0.001157946499503353;1.3408400957120686e-06;1.0097457616889558;0.004284581557105094;2.778343053723211;0.07701987778892436;0.005932061574620843;0.25745596469982157;-2.411598360370555;0.01950264514704416;0.5110804494407297;0;53.72487445;86.84477461
-0.0458855919241358;0.00089282658893746;-0.0448659121035994;0.002042897127930992;1.0074503710874525;0.001162858956112477;1.3522409518110001e-06;1.0097718902830641;0.003292121006107429;2.836198591800388;0.1135404020767185;0.012891422903742903;0.31531150277699815;-2.411598360370555;0.009758380513785168;0.3717605952182419;0;53.72487462;86.84476966
-0.0469052717446721;0.0008732016300374538;-0.0448659121035994;0.0020365252274151843;1.007497328619515;0.001183175316675723;1.3999038299906975e-06;1.0097718902830641;0.003292121006107429;2.836198591800388;0.1132952025493239;0.012835802920692328;0.31531150277699815;-2.411598360370555;0.006189438845286176;0.2968436955628291;0;53.72487646;86.84476638
-0.0469052717446721;0.0008132616915812561;-0.0448659121035994;0.002206035652382204;1.0064797692769567;0.0011798725883264008;1.3920993246840406e-06;1.0097718902830641;0.003292121006107429;2.836198591800388;0.12309902328268787;0.015153369533151733;0.39990408168173674;-2.411598360370555;0.00629002907041728;0.2968436955628291;0;53.724878875;86.844766235
-0.0479249515652085;0.0008132616915812561;-0.0443560721933312;0.0018840330446845293;1.0065052078853909;0.0009730479826673634;9.468223765730256e-07;1.0097718902830641;0.003292121006107429;2.836198591800388;0.10554918731281157;0.011140630942394982;0.39990408168173674;-2.411598360370555;0.00694619678937004;0.2968436955628291;0;53.724881525;86.84476376500001
-0.0469052717446721;0.0008394744594153227;-0.0499643112062812;0.0019197200974056885;1.0097718902830641;0.0009609496908945065;9.234243084302477e-07;1.0097718902830641;0.003292121006107429;2.836198591800388;0.10726597711022026;0.011505989845410299;0.39990408168173674;-2.515443786141465;0.004132162498444022;0.19515085060065473;0;53.72488366500001;86.844765905
-0.0469052717446721;0.0007289898572288116;-0.0463954318344039;0.00197020859198391;1.0070578546732587;0.0009989616392788343;9.979243567506561e-07;1.0097718902830641;0.003337059814479515;2.836198591800388;0.1100184462395845;0.012104058512972344;0.39990408168173674;-2.515443786141465;0.02426704217081828;0.5666695083579829;0;53.724885395;86.844765075
-0.0484347914754766;0.0005788173877818149;-0.0428265524625267;0.00197020859198391;1.007480945333572;0.0010212060527097918;1.0428618020911142e-06;1.0097718902830641;0.003337059814479515;2.836198591800388;0.10997660393044095;0.01209485341207308;0.39990408168173674;-2.515443786141465;0.08091354343719341;0.9249248370813978;0;53.724886645000005;86.844763765
-0.0474151116549403;0.02243527338624647;-0.0458855919241358;0.0035954860926842437;1.0070583709031184;0.010233521838206847;0.00010472496921305642;1.039285865974866;0.032851035506281434;2.836198591800388;0.22051455970097622;0.04862667104011541;0.8682902261851566;-2.515443786141465;0.2103849507327543;1.396970915943423;0;53.724882455;86.844754455
-0.0479249515652085;0.024447282968366763;-0.0438462322830631;0.007193381624935299;1.0064828684311593;0.010896083568504352;0.00011872463713183054;1.039285865974866;0.032851035506281434;2.836198591800388;0.4215397106258979;0.17769572763456573;1.4658345193569884;-2.515443786141465;0.3506483562271361;1.6343640241980388;0;53.724872295;86.844736615
-0.0469052717446721;0.024408265850294358;-0.0438462322830631;0.010499484222225826;1.0064348304685846;0.015929950882455374;0.0002537633351174408;1.039285865974866;0.06393986402659624;3.896511137880981;0.6370308722896438;0.4058083322501045;2.5261470654375815;-2.515443786141465;0.5273466035573999;1.9415934381645927;0;53.724855155;86.84470411499998
-0.0469052717446721;0.024435938959572995;-0.0448659121035994;0.0188848110229951;1.0064797692769567;0.017417428792696657;0.00030336682574865853;1.039285865974866;0.06393986402659624;5.456885520596053;1.1271479110861184;1.2704624134658002;4.086521448152654;-2.515443786141465;0.6705890109948264;2.120775697909756;0;53.724832175;86.844663215
-0.1182828591822167;0.030345826786335524;-0.0356887937187723;0.021367368404203408;1.039285865974866;0.018560417030959574;0.0003444890803631342;1.039285865974866;0.06393986402659624;5.456885520596053;1.2676985642418088;1.6070596497807434;4.489536803192687;-2.515443786141465;0.7551006488075919;2.2664227431116473;1;53.724802135000004;86.844612695
-0.023452635872336;0.031161049394309633;-0.0244723156928724;0.02700729584084055;1.0233003938798515;0.019055865698266703;0.00036312601751037755;1.039285865974866;0.06393986402659624;5.456885520596053;1.5799774305110885;2.4963286809244214;5.799772583284027;-2.515443786141465;0.7400550108609176;2.2699993555592712;0;53.72476382;86.84454109999999
-0.0509839910268175;0.034237604827053736;-0.0662791883348628;0.02696619924715032;0.9753460019482698;0.02129125390240396;0.00045331749273663183;1.039285865974866;0.06393986402659624;5.456885520596053;1.5776535999502892;2.488990881436107;5.799772583284027;-2.71059463674212;0.5973943718335184;2.15786557131179;0;53.724718300000006;86.84444438
-0.0458855919241358;0.036633849336922056;-0.0938105434893443;0.032161205520403816;0.9864752756324549;0.021612873589751995;0.0004671163048065993;1.039285865974866;0.06393986402659624;5.495088335891077;1.8746646966730491;3.514367724952255;5.837975398579051;-3.082113294499448;0.4097146100946701;1.821015292001173;0;53.72466948;86.84432899999999
-0.1101254206179259;0.038544406753086895;-0.0173345569491179;0.03686251851397271;1.0267694800488072;0.02161318555677302;0.0004671297899115019;1.039285865974866;0.06393986402659624;5.848139251586296;2.1343667454894253;4.55552140425112;6.1910263142742705;-3.440368623222863;0.24566678328031089;1.4627599632777581;1;53.72461936;86.84419951999999
-0.0346691138982359;0.05031752285852767;0.0061180789232181;0.03681940068313258;1.022325516403962;0.021649693380219357;0.0004687092234575139;1.039285865974866;0.06393986402659624;5.848139251586296;2.130946053981334;4.540931084978618;6.1910263142742705;-3.912414702084888;0.11215910645080057;0.990713884415733;1;53.72456898;86.84405186000001
-0.104517181604976;0.05031752285852767;-0.037728153359845;0.03637493285628441;0.9801134906147613;0.019215930049355633;0.0003692519676617288;1.0267694800488072;0.05142347810053738;5.848139251586296;2.100056997179886;4.4102393914041995;6.1910263142742705;-4.149807810339504;0.057293163541357446;0.7533207761611171;1;53.7245328;86.84388768
-0.1091057407973896;0.04576786299989479;-0.0953400632201488;0.03506572011234529;0.9956103065564804;0.01856270259572272;0.000344573927657251;1.0267694800488072;0.05142347810053738;5.848139251586296;2.018612915356869;4.074798102045559;6.1910263142742705;-4.220665452960294;0.0497709334651831;0.6824631335403275;1;53.724514840000005;86.84373403999999
-0.1167533394514122;0.045259568545302505;-0.1024778219639032;0.03580126683153326;1.0057479725881169;0.016512391245224023;0.0002726590646353509;1.0267694800488072;0.04665598943404592;5.848139251586296;2.06200235163753;4.251853698158704;6.1910263142742705;-3.8570169847158633;0.1137024634212475;1.0461116017847578;1;53.72451543;86.84360151000001
-0.1866014071581523;0.05192018558376676;-0.0560823901294993;0.03400037208812265;1.0100997917059107;0.015386851836089286;0.00023675520942576425;1.0267694800488072;0.04665598943404592;5.848139251586296;1.9482300653449895;3.795600387514142;6.1910263142742705;-3.500662009326798;0.23515103509188678;1.402466577173823;1;53.72453481;86.84349033
-0.1182828591822167;0.05250564532422808;-0.058121749770572;0.030882441719151717;1.0210829542558806;0.014154400465775171;0.0002003470525455364;1.022325516403962;0.04221202578920069;5.848139251586296;1.7672345214562628;3.123117853826746;6.1910263142742705;-3.4743581523684424;0.32215929226543033;1.4287704341321787;1;53.72458019;86.84339747
-0.0642398286937901;0.05486681831709739;-0.0713775874375446;0.020762443975485875;1.016070393629026;0.0132683872329366;0.00017605009976315495;1.0210829542558806;0.04096946364111931;5.848139251586296;1.196081549018435;1.4306110719023393;3.6420700785104976;-3.04880774159256;0.46040804975479177;1.8543208449080613;0;53.72465082;86.84333754000001
-0.0560823901294993;0.056321889738649177;-0.0825940654634444;0.020001499016298423;0.9900571227581452;0.01025184695040706;0.00010510036589457056;1.0210829542558806;0.031025831497735412;5.848139251586296;1.1604979647138407;1.3467555261049666;3.3954960132800256;-2.745681975346327;0.5902825773593147;2.157446611154294;0;53.7247486;86.84331499999999
-0.003059039461609;0.05694974937770081;-0.0662791883348628;0.018982438341012937;1.0167486165454673;0.009755626092940438;9.517224046526031e-05;1.0210829542558806;0.031025831497735412;5.848139251586296;1.0907493184124855;1.1897340756173016;3.4533096960660443;-2.335123761559833;0.7208068608668308;2.5445242743714567;0;53.724874750000005;86.84332339
-0.0550627103089629;0.05427713530463498;-0.0571020699500356;0.012935607457689407;0.999380383999375;0.01033884988165497;0.00010689181687539697;1.0210829542558806;0.031025831497735412;4.785378105730554;0.7477098123392019;0.5590699634683245;2.3905485502103017;-2.0556554116169723;0.7902121950387788;2.596075651874968;0;53.725029170000006;86.84336261
-0.0152951973080452;0.03326442236405111;-0.0469052717446721;0.01513956524341124;1.0137432981171008;0.011092263780688914;0.00012303831578038313;1.0210829542558806;0.031025831497735412;4.785378105730554;0.8813093014337752;0.7767060847936887;2.3905485502103017;-1.6095565858857044;0.8945223759203174;2.871227861434639;0;53.725207929999996;86.84343897
-0.0336494340776996;0.022735023808573743;-0.0428265524625267;0.015171580874565686;1.0007693818941619;0.010047691663814707;0.00010095610777109156;1.0185912411005453;0.02853411834240016;4.785378105730554;0.8824355316461264;0.7786924675115818;2.3905485502103017;-1.3760037668909872;0.9284666748065086;2.8446616860693066;0;53.72539475999999;86.84354644
-0.0265116753339451;0.022026552749260138;-0.0418068726419904;0.015026204564463163;1.0005116897149997;0.009385806339273033;8.809336063833785e-05;1.0185912411005453;0.02853411834240016;4.785378105730554;0.8769551544102543;0.7690503428467129;2.3905485502103017;-1.208550859147434;0.8997774871301062;2.6484661255684294;0;53.72558894;86.84366638
-0.058121749770572;0.021221973562264424;-0.0520036708473539;0.012896251348763968;1.0185912411005453;0.010327274684832816;0.00010665260241598874;1.0185912411005453;0.03353039620279041;4.757958005190466;0.7455547408551579;0.5558518716116017;2.363128449670214;-1.1678658958031134;0.8246263095339278;2.3327961135236848;0;53.725790589999995;86.84378867000001
-0.0183542367696543;0.019741918922462038;-0.0825940654634444;0.012754379035181014;0.9957495844923943;0.009871245084642983;9.744147952108826e-05;1.0185912411005453;0.03353039620279041;4.757958005190466;0.7427644334171811;0.551699003549546;2.363128449670214;-1.1678658958031134;0.67670546215155;2.306492256565329;0;53.726005580000006;86.84391918
-0.0091771183848271;0.01753961268089932;-0.0642398286937901;0.01303392100119918;1.0018997678181785;0.009760248838273745;9.526245738502398e-05;1.0185912411005453;0.03353039620279041;4.757958005190466;0.7580305603454167;0.5746103304175865;2.363128449670214;-1.1678658958031134;0.4343229262239533;1.8809418457894465;0;53.72622256999999;86.84405681
-0.0020393596410727;0.0190282563964449;-0.0693382277964719;0.013462949026999;1.0077945035625222;0.009774070682999896;9.553245771627805e-05;1.0185912411005453;0.03353039620279041;4.757958005190466;0.7828054567445404;0.6127843831090285;2.363128449670214;-1.1678658958031134;0.2600492902468357;1.5778160795432137;0;53.72644692;86.84419924
-0.0499643112062812;0.019496071956164308;-0.0601611094116447;0.012645217517938312;0.9850608448977549;0.009724158151821444;9.455925176163547e-05;1.0185912411005453;0.03353039620279041;4.757958005190466;0.7379764296245204;0.5446092106813547;2.363128449670214;-1.1678658958031134;0.1292449333983462;1.1672578657567194;0;53.72667715;86.84434755000001
-0.0193739165901906;0.02118383293349311;-0.0509839910268175;0.01114984642779033;1.0129917300824811;0.013837177683779176;0.00019146748625247645;1.0185912411005453;0.04520603804618872;4.757958005190466;0.651884756427675;0.4249537356627691;2.3370252443238817;-1.1678658958031134;0.06612840203078402;0.8877895158138589;0;53.72690822;86.84449925999999
-0.0316100744366268;0.01863811823801602;-0.0652595085143265;0.010739766919210926;1.004964689774313;0.012958746375613662;0.0001679291076274802;1.013869958116242;0.040484755061885425;4.757958005190466;0.6244434038316704;0.38992956458888267;2.3370252443238817;-1.1678658958031134;0.0346837195171132;0.4660705148477975;0;53.72713718999999;86.84465143
-0.0540430304884266;0.020079898137084592;-0.0428265524625267;0.008555593744632667;1.013869958116242;0.012877153552749682;0.00016582108362109377;1.013869958116242;0.040484755061885425;4.0151849725829845;0.49236248003331967;0.24242081174456112;1.5942522117164;-0.936338085703613;0.05113242367253233;0.6975983249472979;0;53.7273644;86.84479928
-0.0438462322830631;0.019837657691549396;-0.0652595085143265;0.009461617791097865;1.0023743079629481;0.012966172560647127;0.0001681216308724785;1.013869958116242;0.040484755061885425;4.223088290838593;0.546916927036901;0.2991181250794869;1.8021555299720085;-0.6656156940065516;0.0973716600893809;0.9683207166443593;0;53.72759281;86.84496113
-0.0050983991026817;0.018153292129059705;-0.0560823901294993;0.009461617791097865;0.9733852030543566;0.012983188617320557;0.0001685631866729221;1.013869958116242;0.040484755061885425;4.223088290838593;0.5523910677386278;0.3051358917174212;1.8021555299720085;-0.3518371096989827;0.18402656928220107;1.2820993009519281;0;53.727820959999995;86.84512528
-0.0305903946160905;0.017339221523313773;-0.0591414295911083;0.009868033084996054;1.0106590889732308;0.011961855780767949;0.0001430859937198916;1.013869958116242;0.040484755061885425;4.223088290838593;0.5768470885052829;0.33275256351702165;1.8021555299720085;-0.3386429947953436;0.25733150411356154;1.2952934158555673;0;53.728051210000004;86.84529409000001
-0.0020393596410727;0.01783873107202024;-0.0703579076170082;0.010853191933777229;1.0048136252996123;0.011952568105944469;0.00014286388432724093;1.013869958116242;0.040484755061885425;4.677180316331684;0.6171671629351444;0.380895307005415;2.2562475554651;-0.1871416286441397;0.3216521528820205;1.4467947820067713;0;53.72829041;86.84546673
-0.0122361578464362;0.01856732145146492;-0.0734169470786173;0.01607555052471297;0.9969700111342552;0.013051625511460076;0.0001703449284913955;1.0177707222748844;0.0443855192205278;5.807668531061854;0.8961488517021322;0.8030827644070502;3.386735770195269;0.3490906826043703;0.4373278974197317;1.9830270932552811;0;53.72852501;86.84563221
-0.0316100744366268;0.018361788399996432;-0.0693382277964719;0.01735820006301352;0.9930372741799203;0.012753326628024619;0.00016264734008108182;1.0177707222748844;0.0443855192205278;6.140946360268596;0.9571289810771356;0.9160958864177557;2.837973699165151;0.8912242172263533;0.6015641112876972;2.496139041987532;0;53.72875182;86.84579502
-0.0081574385642908;0.018753979053949318;-0.0703579076170082;0.018857185692777504;0.9977247900423029;0.014901517223528324;0.00022205521556311128;1.0177707222748844;0.0443855192205278;6.140946360268596;1.0698203571486045;1.1445155965695677;2.837973699165151;1.217352877085478;0.7288065464096045;2.5596440022267437;0;53.72896648;86.84595336
-0.0101967982053635;0.021633078747088096;-0.0825940654634444;0.026574568142356713;1.0129075607961107;0.01189346703113731;0.0001414545580207501;1.0177707222748844;0.04018596411625075;8.475044250740645;1.5404101851809007;2.3728635386090566;5.120311434853834;1.731180080809694;0.9311924375505097;2.92249001228351;0;53.72917907000001;86.84611731
-0.003059039461609;0.024853845877864;-0.1029876618741715;0.027499865546607865;1.0177707222748844;0.011480792329254925;0.00013180859250747873;1.0177707222748844;0.04018596411625075;8.475044250740645;1.589185801414704;2.5255115114180953;4.471143084367928;1.8961135303853984;1.031522986716949;2.8324516160890116;0;53.72937547;86.84627787000001
0.020393596410727;0.026915813327087347;-0.1080860609768532;0.02696962635515765;1.0103895123810036;0.012125889030699784;0.00014703718478484534;1.0177707222748844;0.04018596411625075;8.475044250740645;1.5495251802308703;2.4010282841695108;4.471143084367928;1.8961135303853984;1.0083686142600052;2.56172922439195;0;53.729558329999996;86.84643513
0.0275313551544814;0.02655608571937977;-0.1029876618741715;0.02598794718550047;0.9775847581586337;0.012150225400010102;0.00014762797727105065;1.0177707222748844;0.04018596411625075;8.475044250740645;1.4991269353912593;2.247381568415589;4.471143084367928;1.8961135303853984;0.9048614914736643;2.247950640084381;0;53.7297318;86.84658556
0.0285510349750178;0.021006394260129575;-0.1468338941572346;0.023749031601877003;0.996303892526393;0.013066923004353241;0.00017074447680169593;1.020622588541623;0.04303783038298925;8.475044250740645;1.3645831845215948;1.862087267479097;4.431284093420205;1.8961135303853984;0.779010113299329;2.234756525180742;0;53.72989407;86.84673247
0.0509839910268175;0.018975133715488156;-0.1315386968491893;0.019378090268547934;1.0011184074214647;0.012943838683691103;0.0001675429598694182;1.020622588541623;0.04303783038298925;8.475044250740645;1.118475671014705;1.2509878266517949;3.7978639344089604;1.8961135303853984;0.5386857831396217;2.0832551590295383;0;53.73004139999999;86.84688492000001
0.040787192821454;0.01452830052955189;-0.1213418986438258;0.015229342838141117;1.0135212203273656;0.01271527708785071;0.0001616782714208212;1.020622588541623;0.04303783038298925;8.475044250740645;0.871354613549717;0.7592588625543767;2.667375719678791;1.8961135303853984;0.2630040311362405;1.5470228477810282;0;53.73015709;86.84703388999999
0.0336494340776996;0.010951870784144349;-0.1244009381054349;0.028733347846774313;0.9964385083751209;0.01213988443617967;0.0001473767941237974;1.020622588541623;0.04303783038298925;8.475044250740645;1.645323133235341;2.70708821275936;5.990756930439444;1.8961135303853984;0.10701280512740384;1.0048893131590453;0;53.73026175;86.84722047
0.0254919955134087;0.01956564858838771;-0.133578056490262;0.03900636294604468;1.020622588541623;0.014753024487650604;0.00021765173153321835;1.0307328947801917;0.05314813662155804;8.475044250740645;2.2443752966138453;5.037220472050485;6.660937396431048;1.8961135303853984;0.07007784271870264;0.7139417195277455;0;53.73035573;86.84742709
0.0382379932701131;0.0274001732245565;-0.1345977363107984;0.040354507927058886;1.0100448486175564;0.01799090949121481;0.0003236728243210832;1.0545747387645057;0.05827084623811274;8.475044250740645;2.339768896474665;5.474518488910271;6.660937396431048;1.8961135303853984;0.09146261658926223;0.8739588195901162;0;53.73044627;86.84764819
0.0214132762312633;0.03210008111601564;-0.1091057407973896;0.03775967983383842;1.0024126867400942;0.017163483884025176;0.00029458517903719196;1.0545747387645057;0.05813623038938476;7.6579680465475;2.177491456930939;4.741469045007224;5.843861192237903;1.8961135303853984;0.15254068658160647;1.1017678002543054;0;53.73052918;86.84786934
0.0142755174875089;0.036260455774767504;-0.0438462322830631;0.03656594521200127;1.0115542464645626;0.016511287083335;0.0002726226011483052;1.0545747387645057;0.05813623038938476;7.6579680465475;2.101708495849706;4.4171786015268335;5.843861192237903;1.8628931799254147;0.20390621020441838;1.2322549317846032;0;53.73062264;86.84808824
0.0836137452839808;0.039523062564431166;-0.0326297542571632;0.037940524805059966;1.0307328947801917;0.016973783370115406;0.0002881093218956063;1.0545747387645057;0.05813623038938476;7.6579680465475;2.166853890483001;4.695255782701317;5.843861192237903;1.8285194506564284;0.236989096818734;1.283607948352967;0;53.73072225;86.84830049
0.0989089425920261;0.05195591390764462;-0.07545630671969;0.03944534293628569;1.0545747387645057;0.01586323425907797;0.00025164220115838503;1.0545747387645057;0.05216205202441149;8.038157229675962;2.2508806854561367;5.066463860159487;6.224050375366365;1.8285194506564284;0.2799686617206848;1.5519643173119093;1;53.73082541;86.84849836999999
-0.0101967982053635;0.052636536710647906;-0.0907515040277353;0.03993941216832417;1.00649681450698;0.01657151731851322;0.00027461518623778363;1.0545747387645057;0.05216205202441149;8.038157229675962;2.2925604793145022;5.2558335513147405;6.224050375366365;1.688717417327488;0.30387454383433193;1.6224074912482573;0;53.73093456;86.84868687999999
-0.0163148771285816;0.05182330348405851;-0.1152238197206077;0.039847467323253144;1.013129773099869;0.01953191089553003;0.00038149554323092474;1.0545747387645057;0.0706428868557285;8.038157229675962;2.3062537852135687;5.318806521811913;6.224050375366365;1.5750783497201846;0.3044095847398828;1.596970599110842;0;53.73104761;86.84885625
-0.0183542367696543;0.05180457434486714;-0.1366370959518711;0.0400994842505061;1.0289574871716536;0.019230749204427033;0.000369821714963571;1.0545747387645057;0.0706428868557285;8.038157229675962;2.3200085859368835;5.382439838820859;6.224050375366365;1.422622850008577;0.28321296677861807;1.5587619686619618;0;53.731165909999994;86.84900783
-0.0805547058223717;0.051739303899126905;-0.1407158152340165;0.03445535516067289;1.0063165336671613;0.01920069394436548;0.00036866664794519313;1.0545747387645057;0.0706428868557285;8.038157229675962;2.005551021107114;4.022234898263788;6.224050375366365;1.1821718108576529;0.2524314627644267;1.45450960788553;0;53.731288140000004;86.84911213999999
-0.0142755174875089;0.04369499560701111;-0.1386764555929438;0.023991987344523635;1.0029047384373782;0.019121183930077872;0.0003656196748878682;1.0545747387645057;0.0706428868557285;8.038157229675962;1.410145215551426;1.988509528942578;3.935057437205935;1.0221547107952822;0.22531516666665605;1.383153799046491;0;53.73141627;86.84918139
0.0040787192821454;0.027127869965159212;-0.133578056490262;0.025526188504359004;0.9839318519087772;0.011933577483903071;0.00014241027156431836;1.0289574871716536;0.045025635262876396;8.038157229675962;1.466722962416023;2.151276248478434;4.228693196437515;0.794345730131093;0.1833190986933594;1.180133566772684;0;53.73154946000001;86.84922242
-0.0071377587437544;0.028737569244844486;-0.1172631793616804;0.025837254965447774;1.008193694455391;0.01200772618525754;0.0001441854881401196;1.0289574871716536;0.045025635262876396;8.038157229675962;1.482691364840928;2.1983736833738536;4.228693196437515;0.6306382481408115;0.1477334735726915;1.0578305039902316;0;53.73168337;86.84923601
-0.0010196798205363;0.029530447140366952;-0.1029876618741715;0.027012481979083746;1.0157377660108822;0.011858645432963276;0.00014062747150474076;1.0289574871716536;0.045025635262876396;8.038157229675962;1.5517244812213662;2.407848865621718;4.228693196437515;0.5449115023034614;0.10916981218709271;0.9721037581528815;0;53.73181881000001;86.84923321
0.0081574385642908;0.02919938425034264;-0.0856531049250535;0.026019102044951496;0.9968881395783684;0.010059767378785419;0.00010119891971527524;1.0157377660108822;0.03180591410210498;8.038157229675962;1.510780549050852;2.2824578673903932;4.228693196437515;0.2765551333445191;0.05564371468593359;0.7037473891939392;0;53.73195586000001;86.8492141
0.020393596410727;0.011170549901989048;-0.0672988681553992;0.024159275802701906;1.01294656694472;0.010340967043942434;0.00010693559940390352;1.0157377660108822;0.03180591410210498;7.948028837864733;1.416356961549749;2.0060670425304377;4.138564804626286;0.2154421480294734;0.04975811436109412;0.6426344038788935;0;53.73209359;86.84918543
0.0183542367696543;0.013356119049206718;-0.0876924645661262;0.02166862937937654;1.0032944752545614;0.010352982290344264;0.00010718424230418198;1.0157377660108822;0.03180591410210498;7.80253803886785;1.2767693791582557;1.6301400475561576;3.9930740056294027;0.2154421480294734;0.05427364184925901;0.6426344038788935;0;53.73222776;86.8491404
0.0152951973080452;0.020606616627419885;-0.087182624655858;0.02031136054196185;1.0092931019737061;0.00911227857669653;8.303362085932253e-05;1.016131789898246;0.02620910043789404;7.307157595239289;1.1621166241430998;1.3505150481097548;3.4976935620008422;0.2154421480294734;0.06278992724744265;0.6426344038788935;0;53.73236498;86.84907025999999
-0.0010196798205363;0.02103195200117253;-0.0876924645661262;0.020093701522992346;0.989922689460352;0.009072837823931723;8.231638617936613e-05;1.016131789898246;0.02620910043789404;7.307157595239289;1.1505729569293088;1.323818129217053;3.4976935620008422;0.2154421480294734;0.07703061397869206;0.6426344038788935;0;53.7324981;86.84898066
0.0050983991026817;0.021022886681811216;-0.1264402977465075;0.02007212956102974;0.9941172292981519;0.008666349907100445;7.510562071229988e-05;1.016131789898246;0.02620910043789404;7.307157595239289;1.1502347471549015;1.3230399735625002;3.4976935620008422;0.2154421480294734;0.07462258002109706;0.6426344038788935;0;53.73262445;86.84886893000001
-0.0244723156928724;0.02101876478959234;-0.1193025390027531;0.01950199673353187;1.0036436586316209;0.00844931399116746;7.139090692133819e-05;1.016131789898246;0.02620910043789404;7.307157595239289;1.119492467837493;1.2532633855448803;3.4976935620008422;0.2154421480294734;0.07495981496635487;0.6426344038788935;0;53.73274342;86.84870117999999
-0.0458855919241358;0.01973752952081382;-0.1244009381054349;0.015185661584263807;1.016131789898246;0.007868869094663144;6.191910082894478e-05;1.016131789898246;0.02620910043789404;7.307157595239289;0.8620507865896853;0.7431315586598951;2.3517791119092983;0.2154421480294734;0.09458690810054898;0.8374274333775223;0;53.73284756;86.84851348
0.0142755174875089;0.019021880397856333;-0.1147139798103395;0.014740948306189465;1.0069632510836772;0.009436770559205249;8.905263858708294e-05;1.016131789898246;0.030313903570134304;7.307157595239289;0.8503748247332943;0.723137342540181;2.3517791119092983;0.2154421480294734;0.12298305980875374;0.9456054307988875;0;53.732935250000004;86.84830677
0.0020393596410727;0.01789821307023777;-0.0999286224125624;0.013289022874656322;0.9951411607585426;0.00966030238600063;9.332144218896946e-05;1.016131789898246;0.030313903570134304;7.307157595239289;0.7493948474056568;0.5615926373181476;2.2249397122848515;0.2154421480294734;0.15376293142686007;0.98105868853704;0;53.73300348;86.84808572
-0.0071377587437544;0.017848766380782026;-0.1070663811563169;0.010366605540661575;1.0060447599601816;0.009981247297743977;9.962529761872144e-05;1.016131789898246;0.030313903570134304;7.307157595239289;0.5852031448331985;0.3424627207226655;1.5440009611573;0.2154421480294734;0.19316066737304377;1.0570551215717459;0;53.73305734;86.84785542
0.0;0.017491794223405775;-0.1040073416947078;0.011499373592056503;0.9996134045471026;0.00977360945910778;9.552344185916108e-05;1.016131789898246;0.030313903570134304;7.2495158893717715;0.648128257637392;0.42007023834808166;1.8921057268852612;0.2084136387349942;0.20641517190122746;1.1924671772088873;0;53.73310034;86.84761169999999
0.0112164780258998;0.018568254740638456;-0.1244009381054349;0.01219466299574945;0.9858178863281117;0.009793342770221774;9.59095626150551e-05;1.016131789898246;0.030313903570134304;7.2495158893717715;0.6917949068936482;0.47858019320399137;1.8921057268852612;0.2084136387349942;0.21709445395305277;1.336762656954785;0;53.73313439;86.84735391000001
-0.0040787192821454;0.018105818299818353;-0.1264402977465075;0.013256818092081379;1.0113085555382617;0.00847240157863978;7.178158850973783e-05;1.0113085555382617;0.025490669210149974;7.2495158893717715;0.7701520624457979;0.5931341992895163;2.41309841754273;0.2084136387349942;0.18710444442248791;1.336762656954785;0;53.733156789999995;86.84709471
-0.0040787192821454;0.019746673006529592;-0.1050270215152442;0.013391967509922493;0.9875608274278941;0.008177508130976448;6.687163923218593e-05;1.0113085555382617;0.025490669210149974;7.2495158893717715;0.7808854135699892;0.609782029126373;2.41309841754273;-0.1213731929451521;0.1077295359133687;1.0069758252746388;0;53.73317908;86.84679956
-0.0091771183848271;0.020243562286711172;-0.0938105434893443;0.014273898856346803;1.0047370497006474;0.008047709735602636;6.476563198851346e-05;1.0113085555382617;0.025490669210149974;7.2495158893717715;0.8307352290648107;0.6901210208093634;2.41309841754273;-0.3671618946093248;0.05793302491429983;0.761187123610466;0;53.73319807;86.84649343
-0.0326297542571632;0.020576951819430766;-0.095849903130417;0.014171552389885633;1.004402739203872;0.008639296881076512;7.463745059937834e-05;1.011314338698864;0.025496452370752154;7.2495158893717715;0.8270701722884919;0.6840450698893156;2.41309841754273;-0.621985285348049;0.0350578184735066;0.5515225397950467;0;53.73321222;86.84621317999999
-0.0438462322830631;0.02484995264508576;-0.0846334251045171;0.014151973906132497;1.0038218300363813;0.008689484574811971;7.55071421758952e-05;1.011314338698864;0.025496452370752154;7.2495158893717715;0.8261014864508114;0.6824436659162402;2.41309841754273;-0.7301632827694141;0.04904776661619725;0.7565549116710942;0;53.73322705;86.84592592999999
-0.0443560721933312;0.022187573196372882;-0.092790863668808;0.011588317099954334;0.9984791285578339;0.008716661903758006;7.598019474442614e-05;1.019527876922449;0.03196704949455487;7.182282049455456;0.6556883471932946;0.4299272086450745;2.345864577626414;-0.7656165405075667;0.06748141501252745;0.8318125221016358;0;53.73324195;86.84560803
0.0071377587437544;0.021981991442233617;-0.0876924645661262;0.008304115086593676;0.9980733176302304;0.00838206697163771;7.025904671701977e-05;1.019527876922449;0.03196704949455487;6.488220835781799;0.4864475307125134;0.23663120013630168;1.6518033639527578;-0.8416129735422725;0.08498024613916295;0.8763964687705966;0;53.733255459999995;86.84528362
-0.0265116753339451;0.026041293086162022;-0.1009483022330988;0.007827883033471027;1.011314338698864;0.010129276711181174;0.00010260224669167732;1.019527876922449;0.03955456026678339;6.488220835781799;0.4520667761956902;0.20436437013996422;1.6518033639527578;-0.984053538473893;0.10037211378285879;0.8276440305159535;0;53.73326708999999;86.84495476999999
-0.0632201488732537;0.02568185532120312;-0.0999286224125624;0.010823346132415926;1.0037266624724208;0.011884690300995362;0.00014124586355057322;1.0221339133559435;0.04216059670027794;6.760344395430391;0.5946327701523776;0.35358813133909034;1.923926923601349;-0.9923036991976536;0.10746144563433929;0.8193938697921929;0;53.73327644;86.8446262
-0.0295707147955541;0.027617034396020618;-0.095849903130417;0.013324943471078909;1.019527876922449;0.012119190464518844;0.00014687477751528446;1.0221339133559435;0.04216059670027794;6.760344395430391;0.7485406977392238;0.560313176171924;2.5413774083928065;-0.9923036991976536;0.10230921472858695;0.8193938697921929;0;53.733283189999995;86.84429759
-0.0061180789232181;0.027617034396020614;-0.113184460079535;0.013665231420618588;1.0016417176765304;0.012119935780913613;0.00014689284333347006;1.0221339133559435;0.04216059670027794;6.760344395430391;0.7698263832854563;0.5926326604023663;2.5413774083928065;-0.9923036991976536;0.087881381053566;0.8193938697921929;0;53.73328574;86.84396222000001
0.0224329560517997;0.027685397310120135;-0.0978892627714897;0.014790630663378093;0.9799733166556656;0.013607447569471964;0.00018516262935592846;1.0221339133559435;0.04216059670027794;6.760344395430391;0.8245349184636798;0.6798578317659071;2.5413774083928065;-0.9923036991976536;0.06784918714569682;0.8193938697921929;0;53.73328444;86.8436102
-0.0300805547058223;0.02834519366983436;-0.1203222188232894;0.0174838668292874;1.0221339133559435;0.013464701095453621;0.00018129817558990997;1.0221339133559435;0.04216059670027794;6.760344395430391;0.981906055699594;0.9641395022195343;3.0279615332878267;-1.1691102430794846;0.05076257519508076;0.6425873259103618;0;53.733285089999995;86.84325245
-0.0571020699500356;0.028679470555571924;-0.0744366268991536;0.017757919164956306;1.0118024467803857;0.013246461361966253;0.00017546873861406484;1.0221339133559435;0.04216059670027794;6.760344395430391;1.0000187684071609;1.0000375371665746;3.0279615332878267;-0.9804898897896668;0.06954014253900648;0.8312076792001797;0;53.73328574999999;86.84288959
-0.0438462322830631;0.026901484371946963;-0.0815743856429081;0.017472299598891683;1.0066145736647165;0.013528682879283063;0.0001830252604482067;1.0221339133559435;0.04216059670027794;6.760344395430391;0.9840202858236083;0.9682959229123759;3.0279615332878267;-0.8149548560118022;0.11741470244435481;0.9967427129780443;0;53.73328783000001;86.84252047
-0.0050983991026817;0.029703298258740553;-0.078515346181299;0.017799831375923444;0.9850988427209222;0.01248131208369485;0.00015578315133058705;1.0221339133559435;0.04216059670027794;6.760344395430391;1.0057926965847643;1.0116189485032516;3.0279615332878267;-0.7306312809710571;0.1618293844218715;1.0810662880187893;0;53.7332942;86.84217356
0.0122361578464362;0.029054463910261726;-0.0652595085143265;0.015335271100120187;1.0025070715361164;0.013353086926569583;0.0001783049304685235;1.0221339133559435;0.04216059670027794;6.760344395430391;0.8620160713424432;0.74307170725266;3.0279615332878267;-0.425525853658494;0.22354641399659275;1.3861717153313524;0;53.73330814;86.84181886
-0.0367084735393086;0.02560103798527016;-0.078515346181299;0.015006297648809137;1.0040538198150042;0.011963139949085936;0.00014311671744141586;1.0221339133559435;0.03703507063502132;6.760344395430391;0.8179583955971524;0.6690559369278677;3.0279615332878267;-0.425525853658494;0.21104288267557397;1.3576957354592274;0;53.733332940000004;86.84146222000001
-0.0499643112062812;0.028019247910164486;-0.0866727847455898;0.006070925852764385;1.0123988035867812;0.011616207028567357;0.00013493626573053764;1.0198322512761753;0.03473340855525309;4.911178319629592;0.3286248811167336;0.10799431248898728;1.1787954574870279;-0.3897328289858289;0.19407083454562246;1.192496406688693;0;53.733367769999994;86.84110025
-0.0622004690527174;0.02887017730979327;-0.07545630671969;0.006137168139412059;1.0010150628425851;0.011966699589754045;0.0001432018990714196;1.0198322512761753;0.03473340855525309;4.911178319629592;0.3274588896327407;0.10722932439950746;1.1787954574870279;-0.3897328289858289;0.16478042086973527;1.1061054383549989;0;53.73341634;86.84073922
-0.0183542367696543;0.029766627654241404;-0.0800448659121036;0.007146048943811769;1.0178995624739453;0.01226043851036259;0.00015031835246638204;1.0198322512761753;0.03473340855525309;5.078360657044447;0.3815845688023364;0.145606783148065;1.3459777949018834;-0.3897328289858289;0.127671264405048;1.0367857375022231;0;53.733481919999996;86.84039264
0.0010196798205363;0.03034625507405634;-0.0703579076170082;0.007313828798400175;0.9875208185668288;0.00996998399635784;9.940058088763143e-05;1.0198322512761753;0.032311432709346444;5.078360657044447;0.39270333616103326;0.1542159102320055;1.3459777949018834;-0.2456744687571002;0.08718738609642479;0.9234357743223844;0;53.73355743999999;86.8400944
0.0071377587437544;0.02953949259394756;-0.0805547058223717;0.006349957781838133;1.0198322512761753;0.009915148273663311;9.831016528872854e-05;1.0198322512761753;0.032311432709346444;5.078360657044447;0.34297626169302753;0.11763271608492411;1.0964538512608057;-0.2456744687571002;0.052680661199253846;0.7348154210325666;0;53.73364081999999;86.83981170000001
0.0198837565004588;0.029095390327725557;-0.0815743856429081;0.008228120471280083;1.0160173084474453;0.012238901235939742;0.00014979070346308736;1.0198322512761753;0.03375968661639772;5.078360657044447;0.4371158987675241;0.19107030895534038;1.4024305322104453;-0.2456744687571002;0.03070363381011713;0.569280387254702;0;53.73373322;86.8395073
0.0224329560517997;0.028094240341354357;-0.0897318242071989;0.015204383919806675;1.0137115024341392;0.012314709564642529;0.00015165207166149816;1.0198322512761753;0.03375968661639772;5.078360657044447;0.8549342856440705;0.7309126327697371;3.0609593377951607;-0.2456744687571002;0.019381013820045766;0.4849568122139569;0;53.73382509;86.83919981
0.0081574385642908;0.018956859837440932;-0.0836137452839808;0.015874234929486603;1.002811427902371;0.012292647118448316;0.00015110917317869566;1.0198322512761753;0.03375968661639772;5.078360657044447;0.8949090501264974;0.8008622079983098;3.0609593377951607;-0.2456744687571002;0.013105295370238723;0.3645732932114981;0;53.73391307000001;86.83888331
-0.0224329560517997;0.019097722586495915;-0.0703579076170082;0.01833534408655193;1.0131975048019997;0.011909663254930399;0.00014184007884583935;1.0198322512761753;0.03375968661639772;5.078360657044447;1.0402269681094556;1.0820721451821904;3.0609593377951607;-0.1366430737233515;0.022383372407714;0.4736046882452468;0;53.73399505;86.83855568999999
0.0101967982053635;0.02301814113894761;-0.0632201488732537;0.018394790331469228;0.9860725646597776;0.010182087135363041;0.00010367489843212555;1.0198322512761753;0.03375968661639772;5.078360657044447;1.040354435802878;1.0823373520947246;3.0609593377951607;-0.1056856986491122;0.025811882948884875;0.504562063319486;0;53.734069139999995;86.8382125
0.0356887937187723;0.024739934584246483;-0.0356887937187723;0.01809560633154963;1.0137991945614309;0.01456219447755677;0.0002120575080021849;1.042847470295791;0.056774905636013506;5.078360657044447;1.034988508735608;1.0712012132147581;3.0609593377951607;-0.1056856986491122;0.030358887094625246;0.504562063319486;0;53.7341409;86.83785674
-0.0152951973080452;0.028468420519684172;-0.058121749770572;0.01717857054706124;1.0143241630545379;0.014846938938602644;0.0002204315958465954;1.042847470295791;0.056774905636013506;5.078360657044447;0.9850785619462734;0.970379773206138;3.0609593377951607;-0.1056856986491122;0.02854254607631361;0.504562063319486;0;53.734215070000005;86.83749315
-0.0193739165901906;0.03770705723726122;-0.0397675130009177;0.01923958061147268;1.0114704715362948;0.015463629385360863;0.00023912383376779596;1.042847470295791;0.056774905636013506;4.7828364835837744;1.1032169562293763;1.2170876525120096;3.9019627370452903;-0.1056856986491122;0.029564995137325016;0.504562063319486;0;53.73429401;86.83711897
-0.0356887937187723;0.04784971221043113;-0.061180789232181;0.020777740029675286;0.9987418998078355;0.01831265371895556;0.0003353532862303769;1.042847470295791;0.056774905636013506;3.9819068057836415;1.187875580951432;1.4110483958207025;3.5324565695885712;-0.1056856986491122;0.031086414118638446;0.504562063319486;0;53.734381150000004;86.83673507
-0.029060874885286;0.04819061562559903;-0.0530233506678902;0.02230182978118763;1.042847470295791;0.018376504793941584;0.00033769592844175804;1.042847470295791;0.056774905636013506;3.675930124834002;1.276115152922668;1.6284698835188443;3.356577771263452;-0.1056856986491122;0.03195482070193493;0.504562063319486;0;53.73448093;86.83633565
-0.0560823901294993;0.04747157463323606;-0.0530233506678902;0.02066826409347721;1.0002289832448155;0.016226567918751027;0.0002633015064218401;1.042847470295791;0.047943512756808526;3.512015538982429;1.1719590928605617;1.3734881153385505;3.1926631854118788;-0.1056856986491122;0.025015264106661366;0.4123213019143796;0;53.73459691000001;86.83593963
0.0723972672580809;0.04416863720137277;-0.0152951973080452;0.02433271470165616;0.9949039575389825;0.016263571539378636;0.00026450375921648674;1.042847470295791;0.047943512756808526;3.512015538982429;1.3789813101341186;1.9015894536992102;3.743275838170896;-0.1056856986491122;0.02184196077911526;0.3733767091252314;1;53.734736420000004;86.83554666
-0.1009483022330988;0.05068425881107493;-0.0081574385642908;0.022683961167993354;1.0399184540576654;0.025922948341909013;0.0006719992507372832;1.042847470295791;0.09311273704713618;3.512015538982429;1.290613541100029;1.6656833124707564;3.743275838170896;-0.1056856986491122;0.02272735928237693;0.3733767091252314;1;53.73489834000001;86.8351505
0.0040787192821453;0.055678237605084044;-0.0056082390129499;0.025469382581205176;1.0061929593579644;0.025934104818706522;0.0006725777927476568;1.042847470295791;0.09311273704713618;3.853509435481896;1.4525343174696226;2.1098559434269424;4.084769734670363;-0.1056856986491122;0.01997955516320722;0.3844523645657027;0;53.73506318;86.83474958000001
-0.0163148771285816;0.055013408958161376;-0.0346691138982359;0.035646524809376474;1.0173425849669464;0.027633810120864424;0.000763627461795989;1.042847470295791;0.09311273704713618;6.751780546859036;2.081175488575227;4.331291414246335;6.983040846047503;-0.142504960590693;0.012802443589316337;0.3616312834625938;0;53.735222439999994;86.83435588
-0.0050983991026817;0.05493625909277381;0.0040787192821454;0.03657368498921369;1.0105237952071813;0.024004357791888965;0.0005762091930010204;1.0399184540576654;0.09018372080901049;6.751780546859036;2.1377973368887218;4.570177453608511;6.983040846047503;-0.2703722375433484;0.005113016495611752;0.23376400650993845;0;53.7353623;86.83394022
0.058121749770572;0.05194921498125231;-0.0356887937187723;0.036304197682029034;0.9497347332486549;0.02425721059031668;0.0005884122656229716;1.0399184540576654;0.09018372080901049;6.751780546859036;2.123133366178911;4.507695290582194;6.983040846047503;-0.3416147909496366;0.00287625951201574;0.16252145310365024;0;53.735481529999994;86.83351929
0.061180789232181;0.04557156377935646;-0.0672988681553992;0.036455989800707016;1.0013858074440343;0.025141518659513435;0.0006320959605066622;1.0399184540576654;0.09018372080901049;6.751780546859036;2.1334184210867635;4.551474159432339;6.983040846047503;-0.3416147909496366;0.003039466162176355;0.16252145310365024;1;53.735576679999994;86.83308452000001
-0.0224329560517997;0.03282901019773409;-0.1147139798103395;0.03627236166268012;0.9757223707542597;0.02173301723911457;0.00047232403831565104;1.022939116488793;0.07320438324013823;6.751780546859036;2.1216629294147493;4.501453586052775;6.983040846047503;-0.3416147909496366;0.002851266234909651;0.16252145310365024;0;53.735644730000004;86.83261497
-0.0275313551544814;0.034625767069005275;-0.0672988681553992;0.035832916887984435;0.9988772280091436;0.021634842538986388;0.00046806641168673494;1.022939116488793;0.07320438324013823;6.751780546859036;2.096581139703017;4.395652475358402;6.983040846047503;-0.3416147909496366;0.003820843643834048;0.19163329951290714;0;53.73568477;86.83214045
-0.0132558376669725;0.03449891610790056;-0.0428265524625267;0.036490079753802016;1.0104780072829813;0.022449232043783074;0.0005039680193556168;1.0249496738430883;0.07521494059443345;6.751780546859036;2.1357229517516108;4.561312526638613;6.983040846047503;-0.3416147909496366;0.013688127054531698;0.4148828782213802;0;53.735693420000004;86.83167038
-0.0152951973080452;0.03494608687374564;-0.0132558376669725;0.03434608494807938;1.022939116488793;0.022188611196044143;0.0004923344668092155;1.0249496738430883;0.07521494059443345;6.751780546859036;2.014123736405337;4.056694425551395;6.171467581821672;-0.3416147909496366;0.015222660604784548;0.4148828782213802;0;53.7356721;86.83118314000001
-0.0244723156928724;0.02879359480171064;-0.0101967982053635;0.03595682891161799;1.0067731135780675;0.01400200939529502;0.00019605626710593;1.0249496738430883;0.04922730308882861;6.751780546859036;2.106746742249339;4.438381835978204;6.403713671480575;-0.3416147909496366;0.04879401335349075;0.7472307721292413;0;53.73562303999999;86.83068352000001
-0.0356887937187723;0.012500034362144984;-0.0101967982053635;0.03494497112271154;1.0015037782463128;0.013987815002297213;0.000195658968538491;1.0249496738430883;0.04922730308882861;6.751780546859036;2.0526507679960324;4.213375175354702;6.403713671480575;-0.3416147909496366;0.08949000242765599;0.8706785752684731;0;53.73556575;86.83018591
0.0071377587437544;0.012606329476031292;-0.0173345569491179;0.020523475258421534;1.0249496738430883;0.009936580765849098;9.873563731624224e-05;1.0249496738430883;0.02940268188065487;3.863201809695928;1.1761463618256462;1.383320264435704;4.038755056324586;-0.3416147909496366;0.14458008551509235;1.0625834048044627;0;53.73550511999999;86.82967471999999
-0.0193739165901906;0.012444457794788021;-0.0173345569491179;0.012435170884692311;0.9955469919624335;0.011582629462021213;0.00013415730525448183;1.0294662672998574;0.03391927533742389;2.4290641599484224;0.7054942698718968;0.49772216482208076;2.60461740657708;-0.3567155527959549;0.18344449216520425;1.163745548465642;0;53.73545084;86.82917755999999
-0.0367084735393086;0.012322713325021965;-0.0061180789232181;0.007915938480954138;1.0071117992626046;0.012879666690302922;0.00016588581405329865;1.0294662672998574;0.036787144417653295;1.3537728957119617;0.4534364336746281;0.20560459938356543;1.5293261423406195;-0.4487447171877334;0.18131079756320925;1.0717163840738635;0;53.73539554;86.82865378
-0.0214132762312633;0.012715824839755632;-0.0122361578464362;0.008171765231017706;1.007745496368935;0.013448133703288071;0.00018085230010151255;1.0294662672998574;0.036787144417653295;1.3537728957119617;0.468784067711295;0.219758502139948;1.5293261423406195;-0.4487447171877334;0.15856319867760604;1.0717163840738635;0;53.73534183;86.82812391
-0.0152951973080452;0.012967719068847772;0.003059039461609;0.008253354788476244;0.9983883985012758;0.015572328022548225;0.00024249740004184074;1.0294662672998574;0.04504210397117847;1.3537728957119617;0.4730911003464008;0.22381518922696828;1.5293261423406195;-0.5332480904625437;0.12047604783750424;0.9872130107990532;0;53.73528822000001;86.82759926
-0.0142755174875089;0.011677696137591401;-0.0010196798205363;0.0082701348909297;1.0294662672998574;0.015534132510979048;0.00024130927286865624;1.0294662672998574;0.04504210397117847;1.3537728957119617;0.4740499450768676;0.2247233504273812;1.5293261423406195;-0.6199406261824008;0.08238531744705946;0.9005204750791962;0;53.735234909999996;86.82706467
-0.0224329560517997;0.012679431448464715;-0.023452635872336;0.008168937263556287;0.9926791228822041;0.01434815568835596;0.00020586957165730148;1.0294662672998574;0.04504210397117847;1.3537728957119617;0.47087637553769396;0.22172456103951538;1.5293261423406195;-0.6199406261824008;0.06155062086330048;0.9005204750791962;0;53.73517951;86.82653310999999
-0.0091771183848271;0.018777680677436816;-0.0035688793718771;0.007736026159996041;1.0271196985196724;0.014309373992297574;0.0002047581840514422;1.0294662672998574;0.04504210397117847;1.3537728957119617;0.4445531538980278;0.19762750664068357;1.5293261423406195;-1.0888455630788778;0.015387878684783751;0.43161553818271914;0;53.73511903;86.82600159
-0.0285510349750178;0.01896866373037964;-0.0061180789232181;0.007959600910756998;0.9844241633286789;0.016784289549662754;0.00028171237568691836;1.035701222152794;0.05127705882411504;1.3537728957119617;0.45743062128757084;0.20924277329153307;1.5293261423406195;-1.2122933662181097;0.012662419415973037;0.30816773504348727;0;53.73505164000001;86.82547852
-0.0193739165901906;0.019977225343500684;-0.0112164780258998;0.007959600910756998;1.00259522513281;0.018534347559605344;0.00034352203946024857;1.035701222152794;0.05127705882411504;1.3537728957119617;0.45855271793881297;0.2102705951290726;1.5293261423406195;-1.2181064324653157;0.017175755594147888;0.4086541374664039;0;53.7349803;86.82495406
0.0112164780258998;0.019744259537672344;-0.0010196798205363;0.007241402062185806;1.0115850821145367;0.018200978831854564;0.0003312756304376179;1.035701222152794;0.05127705882411504;1.3537728957119617;0.41715120311052123;0.17401512625655532;1.2970217795461043;-1.2181064324653157;0.017526580833902412;0.4086541374664039;0;53.734902090000006;86.82437153000001
-0.061180789232181;0.02065260726853637;-0.0132558376669725;0.008732016300373919;1.0175285760469246;0.01807103110655686;0.0003265621652541456;1.035701222152794;0.05127705882411504;1.3537728957119617;0.5031674112693766;0.25317744376352597;1.827277859460661;-1.2181064324653157;0.015781160046943063;0.4086541374664039;0;53.73482712;86.82378456
-0.0387478331803813;0.020662673732190738;-0.0015295197308045;0.011730504279947535;1.035701222152794;0.018046873323067335;0.0003256896367388395;1.035701222152794;0.05127705882411504;0.7464409894559533;0.66422407930188;0.4411936275244302;2.119600806941731;-1.2181064324653157;0.016109950173379142;0.4086541374664039;0;53.73475297;86.82321121
-0.0418068726419904;0.020110152547260854;-0.0122361578464362;0.020256897709809804;0.9859734430250474;0.020311559378120538;0.00041255944437091637;1.0424470871523381;0.058022923823659256;0.7464409894559533;1.1270366081111285;1.2702115160226373;3.4656163469956653;-1.2412849220304896;0.013994480489221587;0.38547564790123;0;53.734676150000006;86.82264543
-0.0244723156928724;0.020331258178657313;-0.0122361578464362;0.02799924351315017;1.0118923594062001;0.018861056933194096;0.00035573946863718905;1.0424470871523381;0.05647364412729072;0.7464409894559533;1.5608434343423314;2.436232226529564;4.384523267871643;-1.2547258524071534;0.013611390725765178;0.3720347175245662;0;53.73460023;86.82211127000001
-0.0035688793718772;0.020223578367695016;0.0081574385642908;0.027207602021278702;0.9870902258890276;0.01872473900472484;0.00035061585079506377;1.0424470871523381;0.05647364412729072;0.7464409894559533;1.5155911118584064;2.297016418344201;4.384523267871643;-1.1147281753940792;0.02012901481904443;0.5120323945376404;0;53.73452015;86.82160879
-0.0214132762312633;0.015482968731703541;0.0244723156928724;0.02700622641014465;1.0212173581873394;0.018896294209904997;0.00035706993486728906;1.0424470871523381;0.05647364412729072;0.7464409894559533;1.504281034638418;2.262861431172829;4.384523267871643;-1.1147281753940792;0.02103940820312667;0.5120323945376404;0;53.734448475;86.82115311499999
-0.0193739165901906;0.010893698722721383;0.049454471296013;0.026368358483615687;1.0424470871523381;0.019173824679977355;0.0003676355528585087;1.0424470871523381;0.05647364412729072;0.7110720925304519;1.4686944137354592;2.157063280937744;4.349154370946142;-1.1147281753940792;0.021438517926637524;0.5120323945376404;0;53.734386175;86.820747775
-0.0346691138982359;0.010072689992846152;0.0652595085143265;0.026339480919961234;1.0284561640856094;0.017394667916985337;0.00030257447194219903;1.0424470871523381;0.05647364412729072;0.7110720925304519;1.4671937457154112;2.152657487466419;4.349154370946142;-1.1147281753940792;0.018178666516554382;0.5120323945376404;0;53.734335375;86.820392335
-0.0254919955134087;0.008327211784305807;0.0020393596410727;0.03165613661672839;1.0047101433749277;0.015243655730878401;0.00023236904004154195;1.0424470871523381;0.05535686126331052;2.6597172840300867;1.7698032067342138;3.132203390566706;6.2977995624457765;-1.1147281753940792;0.010410542144903813;0.36399985323158135;0;53.734292995;86.82008627500001
-0.0265116753339451;0.008616311243539312;0.0040787192821453;0.030866772818821803;1.0062717167272257;0.015304892848340305;0.00023423974509917823;1.0424470871523381;0.05535686126331052;2.6597172840300867;1.7254013568728923;2.977009842298818;6.2977995624457765;-1.1147281753940792;0.009422606556199377;0.36399985323158135;0;53.734260885000005;86.81988264499999
-0.0295707147955541;0.015279705435602598;-0.0061180789232181;0.036660644888977904;1.0028000226859748;0.012650341899291557;0.0001600311501689715;1.0424470871523381;0.039647064466363346;2.9603282820176515;2.0569181634229197;4.230912331019116;6.598410560433341;-1.1147281753940792;0.01627353753151118;0.45167137035271687;0;53.734227365;86.819726245
-0.0285510349750178;0.017707102107516578;-0.0010196798205363;0.03709141314313741;1.0078486666355984;0.012455177652276404;0.00015513145034976557;1.0424470871523381;0.039647064466363346;2.9603282820176515;2.0797281843964397;4.325269320972912;6.598410560433341;-1.1147281753940792;0.02102397838598913;0.45167137035271687;0;53.73419133499999;86.819615975
-0.0214132762312633;0.018642766495623218;-0.0469052717446721;0.03400903544738399;1.0107989935149837;0.009434361760430117;8.900718182666605e-05;1.0284561640856094;0.0360059277538467;2.9603282820176515;1.9181173748537197;3.679174263715725;6.598410560433341;-1.1147281753940792;0.021897376130130104;0.45167137035271687;0;53.734146405000004;86.819540325
-0.0163148771285816;0.019697687641869122;0.0040787192821454;0.022622955163544477;1.0167598652974665;0.00693954682407269;4.815731012349735e-05;1.0167598652974665;0.024309628965703878;2.9603282820176515;1.2885024732489643;1.6602386235686977;3.1925657947151422;-1.1147281753940792;0.020288368821607616;0.45167137035271687;0;53.734087845;86.81948688499999
0.020393596410727;0.021730852561036663;-0.0520036708473539;0.02693126073186575;1.0069548615232429;0.006865042481987791;4.7128808279497085e-05;1.0167598652974665;0.024309628965703878;2.9603282820176515;1.5333208216279068;2.3510727420376796;4.8151012134637705;-1.1803064763219355;0.016820251819983215;0.38609306942486055;0;53.734017705;86.819452585
0.0081574385642908;0.021858071049927878;-0.0265116753339451;0.033049967740871565;1.0129219316571965;0.007022694236053196;4.931823433309479e-05;1.0167598652974665;0.024309628965703878;2.9603282820176515;1.8785521173034696;3.5289580574253483;5.729280133481204;-1.1803064763219355;0.015880069026038064;0.38609306942486055;0;53.733930199999996;86.81941884
-0.0356887937187723;0.02261861409742433;-0.0367084735393086;0.03335477139333163;0.9924502363317627;0.017136504446025214;0.00029365978462864194;1.0167598652974665;0.05733001455232356;2.9603282820176515;1.8968251876680813;3.597945792572052;5.729280133481204;-1.1803064763219355;0.017560385187461;0.38609306942486055;0;53.73382463;86.81938239
-0.0438462322830631;0.028917907176459354;0.003059039461609;0.03452301851979647;1.0145142945615386;0.017142489758624476;0.000293864955124545;1.0167598652974665;0.05733001455232356;2.9603282820176515;1.9642177857380378;3.8581515098096406;5.729280133481204;-1.1803064763219355;0.01771092324340136;0.38609306942486055;0;53.73369494999999;86.81933463
-0.0489446313857448;0.02992914195997156;0.0326297542571632;0.03164185492823518;1.0081416126214777;0.017242781063924927;0.00029731349881844803;1.0167598652974665;0.05733001455232356;2.9603282820176515;1.8015201873050788;3.2454749852677263;5.729280133481204;-1.1803064763219355;0.0166617058307037;0.38609306942486055;0;53.733537219999995;86.8192665
-0.0305903946160905;0.029889163931204058;0.0489446313857448;0.034016677755619;1.013167744460258;0.016621855229399678;0.00027628607126712137;1.0145142945615386;0.055084443816395656;2.9603282820176515;1.9382570796372118;3.7568405067637727;5.729280133481204;-1.1803064763219355;0.017231478297169766;0.38609306942486055;1;53.73335045;86.81917957
-0.0418068726419904;0.024966774744066566;0.0061180789232181;0.028519101543001663;0.959429850745143;0.017951761568646724;0.0003222657434175415;1.0236845240284327;0.06425467328328971;2.119723887005976;1.6254995250678457;2.642248705995792;4.888675738469528;-1.1803064763219355;0.016099192412395134;0.37023769589405897;1;53.73312009;86.81906953000001
-0.0805547058223717;0.029012832703573573;0.0214132762312633;0.026090489736860012;0.9997080536299965;0.026412594500563876;0.0006976251482512172;1.0236845240284327;0.08301234241164768;2.119723887005976;1.4901388927456962;2.22051391967337;4.888675738469528;-1.1803064763219355;0.016677418917759573;0.3846140566325109;1;53.732867799999994;86.81894012000001
-0.0040787192821454;0.03139006851839562;-0.0173345569491179;0.020957666000067706;1.0126986470390924;0.02717629265845072;0.0007385508826577623;1.0236845240284327;0.08301234241164768;0.9807907446528604;1.1862703444824;1.4072373301983923;3.7497425961164126;-1.1803064763219355;0.016097756305305064;0.3846140566325109;1;53.73260028;86.81879804
-0.0173345569491179;0.0335066937287603;0.037728153359845;0.021745467434274548;1.0011672197440904;0.028676987236603137;0.0008223695969682993;1.0310223640268201;0.09035018241003512;0.9807907446528604;1.230743153508103;1.51472870990707;3.7497425961164126;-1.1803064763219355;0.018062564071572973;0.3846140566325109;1;53.732316909999994;86.81863754999999
-0.0438462322830631;0.0321267025031823;-0.0035688793718772;0.02193589135244718;1.0236845240284327;0.02888941939430602;0.0008345985529401049;1.0310223640268201;0.09035018241003512;0.9807907446528604;1.2431224064419124;1.5453533173979315;3.7497425961164126;-1.1855840337814545;0.017856621428502386;0.37933649917299195;1;53.732027800000004;86.81845852000001
0.0275313551544814;0.033913148376097324;0.0152951973080452;0.019202014715600072;0.940672181616785;0.02865629524793401;0.0008211832573367651;1.0310223640268201;0.09035018241003512;0.9807907446528604;1.0944190934460811;1.1977531520993419;3.140445864694102;-1.1855840337814545;0.020568758742969137;0.37933649917299195;1;53.73172988;86.81825276
0.0066279188334862;0.03465915726111235;0.035178953808504;0.019212540570391713;1.017760378598262;0.02579439753048285;0.0006653509439605797;1.0310223640268201;0.09035018241003512;0.9807907446528604;1.095256781085033;1.1995874165127483;3.140445864694102;-1.1855840337814545;0.01970326449695346;0.37933649917299195;1;53.73142483;86.81802451
0.0152951973080452;0.03485228070405052;-0.0050983991026817;0.018626337460494517;1.0310223640268201;0.025734339993917367;0.000662256254922535;1.0310223640268201;0.09035018241003512;0.9807907446528604;1.0619087530953792;1.127650199900583;3.140445864694102;-1.1855840337814545;0.031023098243478733;0.5419548970113124;1;53.731125150000004;86.81776835000001
-0.0163148771285816;0.035177270721839016;-0.0040787192821454;0.0195310021627412;1.0137012455494723;0.026229710572307087;0.0006879977167069981;1.0310223640268201;0.09035018241003512;1.313630471019334;1.1108611531559787;1.2340125015910308;3.4732855910605753;-1.1855840337814545;0.06255532201717219;0.7979654547277788;1;53.73083973;86.81749317
-0.0540430304884266;0.03659693395908512;-0.0112164780258998;0.015720201693901783;0.9936825629361109;0.027561225122347266;0.000759621130244706;1.0353672439860866;0.09469506236930159;1.313630471019334;0.892514657553683;0.7965824139481681;3.294457387253425;-1.1855840337814545;0.11390333227374394;1.00902725655351;1;53.73055693;86.81714637
-0.0509839910268175;0.03625726958996089;0.0050983991026817;0.018517243918201216;1.0240215509276942;0.029875278010064177;0.0008925322361786242;1.0483622748765076;0.10769009325972256;1.313630471019334;1.0386254248119884;1.0787427730658832;3.294457387253425;-1.1855840337814545;0.22363464498111651;1.4128487729294905;0;53.73030809000001;86.81677721
-0.0815743856429081;0.03139779636895816;0.0010196798205363;0.021843862068045148;1.0026107808452898;0.016706114002254604;0.00027909424505632736;1.0483622748765076;0.05467971194039667;1.313630471019334;1.2146643072546057;1.475409379318311;3.61933433285983;-1.1855840337814545;0.4320164787639835;1.9271213134057295;0;53.73007667;86.81638195000001
0.0010196798205363;0.029167715056224296;-0.023452635872336;0.019757420331591072;1.0230082314557514;0.01811683493268678;0.00032821970797822;1.0483622748765076;0.05467971194039667;1.313630471019334;1.0950096823063147;1.1990462043445762;3.61933433285983;-1.1855840337814545;0.5808593212911538;1.9583081782958423;0;53.72986247;86.81596039000001
-0.0540430304884266;0.024351698590677946;-0.0010196798205363;0.023597566322645782;1.0353672439860866;0.018381194762920997;0.0003378683209124343;1.0483622748765076;0.05467971194039667;1.313630471019334;1.3230277031210282;1.7504023032257034;4.075100735004956;-1.1855840337814545;0.7112868604798347;2.293542516738936;1;53.72965421;86.81546285
-0.0367084735393086;0.023395980135198582;0.0326297542571632;0.02338412612836298;1.0483622748765076;0.022440902149118026;0.00050359408926629;1.0483622748765076;0.07030858709552124;1.313630471019334;1.3148900271818453;1.728935783582274;4.075100735004956;-1.1873607187171349;0.761470863236274;2.4700465122761734;1;53.729458820000005;86.81492442000001
-0.0244723156928724;0.029250625453367648;0.0418068726419904;0.02192937297368202;1.039163804682709;0.03654816945072085;0.0013357686901986046;1.0483622748765076;0.12522914822373954;1.313630471019334;1.2292950003355445;1.5111661978499666;4.075100735004956;-1.4526342638400458;0.6987096587451822;2.3046577130022614;0;53.729288;86.81436704000001
-0.0173345569491179;0.04544949476073465;0.0142755174875089;0.025943232208517308;1.000557933721833;0.03646691925191236;0.0013298361997254964;1.0483622748765076;0.12522914822373954;1.6290057233364148;1.4555523254564058;2.1186325721415504;4.390475987322037;-1.7275389307927669;0.5792757372739928;2.02975304604954;0;53.729154730000005;86.81380369
-0.0239624757826042;0.04559845935066574;0.0484347914754766;0.033052589290836494;1.0053281602803845;0.036470383666477285;0.0013300888847800534;1.0483622748765076;0.12522914822373954;2.9964699313020646;1.8602523464953953;3.460538792641624;5.757940195287687;-1.9835494885092333;0.4034635480818855;1.7737424883330737;0;53.729060849999996;86.81326437
-0.0418068726419904;0.04201502268634084;0.0244723156928724;0.03673977443575229;0.9780536877809863;0.03797778391704361;0.0014423120712496562;1.0483622748765076;0.12522914822373954;2.9964699313020646;2.0570404106079807;4.2314152508742495;5.757940195287687;-2.1946112903349646;0.2680678330861226;1.5626806865073424;1;53.72900370999999;86.81275923
-0.0948302233098807;0.04291750714912397;0.0071377587437544;0.03764323758543087;0.923133126652768;0.03915171568135351;0.0015328568407935424;1.0483622748765076;0.12522914822373954;2.9964699313020646;2.113618022034987;4.4673811430710915;5.757940195287687;-2.3401162435579206;0.23843002458757528;1.4171757332843864;1;53.72900130000001;86.81233442
-0.1519322932599164;0.04297675422262182;-0.029060874885286;0.036068906624213165;1.0222737731350873;0.03597201156161247;0.0012939856157887812;1.0443552558119806;0.1212221291592126;2.9964699313020646;2.031268455754107;4.126051539341676;5.757940195287687;-1.9654298041796776;0.36188806169835386;1.7918621726626294;1;53.72904989999999;86.81194526
-0.0836137452839808;0.04145626054921584;-0.0530233506678902;0.03249777871704276;1.0143267257106905;0.033376115197186425;0.0011139650656558588;1.0443552558119806;0.1212221291592126;2.9964699313020646;1.8396500593794873;3.3843123409749514;5.757940195287687;-1.8197212676363437;0.5334464336663943;1.9375707092059633;0;53.72914237;86.81159484999999
-0.0795350260018354;0.03891415251190871;-0.0509839910268175;0.03177574940023949;1.0443552558119806;0.03340831108015785;0.0011161152492285978;1.0443552558119806;0.1212221291592126;2.9964699313020646;1.7987894295143296;3.2356434117324877;5.757940195287687;-1.541148217548463;0.7385923013726996;2.216143759293844;0;53.729281730000004;86.81127597
-0.0328846742122973;0.04364387961316578;-0.0224329560517997;0.02791189199773981;0.9679851807162525;0.035796202277265536;0.0012813680974749103;1.0443552558119806;0.1212221291592126;2.9964699313020646;1.5713745877261904;2.469218094951655;4.460894502239667;-1.3373086907914005;0.892355519813056;2.4199832860509067;0;53.72948398999999;86.81104303
-0.0356887937187723;0.04974365201627048;-0.0091771183848271;0.026115716867344728;1.0009844209419525;0.034976152650598294;0.0012233312542379539;1.0443552558119806;0.1212221291592126;2.9964699313020646;1.4625169198380736;2.1389557408126465;4.460894502239667;-0.9834890469648124;0.9933952356218266;2.7738029298774944;0;53.72973212000001;86.81085083999999
-0.0499643112062812;0.04785409562020851;-0.0040787192821454;0.026485571316282777;1.0066533072187416;0.03767564006130536;0.0014194538540290376;1.1090620119172911;0.14107683120103864;2.9964699313020646;1.4749680864026729;2.175530855906363;4.460894502239667;-0.6775049890174263;0.9834074994989996;3.044612794385957;0;53.73001329;86.81067121000001
-0.0479249515652085;0.04329946322900468;0.0010196798205363;0.02583725496544778;1.0024723265183837;0.03779462582742485;0.0014284337414350494;1.1090620119172911;0.14107683120103864;2.9964699313020646;1.4392138892537274;2.0713366190208404;4.460894502239667;-0.246008367414352;0.8991675461335729;3.0492604880653986;0;53.73029874;86.81049074
0.0081574385642908;0.04003750341112424;0.0265116753339451;0.028788829846683933;1.03738528611337;0.04963283102410903;0.0024634179154677596;1.1090620119172911;0.190881665174631;4.2352170774217335;1.6978746613216449;2.8827783655580905;5.699641648359336;0.0731099788704982;0.8405624933711263;2.8791616067755132;1;53.73057788999999;86.81028861
0.0152951973080452;0.047646692314256944;0.0091771183848271;0.03489037978202075;1.000974682853387;0.0483225194612688;0.002335065887084702;1.1090620119172911;0.190881665174631;4.703938201953645;2.030224318566507;4.121810783698837;6.168362772891247;0.3466059385389813;0.8244566900382903;2.686722182096902;1;53.73084021999999;86.81006454000001
-0.0601611094116447;0.05370109351393991;0.0112164780258998;0.04345854846234828;1.1090620119172911;0.046342781017885734;0.00214765335247171;1.1090620119172911;0.190881665174631;5.530682168709206;2.5037016970714374;6.268522187918396;6.9951067396468085;0.4364769328634937;0.7988205636924234;2.4019067370431713;1;53.73107828999999;86.80982901
0.0499643112062812;0.051825086858592315;-0.0142755174875089;0.04803453827731648;1.0108195660791102;0.046289877730304775;0.002142752780286566;1.1090620119172911;0.190881665174631;5.530682168709206;2.756497955283753;7.59828097748351;6.9951067396468085;0.4491252919575558;0.7411726542737624;2.2688465595938996;1;53.73128034;86.80958562
-0.0010196798205363;0.04926330606315778;-0.0678087080656673;0.04954779549054166;0.9181803467426601;0.04629690010947489;0.002143402959746696;1.1090620119172911;0.190881665174631;5.530682168709206;2.834697935887554;8.035512387725158;6.9951067396468085;0.4491252919575558;0.5798767469100812;1.990273509506019;1;53.731450699999996;86.80933358
0.0856531049250535;0.051648234062936144;-0.0836137452839808;0.04753772281832925;1.0195926341843198;0.046326514177224616;0.0021461459158125936;1.1090620119172911;0.190881665174631;5.530682168709206;2.7162511928304927;7.378020542553074;6.9951067396468085;0.4491252919575558;0.4238343513660691;1.7864339827489562;0;53.73158307;86.80902307
0.0795350260018354;0.05497704091417317;-0.0968695829509534;0.04641880139272888;1.0050924560389827;0.04540965541709189;0.0020620368050990228;1.1090620119172911;0.190881665174631;5.530682168709206;2.658798547994109;7.069209718815584;6.628819233792971;0.5364448122400834;0.2729553651165464;1.5199338592048959;0;53.73168061;86.80868285
0.0071377587437544;0.055581124846726025;-0.0907515040277353;0.046814329865425997;1.0034240084881503;0.04533235699951744;0.002055022591131698;1.1090620119172911;0.190881665174631;5.530682168709206;2.680817657049516;7.186783310348456;6.628819233792971;0.6023540956094671;0.15825808782865453;1.2798590846268934;0;53.73174641000001;86.80832113
-0.0254919955134087;0.05164823406293614;-0.0825940654634444;0.05172101899788057;1.006065429741424;0.028804793586201242;0.0008297161335436603;1.0195926341843198;0.10141228744165964;5.530682168709206;2.970916306573771;8.826343700665937;7.984253319852585;0.6023540956094671;0.06077819032732931;0.8483624630238191;0;53.731780709999995;86.80794583
-0.0642398286937901;0.04944203033816569;-0.040787192821454;0.058806472421685144;1.0011625463268612;0.028489436672649117;0.0008116480019248843;1.0195926341843198;0.10141228744165964;5.530682168709206;3.3807933579134875;11.429763728911954;8.409191278159764;0.6023540956094671;0.08452156840338428;1.0186015941364541;0;53.73179711;86.80756031000001
-0.0499643112062812;0.05037488936451765;0.0193739165901906;0.06038785372344097;1.0109044234807105;0.007674178132016627;5.88930100019222e-05;1.0195926341843198;0.024650924111369932;5.530682168709206;3.4422780509372632;11.849278179964445;8.409191278159764;0.6023540956094671;0.2307507067719462;1.5230959820784866;0;53.73179543;86.80716951000001
-0.0265116753339451;0.040608356789517436;0.0122361578464362;0.06046241822354816;1.0099052256832626;0.007038849955201191;4.9545408691835813e-05;1.0173660912111744;0.022424381138224536;5.530682168709206;3.4506829563461054;11.907212865217497;8.409191278159764;0.6023540956094671;0.4320944094702159;1.861094601547354;0;53.73178555;86.80676795
0.0193739165901906;0.026559783232899044;0.0428265524625267;0.05711056664972557;1.0003911334908546;0.008611060115009754;7.415035630431178e-05;1.0224221307310133;0.027480420658063442;5.189025773158132;3.251618034296094;10.573019840959596;9.134949349635185;0.6023540956094671;0.6456559285877771;2.149887012015328;0;53.731771359999996;86.80635695999999
0.0040787192821454;0.026965824380787408;0.0499643112062812;0.04891641683252248;0.9949417100729498;0.011638758231718564;0.00013546069317639663;1.0224221307310133;0.03898429042191287;4.709060834549901;2.79360686330927;7.8042393067286575;8.752109157554557;0.6023540956094671;0.802385715225739;2.270179818760755;0;53.73175205;86.80592805
-0.0275313551544814;0.02878120427777967;0.0275313551544814;0.03434032425280325;1.0173660912111744;0.012408118263243327;0.00015396139883463262;1.0224221307310133;0.03898429042191287;2.3348665476914694;1.970098526216491;3.8812882030003895;6.3779148706961255;0.6023540956094671;0.9867266556769176;2.600299990839812;0;53.73172760999999;86.80548633000001
0.0020393596410727;0.023146769359324828;0.0489446313857448;0.021206997924550025;1.015763356617868;0.013163665608747661;0.00017328209225892595;1.0224221307310133;0.03898429042191287;-0.6942209413003603;1.2248386461896505;1.500229709199696;3.3488273817042953;0.6023540956094671;1.062916554152793;2.6907622879252613;0;53.731699549999995;86.80507939
-0.0254919955134087;0.02629075019894245;0.0703579076170082;0.01977261745024023;1.0224221307310133;0.0137514162263563;0.00018910144823049534;1.0224221307310133;0.03898429042191287;-0.6942209413003603;1.13586594152078;1.2901914371068877;3.3488273817042953;0.6023540956094671;0.9479887762237281;2.72012592400482;1;53.73166621;86.80467485
0.0107066381156316;0.026959397289689806;0.0693382277964719;0.014111098152379068;0.9834378403091004;0.013945197956639708;0.0001944685460498683;1.0224221307310133;0.03898429042191287;-1.5506935627916103;0.8125027142114785;0.6601606606010195;2.492354760213045;0.2306136031559873;0.6543788173158198;2.387778104724605;1;53.73162296;86.8042732
0.0152951973080452;0.034908586381359116;0.0693382277964719;0.014729972170411514;0.992651889720404;0.013912428789169316;0.00019355567481370718;1.0224221307310133;0.03898429042191287;-1.5506935627916103;0.850004155116758;0.7225070637157535;2.492354760213045;-0.4162474985269871;0.3683748042072395;1.790243472615781;1;53.73157005;86.80387725
0.0040787192821454;0.049944769301964106;0.058121749770572;0.01891346496810324;0.9908040503624556;0.013831062978022217;0.0001912983031020168;1.0224221307310133;0.03898429042191287;-1.0329634868525923;1.0898898433083886;1.1878598705467835;3.010084836152063;-0.9207418864690196;0.21530049151311056;1.4112104874694253;1;53.73150707;86.80348915
-0.0642398286937901;0.06293938759835556;0.0683185479759355;0.01809305243889278;1.0178907523157856;0.015429523853418649;0.0002380702063432151;1.0310395077392964;0.047601667430196004;-1.0329634868525923;1.04655745459157;1.095282505761186;3.010084836152063;-1.2587405059378869;0.13321607927096618;1.1173507648186989;1;53.73144301;86.80309229000001
0.020393596410727;0.0615428373045023;0.058121749770572;0.03059794686768476;1.0133960557459205;0.015275088923998842;0.0002333283416360721;1.0310395077392964;0.047601667430196004;1.3886174550863568;1.7508060628917168;3.065321869858394;5.431665778091013;-1.547532916405861;0.0725791598871269;0.8285583543507247;1;53.73138895999999;86.80269008
-0.0815743856429081;0.06361636313729462;0.037728153359845;0.04002219842178948;1.0094134963126318;0.014575867064873524;0.0002124559006928647;1.0310395077392964;0.047601667430196004;2.446489419844837;2.293696888483889;5.261045416240673;6.4895377428494925;-1.6678257231512876;0.04115400309653924;0.7082655476052981;1;53.73135057;86.80228561
-0.1310288569389212;0.06576756988923216;0.0183542367696543;0.03818077285520076;1.018116600263753;0.01313765127340346;0.00017259788098155954;1.0310395077392964;0.040235457376840866;2.446489419844837;2.1800329163717795;4.752543516464446;6.451947586659232;-1.7090721176888373;0.03723767592735937;0.6670191530677485;1;53.73133089;86.80187425
-0.1488732537983073;0.06512006081902844;0.0336494340776996;0.035709181491768396;1.0310395077392964;0.01330634675550195;0.00017705886397765725;1.03513574307028;0.04433169270782433;2.446489419844837;2.031564367854196;4.1272537807348195;6.294946955200551;-1.473870865898062;0.07865965146273472;0.9022204048585238;1;53.73132187;86.80143259
-0.0652595085143265;0.06455666324768976;-0.0244723156928724;0.03486201649314816;1.0098516877150703;0.012117773699739855;0.00014684043943810694;1.039591081523438;0.0363059333071043;2.446489419844837;1.969874014747282;3.880403633976575;6.294946955200551;-1.3936857090612516;0.12336793012691454;0.9824055616953342;0;53.73131498;86.80097514
0.0071377587437544;0.0644029367453179;-0.0428265524625267;0.0327571425969646;1.0032851482163336;0.012132459098494263;0.0001471965637766362;1.039591081523438;0.0363059333071043;2.446489419844837;1.8477187193410274;3.414064465803246;5.734403702634012;-1.261415009373755;0.1735110979471211;1.1146762613828307;0;53.731311819999995;86.80050861999999
0.0305903946160905;0.06031800943815194;0.023452635872336;0.029623604896652465;1.0265218599269057;0.013105675170441408;0.00017175872167312444;1.039591081523438;0.0363059333071043;2.446489419844837;1.6688658709509419;2.785113295224846;5.145009921740694;-0.9851249929176956;0.24657398889862556;1.3909662778388903;1;53.731317739999994;86.80003070000001
0.0081574385642908;0.06314154537329386;0.0163148771285816;0.028275361671181647;1.03513574307028;0.014657273999323013;0.00021483568109123042;1.039591081523438;0.042208685986131256;2.446489419844837;1.5896741112812014;2.527063780077677;5.145009921740694;-0.6382510670627536;0.3484335679364326;1.7378402036938323;0;53.73133401;86.79954520999999
-0.0907515040277353;0.06187971515934011;0.0489446313857448;0.02816175251758323;1.039591081523438;0.01484850605208427;0.0002204781319787832;1.039591081523438;0.042208685986131256;2.446489419844837;1.5825918399912224;2.5045969320068027;5.145009921740694;-0.4147412343178793;0.41959769387949114;1.9613500364387064;1;53.731361719999995;86.79905324
-0.0509839910268175;0.046705343083914705;-0.0132558376669725;0.02752422066753399;1.0240946539862432;0.014605269752095421;0.00021331390453147343;1.039591081523438;0.042208685986131256;2.446489419844837;1.549848627211685;2.4020307672699444;5.145009921740694;-0.3945105311761673;0.4020452263624193;1.8243361904473714;0;53.73139533;86.79856973
-0.0254919955134087;0.04322341386696251;0.0275313551544814;0.02619252057611415;1.0040662463261951;0.014352299000179354;0.00020598848659054926;1.039591081523438;0.042208685986131256;2.446489419844837;1.4737259355959005;2.1718681332480125;5.145009921740694;-0.117929003568746;0.3894060896563485;1.8561698957132353;0;53.73142235;86.79810011000001
0.0142755174875089;0.04349319271315836;0.0081574385642908;0.02115245168353512;0.9973823955373067;0.013375514199086504;0.00017890438008996468;1.039591081523438;0.042208685986131256;0.8558403069068872;1.1799101110627002;1.3921878701879935;3.5543608088027447;-0.117929003568746;0.3338203484070113;1.5911431141200914;0;53.731436529999996;86.79764069000001
0.0509839910268175;0.042232884733904845;0.003059039461609;0.02187603384066384;1.0265594625338672;0.014865743912419899;0.0002209903420696493;1.039591081523438;0.042208685986131256;0.8558403069068872;1.2227177571025432;1.4950387135338739;3.5543608088027447;-0.117929003568746;0.2458993400719732;1.355941862329316;0;53.73143498;86.79720394
0.0295707147955541;0.04438230523849793;0.0265116753339451;0.02453101849826746;1.009245068994585;0.014315102406104157;0.000204922156897249;1.039591081523438;0.042208685986131256;1.6445214093893998;1.370372423676989;1.8779205795743452;4.343041911285257;-0.117929003568746;0.22474440068576199;1.2757567054925056;0;53.731427280000005;86.79680968
0.0244723156928724;0.03495798600229287;-0.0122361578464362;0.022049618306557328;1.0190275266534161;0.011993217655388586;0.00014383726972952448;1.0303969278498;0.033014532312493294;2.241348422171886;1.2455854811340354;1.5514831908119067;3.81258756315564;-0.117929003568746;0.28770394317202863;1.6248476522882709;0;53.731422980000005;86.79644185999999
0.0163148771285816;0.03448937091665926;-0.0152951973080452;0.030805845782059124;1.0240027666601852;0.011939868635051216;0.00014256046302227977;1.0303969278498;0.033014532312493294;4.113664283269918;1.734258659127525;3.007653096758801;5.684903424253672;-0.117929003568746;0.384996646870162;1.7272379944819831;0;53.73142397;86.79608445
0.0020393596410727;0.043076159162616375;-0.0122361578464362;0.028813649126392917;0.9983436162090742;0.01659812441091408;0.00027549773396018184;1.054544667179681;0.05716227164237431;4.113664283269918;1.6126496033079354;2.6006387430492413;5.618929856597359;-0.117929003568746;0.487326989612414;1.7272379944819831;0;53.73142812;86.79574044
-0.0479249515652085;0.04241671956625374;-0.0295707147955541;0.027721833745035694;1.0303969278498;0.021668599599083224;0.0004695282085853896;1.054544667179681;0.0827571647223565;4.113664283269918;1.5496585576193351;2.4014416452028384;5.618929856597359;-0.117929003568746;0.5486195063004408;1.7272379944819831;0;53.73144119999999;86.7954028
-0.0305903946160905;0.037693535730403724;-0.0397675130009177;0.026503176639918778;1.0168396256056322;0.031487356101149805;0.0009914535942406157;1.054544667179681;0.11109614176626159;4.113664283269918;1.482712181569753;2.1984354133753365;5.618929856597359;-0.117929003568746;0.5779727659581787;1.859478113686588;0;53.73146582;86.79506134
-0.0479249515652085;0.035326015605579;-0.0734169470786173;0.021592186695326056;1.0234421261165274;0.03150242708152079;0.0009924029120265345;1.054544667179681;0.11109614176626159;4.113664283269918;1.2006468143539064;1.4415527728181838;3.9405026346488548;-0.117929003568746;0.5717252212066529;2.007529496212069;0;53.73149986;86.79472161999999
-0.0846334251045171;0.03266248797128547;-0.0428265524625267;0.02675939181945482;1.054544667179681;0.03267981650092263;0.001067970406533975;1.054544667179681;0.11109614176626159;4.113664283269918;1.5055859642987606;2.2667890958934285;5.57614620068189;-0.204073842232726;0.46986096638535535;2.242791791023952;0;53.731544389999996;86.79437191
-0.0061180789232181;0.026706182568866914;-0.0050983991026817;0.03119921256321393;0.9717875024573245;0.03241466067810061;0.0010507102268764016;1.054544667179681;0.11109614176626159;4.113664283269918;1.7630569702493606;3.108369880344855;5.770742713736475;-0.6536901077604829;0.28386151474531673;1.8251501655950935;1;53.731612919999996;86.79400524
-0.0428265524625267;0.02150640946996248;-0.023452635872336;0.03465782393775775;0.9434485254134194;0.034552637051882495;0.0011938847272391232;1.054544667179681;0.11109614176626159;4.113664283269918;1.9893558809217766;3.9575368209580577;5.770742713736475;-1.328467206687114;0.11986029272017783;1.1503730666684624;0;53.73169748;86.79366228
-0.058121749770572;0.02152493409066809;-0.003059039461609;0.0396511763189163;1.0121774580449583;0.033806726674347906;0.0011428947684340664;1.054544667179681;0.11109614176626159;4.691260573383291;2.2618176245451047;5.115818966702861;6.348339003849848;-1.7427766558570168;0.07369031749225408;0.7360636174985595;0;53.73179615;86.79334367
-0.0723972672580809;0.020815514739951104;0.0249821556031406;0.050222178541974326;0.9788343395939406;0.033115794459714375;0.0010966558426980493;1.054544667179681;0.11109614176626159;7.242826117763208;2.884372512890276;8.319604793116964;8.899904548229765;-1.6233583536905392;0.08256841647253682;0.8554819196650372;1;53.731909259999995;86.79306254000001
-0.0418068726419904;0.026455839178064544;0.0285510349750178;0.05378721112414072;0.9873291747021593;0.032046461277383455;0.0010269756804028372;1.054544667179681;0.11109614176626159;7.242826117763208;3.0891679147670885;9.542958405626441;8.899904548229765;-1.0326507844503396;0.17864617045192618;1.4461894889052367;0;53.732032489999995;86.79283249
-0.0489446313857448;0.03206348565720901;-0.0662791883348628;0.05868375733111798;0.9640656140675755;0.02412726100771531;0.0005821247237344197;1.02234178893;0.07889326351658055;7.242826117763208;3.372323081859225;11.372562968440501;8.899904548229765;-0.4442124560353645;0.40149336577166406;2.034627817320212;1;53.73216243;86.79265011
-0.0509839910268175;0.03526775583723644;-0.0836137452839808;0.058634200397135586;1.02234178893;0.02440320725481196;0.000595516524321307;1.02234178893;0.07889326351658055;7.242826117763208;3.363834646713478;11.315383530429989;8.899904548229765;-0.1065841359799062;0.6850841220323175;2.37225613737567;0;53.732292959999995;86.79252208
-0.040787192821454;0.03623348383907106;-0.1254206179259712;0.05810425555409101;0.9948114643081801;0.017967513003494907;0.0003228315235307586;1.02234178893;0.058276174862424424;7.242826117763208;3.336444950656459;11.131864908760981;8.899904548229765;0.1297452417569841;0.9627644730474945;2.6085855151125603;0;53.73242318;86.79245518
0.0020393596410727;0.03629003410225969;-0.1060467013357805;0.05508463115978889;1.0089555349526673;0.018293204131239468;0.00033464131738719676;1.02234178893;0.058276174862424424;7.242826117763208;3.160244008231547;9.987142191563395;8.899904548229765;0.3146630691393984;1.1710310868100486;2.793503342494975;0;53.732554519999994;86.79244828
0.0326297542571632;0.031312454523559664;-0.1142041399000713;0.04301500116522737;0.997207765565451;0.01685787301496419;0.00028418788258865774;1.02234178893;0.058276174862424424;7.242826117763208;2.4651919568315477;6.077171384026956;8.899904548229765;0.387379633780254;1.1685215205697659;2.8662199071358305;0;53.732686560000005;86.7924984
0.0193739165901906;0.029871185368826048;-0.0983991026817579;0.018987306530157337;1.0114084068007754;0.016528757614345305;0.0002731998282737779;1.02234178893;0.058276174862424424;7.269043697332234;1.0978363101480568;1.2052445638795006;3.3268684019777814;0.5405956305124601;1.0101367556217349;2.713704041913845;0;53.73280609000001;86.79261281000001
0.0010196798205363;0.02682811002686466;-0.0876924645661262;0.01618414947444264;1.011253549602022;0.010377344514964896;0.00010768927918227202;1.02234178893;0.031099187619157975;7.269043697332234;0.9682381621939204;0.9374851387286606;2.577783123948943;0.6380302222211811;0.8064895148618508;2.451526123558482;0;53.732919679999995;86.79274432000001
0.0142755174875089;0.030555630216383595;-0.1019679820536351;0.01768172048247533;1.015734695094718;0.009948678052502772;9.897619499235033e-05;1.0198986458376635;0.028656044526821578;7.269043697332234;1.0523960953335814;1.1075375414733684;3.1410623854957906;0.6380302222211811;0.5667229851038411;2.2613885759117203;0;53.73303197;86.79288733
0.0020393596410727;0.027804900631448998;-0.0876924645661262;0.019526288014563152;1.0041444262649535;0.009293980894096221;8.63780808598256e-05;1.0198986458376635;0.028656044526821578;7.269043697332234;1.1441328725000361;1.3090400299351839;3.8876744066761906;0.6380302222211811;0.2680376679970628;1.6706810066715208;0;53.73314719;86.79304095
-0.0244723156928724;0.027853885665143605;-0.1254206179259712;0.01954624602909673;0.991242601310842;0.00954665645471119;9.113864946427882e-05;1.0198986458376635;0.028656044526821578;7.269043697332234;1.144968468267447;1.310952793326704;3.8876744066761906;0.6380302222211811;0.12517251483417302;1.0822426782565455;0;53.733275490000004;86.79319741
-0.0193739165901906;0.028223475493153658;-0.0836137452839808;0.018526229669177226;0.9948381157820313;0.010052995784864705;0.00010106272425050754;1.0198986458376635;0.028656044526821578;7.269043697332234;1.085633118595511;1.178599268191415;3.8876744066761906;0.6380302222211811;0.10953341403541107;0.9603017090264029;0;53.733420509999995;86.79335778999999
0.0662791883348628;0.032701592698619115;-0.0734169470786173;0.01977059062531645;1.0198986458376635;0.015458699119637603;0.0002389713784714844;1.0198986458376635;0.05045712704925698;7.269043697332234;1.1415397450641054;1.3031129895610225;3.8876744066761906;0.6380302222211811;0.18080670639681737;1.3143454055082453;0;53.73357695;86.79352191000001
0.0423167125522584;0.03728464217563085;-0.0593963495462424;0.020846866334727192;1.0070288485828578;0.03765319877017602;0.001417763377626385;1.0198986458376635;0.12663700697847036;7.269043697332234;1.2973580839063017;1.6831379978770304;3.8876744066761906;0.6380302222211811;0.33635175135083756;1.740806812230536;0;53.73373726;86.79368734
0.0010196798205363;0.044346141249380466;-0.078515346181299;0.020148551734442844;0.9983003941848813;0.03669071699787066;0.001346208713817835;1.0198986458376635;0.12663700697847036;7.269043697332234;1.2763987226518487;1.629193699187271;3.8876744066761906;0.6380302222211811;0.5129539827711769;2.019754066763708;0;53.73390451;86.79384947
-0.0142755174875089;0.048257693385277314;-0.0718874273478127;0.020184499159865806;1.0192592433347085;0.04145435979150162;0.001718463945723266;1.0506537625269678;0.15739212366777466;7.269043697332234;1.273928613270225;1.6228941117085982;3.8876744066761906;0.6380302222211811;0.6108969523730968;2.019754066763708;1;53.734089129999994;86.79402641
0.061180789232181;0.048257693385277314;-0.0601611094116447;0.017223590675225515;0.9694415187884066;0.04146249955643953;0.0017191388694677485;1.0506537625269678;0.15739212366777466;6.686427875426416;1.1104126819806415;1.233016324303441;3.305058584770373;0.6380302222211811;0.6182321766114273;2.058711466185199;1;53.73427502;86.79419693999999
-0.0438462322830631;0.04916486001670509;-0.1040073416947078;0.018180497703832076;0.8932616388591932;0.04245241939923449;0.0018022079128485007;1.0506537625269678;0.15739212366777466;6.686427875426416;1.144861446565628;1.310707731832342;3.305058584770373;0.5202354282667218;0.5276624915089184;2.038397982964523;0;53.73446226;86.79436882
-0.0683185479759355;0.04451982377934358;-0.0734169470786173;0.01798596329982566;0.9931461600758767;0.04261344105970732;0.0018159053589491493;1.0506537625269678;0.15739212366777466;6.686427875426416;1.1250871998653658;1.2658212073008894;3.305058584770373;0.0703853183462207;0.3896567979499156;1.7026264680700864;0;53.73465069;86.79454189
-0.0601611094116447;0.038670385337809886;-0.0887121443866625;0.016737888870149542;1.0506537625269678;0.04341562550150279;0.0018849165376867393;1.0506537625269678;0.15739212366777466;6.686427875426416;1.063697346625953;1.1314520452190926;3.1285093238927035;-0.1723148638529539;0.2947995357452036;1.4784630295350925;0;53.73483496;86.79471336
-0.0244723156928724;0.03959957212130681;-0.1121647802589986;0.017756699307024983;0.997755532048911;0.04413937410656191;0.0019482843465190279;1.0506537625269678;0.15739212366777466;6.686427875426416;1.1284699426914306;1.2734444115580006;3.1285093238927035;-0.3222714868052218;0.24041029852013374;1.6659631155258543;0;53.7350099;86.79489342
-0.037728153359845;0.03885654342950805;-0.0989089425920261;0.017319221645624393;1.0231317120155021;0.04383782123092507;0.001921754570274545;1.0506537625269678;0.15739212366777466;6.686427875426416;1.0985202774341314;1.2067467999339612;3.1285093238927035;-0.6763151832870642;0.20718167898273945;1.6673016312421345;0;53.735172950000006;86.79508463
-0.0652595085143265;0.030052457181373785;-0.0876924645661262;0.024102244005807117;1.0224806033887546;0.04260345286849752;0.001815054196318289;1.0506537625269678;0.15739212366777466;6.686427875426416;1.474442707216668;2.1739812968644165;5.113767718044472;-1.102776590009355;0.18126178071825616;1.2688005066233734;0;53.735324000000006;86.79527664
-0.0367084735393086;0.03183590891289261;-0.0693382277964718;0.023091739647880662;1.024726980715336;0.01889173903897781;0.00035689780391683827;1.0506537625269678;0.061214343498738555;6.454669451207642;1.3155814821076963;1.7307546360646826;4.882009293825698;-1.365333142847125;0.18126270503254716;1.0146415803363773;0;53.735469310000006;86.79546803
-0.0749464668094218;0.0321608463047566;-0.0652595085143265;0.022987442192870137;1.0245109627269946;0.024745492130856545;0.0006123393807982833;1.0710643251520942;0.08162490612386486;6.454669451207642;1.3132309814751149;1.7245756107060932;4.882009293825698;-1.365333142847125;0.21594863660688482;1.24080623839754;0;53.735608549999995;86.79565335
-0.0438462322830631;0.03146946435648907;-0.0825940654634444;0.032113889218477576;0.9894394190282293;0.02256664261176554;0.0005092533587671523;1.0710643251520942;0.08162490612386486;6.454669451207642;1.8263575253981053;3.335581810578291;5.992787772927672;-1.420681243964018;0.2134863262748331;1.185458137280647;0;53.73573616;86.79581168
0.0295707147955541;0.032546489234816005;-0.0275313551544814;0.04877486239323326;1.0031592247125691;0.03437053437641317;0.0011813336333201996;1.0710643251520942;0.13633767680957942;5.547603761628733;2.814622622749375;7.92210050849257;8.98734230158431;-1.5181625546978013;0.19423340647169843;1.147812657163516;0;53.73586904;86.79596248
-0.0091771183848271;0.03319180074231411;-0.0917711838482716;0.04827693107917378;1.0055640677711586;0.034322495212521516;0.0011780336776135623;1.0710643251520942;0.13633767680957942;5.23629304649054;2.7826297726049796;7.74302845138764;8.676031586446115;-1.6322411497238658;0.1965292922892252;1.3614870127958025;0;53.73600742;86.79610342
-0.0713775874375446;0.03459777120502098;-0.0815743856429081;0.047771754737754885;1.0710643251520942;0.03585936020477411;0.0012858937142957367;1.0710643251520942;0.13633767680957942;5.23629304649054;2.7504527506862306;7.5649903337574536;8.676031586446115;-1.6507778933880464;0.21983529114743985;1.6551171810037735;1;53.73616753;86.79624817000001
-0.0275313551544814;0.03645523716582434;-0.0081574385642908;0.04662612268454163;1.0119298634544809;0.03568119768279925;0.001273147868078999;1.0710643251520942;0.13633767680957942;5.23629304649054;2.6875349530604487;7.222844123921629;8.676031586446115;-1.988234602331076;0.23066669213938104;1.5840448114241448;1;53.73633714;86.79638706
-0.0081574385642908;0.036637436348089907;0.0560823901294993;0.04573756251791344;0.9347266483425147;0.04279873118054966;0.0018317313906649534;1.0710643251520942;0.13633767680957942;5.23629304649054;2.6344565660414077;6.940361398358685;8.676031586446115;-2.3436168145291987;0.2570573243775991;1.3422975636272891;1;53.73650984;86.79651112
-0.0132558376669725;0.03864034938614542;-0.0081574385642908;0.047578259940594864;1.0218377288878164;0.045335879930358626;0.002055342009059894;1.0710643251520942;0.13633767680957942;5.23629304649054;2.6958121791896397;7.267403305467194;8.676031586446115;-2.3715770966327283;0.30772635777166085;1.445637895315571;1;53.73669248;86.79661184
-0.0764759865402263;0.04138666448933503;-0.0020393596410727;0.04931428563609455;1.044917113762289;0.05139462743909706;0.0026414077296035886;1.0878669585376175;0.15314031019510277;5.23629304649054;2.7815794559118574;7.737184269550904;8.676031586446115;-2.3799747231835022;0.34168976404718504;1.5980999412769599;1;53.736883680000005;86.79669296
-0.0693382277964719;0.038112934636758966;-0.0458855919241358;0.04079639722570396;1.0179826806476373;0.051343509749791995;0.002636155993426986;1.0878669585376175;0.15314031019510277;4.36799015405572;2.282333706627998;5.209047148410296;7.8077286940112955;-2.5949542294621306;0.3560774132761115;1.5978108037352987;0;53.73707851;86.79675979
-0.0764759865402263;0.038112934636758966;-0.0163148771285816;0.033392849209430156;0.9352620934376592;0.04843078787242125;0.002345541213943465;1.0878669585376175;0.15314031019510277;2.5834838728702683;1.921733349618002;3.6930590670340258;6.023222412825843;-2.5949542294621306;0.3812011773507315;1.7863883349743679;0;53.737275079999996;86.79680788
-0.07545630671969;0.0363536473086033;0.0458855919241358;0.033585901606959435;1.0549926943075483;0.04844239651552344;0.0023466657801671977;1.0878669585376175;0.15314031019510277;2.5834838728702683;1.9325375017412507;3.734701195636315;6.023222412825843;-2.6659752118613174;0.35850267739650515;1.8647429409975071;1;53.73747275000001;86.79684427
-0.1376567757724074;0.02998467489663069;0.0254919955134087;0.027004354804517707;1.0878669585376175;0.041409572780980605;0.00171475271790333;1.0878669585376175;0.1526048650999583;2.5834838728702683;1.4954971730352076;2.236511794556298;5.076278730198734;-2.9937281625196683;0.24733090988503836;1.5369899903391562;1;53.73767893;86.79688404999999
-0.0744366268991536;0.022538025410642443;-0.0112164780258998;0.028513024576636823;1.032624070334552;0.043076787101491536;0.0018556095869872277;1.0878669585376175;0.1526048650999583;2.5834838728702683;1.5901302150618584;2.528514100852672;5.076278730198734;-3.30589507439182;0.15121634890632019;1.2248230784670047;1;53.73789404;86.79692252
-0.0713775874375446;0.03084032813048162;-0.0387478331803813;0.028499650689459255;1.0035975568095634;0.042295154636214416;0.0017888801057012896;1.0878669585376175;0.1526048650999583;2.5834838728702683;1.5891341787141655;2.5253474379575453;5.076278730198734;-3.5722794137552207;0.09556423315867091;0.9584387391036038;1;53.738095339999994;86.7969395
-0.0825940654634443;0.03655725575506856;-0.0137656775772407;0.030072440339736915;1.0104093215061776;0.04227961545744922;0.0017875658832297789;1.0878669585376175;0.1526048650999583;3.1212152492764766;1.681434450928623;2.82722181276964;5.614010106604942;-3.685914378156488;0.06990794831428097;0.8448037747023367;1;53.73830023000001;86.79694471
-0.0917711838482716;0.04151167075276132;-0.0112164780258998;0.031225862032341893;0.9842641363087643;0.03392315080974861;0.0011507801608609477;1.0878669585376175;0.10639560072863996;3.1212152492764766;1.7477993351431835;3.0548025159269545;5.614010106604942;-3.5444133748226103;0.084911036611653;0.9863047780362142;1;53.73850333;86.79694813
-0.0509839910268175;0.04305791814584983;0.0214132762312633;0.03412877989800233;0.9814713578089775;0.03784696845024163;0.0014323930208735855;1.0878669585376175;0.10639560072863996;3.1212152492764766;1.886434925314525;3.5586367274464172;6.310653584588692;-3.0284766410901782;0.19409568787920176;1.5022415117686463;1;53.738710530000006;86.79695309
-0.147853573977771;0.037944977799936885;-0.0040787192821454;0.03402537940488221;1.0323697973262347;0.03011046297946149;0.0009066399808375209;1.0813059064909982;0.09983454868202069;3.1212152492764766;1.892654959913782;3.58214279728624;6.310653584588692;-2.8325972371618797;0.33250291147496963;1.6981209156969448;1;53.73892042;86.79696074
-0.0244723156928724;0.038149935049536315;-0.0550627103089629;0.03495984487527859;1.0112797677578873;0.030097319502389086;0.0009058486412288904;1.0813059064909982;0.09983454868202069;3.1212152492764766;1.9424628571705462;3.773161951487162;6.310653584588692;-2.2768618290178466;0.5714310662105156;2.253856323840978;1;53.73913768;86.79697064000001
-0.0214132762312633;0.03857934641001929;-0.0336494340776995;0.03805472928843985;0.9878555796038488;0.03011428953571244;0.0009068704342407196;1.0813059064909982;0.09983454868202069;3.613483318855006;2.1229606076215464;4.506961741512845;6.802921654167222;-1.791128933361592;0.8502860582963115;2.7395892194972324;1;53.73936108;86.79698668
-0.0418068726419904;0.03765493636461509;0.0601611094116447;0.03820073792472891;1.0813059064909982;0.03504802298806006;0.0012283639153715864;1.0813059064909982;0.09983454868202069;3.613483318855006;2.1290916757284832;4.53303136365632;6.802921654167222;-1.386649736296843;1.0775636605882175;2.932026042374927;1;53.7396033;86.79700874
-0.0392576730906495;0.03957476652811918;0.0244723156928724;0.03823776667392595;0.9993378570887258;0.0353013606846296;0.0012461860661863123;1.0813059064909982;0.09983454868202069;3.613483318855006;2.1312954639976627;4.542420354857012;6.802921654167222;-1.0493817782654569;1.2804646758815643;3.0936693986141544;1;53.73984044;86.7970206
-0.0469052717446721;0.0399359770969424;-0.0316100744366268;0.041055955990956794;1.0324468411074157;0.034271092277472784;0.0011745077658910548;1.0813059064909982;0.09933041530862696;3.613483318855006;2.298909598752192;5.284985343234965;6.802921654167222;-0.6347776414487163;1.5034097916232312;3.508273535430895;0;53.740097750000004;86.79701679
-0.0397675130009177;0.01921111239975954;-0.0632201488732537;0.04186638069686247;1.0030902969241504;0.04835224186681697;0.0023379392935471677;1.0813059064909982;0.17260354406658063;3.613483318855006;2.353483995434287;5.538886916765335;6.802921654167222;0.0414044171607951;1.6892006564014754;3.9525388099968835;0;53.740358119999996;86.79701092
-0.0571020699500356;0.020264666715555844;-0.0214132762312633;0.038872260931665854;1.0693451847769078;0.04881949327698337;0.002383342923821425;1.0813059064909982;0.17260354406658063;3.613483318855006;2.184722000776946;4.773010220678822;6.802921654167222;0.4117741079255135;1.761802605129267;3.956187482748124;1;53.740617670000006;86.79699654999999
0.003059039461609;0.020376594660034494;-0.0061180789232181;0.03695954507715773;0.9819754911823713;0.04902625108398818;0.0024035732953502516;1.0813059064909982;0.17260354406658063;3.613483318855006;2.069570455360076;4.283121869699312;6.802921654167222;0.6353708210414919;1.7112740094651866;3.6638474621316703;0;53.74088616;86.79696552
-0.0285510349750178;0.033183576802024654;0.0448659121035994;0.03554705190411946;0.9915362590131911;0.045092563148472715;0.0020333392512989997;1.0693451847769078;0.16064282235249017;3.613483318855006;2.0089783823072724;4.0359941405779445;6.386164226788685;0.891259036234443;1.6472837659769501;3.723856273396323;0;53.74114934000001;86.79692406000001
-0.0020393596410727;0.034411948895782335;0.0173345569491179;0.03640017344125589;0.9087023624244176;0.04916878731826794;0.002417569646349066;1.0693451847769078;0.16064282235249017;3.613483318855006;2.046548405665236;4.18836037673092;6.386164226788685;0.891259036234443;1.2959801429649564;3.1681208652522894;1;53.74140857;86.79687353
-0.0091771183848271;0.03496149712384946;0.0214132762312633;0.03471590096021115;0.9842667772297913;0.051506872306796424;0.0026529578948286323;1.0693451847769078;0.16064282235249017;3.613483318855006;1.948931841693962;3.7983353235686184;6.386164226788685;0.891259036234443;0.9800962092966589;2.682387969596035;1;53.74167121000001;86.79680336999999
-0.0392576730906495;0.0333927194724531;0.0122361578464362;0.024898197303711345;1.028659477014068;0.0594967281113585;0.0035398606559569165;1.0693451847769078;0.16064282235249017;1.1474053284192955;1.4266149848673775;2.035230315048148;4.636422249630794;0.891259036234443;0.6953612486002725;2.277908772531286;1;53.741934490000006;86.79671336999999
0.0550627103089629;0.03721361828058224;0.0509839910268175;0.020039295704406393;1.0539647587466514;0.05564986771183312;0.0030969077763445263;1.0683417647343696;0.159639402309952;0.3569766985742346;1.173619686362545;1.3773831682177184;3.8459936197857325;0.891259036234443;0.4299713922471538;1.9406408144999;1;53.742178030000005;86.79659595000001
0.0173345569491179;0.03745448063111845;0.0356887937187723;0.025168230516541906;1.0683417647343696;0.055363630424984586;0.003065131573834279;1.0683417647343696;0.159639402309952;1.6000146093310263;1.4602239368285979;2.132253945687209;5.089031530542524;0.891259036234443;0.2034171231442762;1.5260366776831593;1;53.74241119;86.79645023
0.0295707147955541;0.034975827104733334;0.0336494340776996;0.028243934628277633;1.0634502829237016;0.06129610848499821;0.0037572129154046694;1.0683417647343696;0.159639402309952;1.6000146093310263;1.6472382337221596;2.7133937986361;5.089031530542524;0.891259036234443;0.07608895400186581;0.8498546190736479;1;53.742606980000005;86.79627738
0.0122361578464362;0.035320946243125255;0.0560823901294993;0.031465425891319086;0.9215406797812162;0.053610069920857095;0.0028740395969191865;1.0683417647343696;0.150482650983902;1.6000146093310263;1.8282321881515566;3.3424329337934284;5.089031530542524;0.891259036234443;0.10810797537597167;1.091760799303294;1;53.74278624;86.79607519999999
0.0846334251045171;0.03482886224413545;0.0499643112062812;0.03300296301535802;0.9817848829482718;0.05388835984028612;0.0029039553262761625;1.0683417647343696;0.150482650983902;1.6000146093310263;1.9147446629520484;3.6662471243033536;5.089031530542524;0.891259036234443;0.24335437617560046;1.5444908218307658;1;53.742951100000006;86.79584838000001
-0.0035688793718772;0.028537324677629792;-0.0280411950647496;0.03305752597880409;1.0042726851321149;0.05333169421607505;0.002844269607956933;1.0683417647343696;0.150482650983902;1.6000146093310263;1.9176044883598002;3.6772069737776514;5.089031530542524;0.891259036234443;0.4241032422837692;1.8903757216840553;1;53.743093220000006;86.79560906
0.0020393596410727;0.046754818556671456;-0.0163148771285816;0.03282219130014135;0.9178591137504676;0.050497283598169365;0.002549975650793945;1.0683417647343696;0.150482650983902;1.6000146093310263;1.9157038744236061;3.6699213344816153;5.089031530542524;0.7435355117673911;0.6196123615755241;2.159981236914493;0;53.74321029;86.79536517
0.040787192821454;0.050918122480222226;-0.020393596410727;0.03274356165492762;1.0033820415517605;0.0440813347280003;0.001943164071402005;1.0634502829237016;0.145591169173234;1.6000146093310263;1.920397809035103;3.6879277449468244;5.089031530542524;0.7435355117673911;0.8613726662709307;2.5476339819219094;0;53.743310789999995;86.79513031
-0.003059039461609;0.05348747429543149;-0.0122361578464362;0.032050872381705765;0.9779542849770017;0.036853132775214785;0.00135815339534761;1.018231483894166;0.10037237014369838;1.6000146093310263;1.8920858566508691;3.579988888938253;5.089031530542524;0.7435319673497429;1.129356756951194;3.071443027294045;0;53.74338765;86.79490765
0.0091771183848271;0.056037980424764954;0.0091771183848271;0.02726274603043735;1.0156840236374964;0.029802871299422398;0.0008882111376899353;1.018231483894166;0.10037237014369838;1.6000146093310263;1.5690047332117092;2.4617758528407467;4.517131551975115;0.5997716665485571;1.4588215468194032;3.614388589746623;1;53.743443760000005;86.79470776000001
-0.1009483022330988;0.04497020507023883;0.0489446313857448;0.021263305926539154;1.018231483894166;0.029950928150983158;0.0008970580971053555;1.018231483894166;0.10037237014369838;1.6000146093310263;1.2094907759528994;1.4628679371151467;4.355185611041642;0.3798040530696936;1.6239955253581424;3.60861383989435;0;53.74348162;86.79453314
-0.0565922300397675;0.045042752274446644;-0.0076475986540226;0.019589179053685634;1.0024436739373164;0.030094041552302338;0.0009056513369516998;1.018231483894166;0.10037237014369838;1.164608712245963;1.1152989917652887;1.2438918410326694;3.9197797139565784;0.1468523034804619;1.6441672927034618;3.5791009838548606;0;53.743508659999996;86.79438866
-0.0622004690527174;0.04354883810385799;-0.0040787192821454;0.018930255096148003;1.0088613669672333;0.011158323018611938;0.00012450817258768504;1.018231483894166;0.0402771989171643;1.164608712245963;1.0702190478933176;1.1453688104736792;3.9197797139565784;-0.200501763068851;1.5498666355345496;3.495866329634175;0;53.74352807;86.79428519000001
-0.0672988681553992;0.03210188055382664;-0.0061180789232181;0.01771492960459388;1.0097075329216778;0.011388345825813993;0.00012969442064833498;1.018231483894166;0.0402771989171643;0.7169031379736364;1.000493331676805;1.0009869067297534;3.472074139684252;-0.6532317855963228;1.396330287433016;3.3099609598168076;0;53.74353981;86.79421757
-0.0622004690527174;0.027153675608005648;-0.0010196798205363;0.022320405931619023;1.0119068731240042;0.004803424467637175;2.3072886616295483e-05;1.018231483894166;0.015787809956849586;2.4411688766216986;1.2631154844313113;1.5954607270101464;5.196339878332314;-0.9991166854496124;1.1115968895126864;2.964076059963518;0;53.743542260000005;86.79418161999999
-0.0642398286937901;0.014249191948781152;-0.0076475986540226;0.04183246043303023;1.008501102949543;0.008955265493496803;8.019678005901452e-05;1.018231483894166;0.03285799216095475;6.745047915317279;2.418889514109518;5.85102648146898;9.500218917027894;-1.416445725147102;0.807929860490202;2.5467470202660287;0;53.74354125;86.79417293
-0.0632201488732537;0.006895730071943513;-0.003059039461609;0.03688135692497573;1.0094299769870403;0.008126500105152217;6.604000395903899e-05;1.0150143087068435;0.0296408169736323;6.745047915317279;2.143464818476509;4.594441428046533;6.687312009365364;-1.8040984701545184;0.5131398080445565;2.159094275258612;0;53.74354337;86.79416737
-0.0540430304884266;0.006729758066856222;-0.0050983991026817;0.04230148969367036;1.0150143087068435;0.008246571300853277;6.800593822005693e-05;1.0150143087068435;0.0296408169736323;6.745047915317279;2.438962518288806;5.948538165617675;6.687312009365364;-2.3279110599443023;0.24279851126730648;1.6352816854688283;0;53.74355161;86.79414233
-0.0489446313857448;0.007765836110661774;-0.0428265524625267;0.0410553932066962;1.0054704869845705;0.013332596106283573;0.0001777581189332879;1.0150143087068435;0.04112986129497864;6.745047915317279;2.368629658208973;5.610406457747157;6.687312009365364;-3.0146169231980657;0.10736892188152672;0.9485758222150649;0;53.74357202;86.7941013
-0.0729071071683491;0.007765836110661774;-0.1157336596308759;0.039873262224993156;0.9853734917332112;0.015416094394510398;0.00023765596638045493;1.0150143087068435;0.04112986129497864;6.745047915317279;2.302946678974084;5.303563406197763;6.687312009365364;-2.607612820586134;0.17009885078675013;1.3555799248269964;0;53.743607280000006;86.79402904
-0.0571020699500356;0.007783481750568508;-0.0540430304884266;0.03735796641294388;1.0054239518594694;0.014965248429140736;0.00022395866054589927;1.0150143087068435;0.04112986129497864;6.745047915317279;2.15693012595438;4.652347568249577;6.571414951384772;-2.286337605431056;0.3124403244056486;1.6768551399820746;0;53.74365884;86.79392956000001
-0.061180789232181;0.013218309131340183;-0.0948302233098807;0.034724427390466224;1.012731501197992;0.015599387909125352;0.00024334090313936623;1.015762333005967;0.041877885594102215;6.745047915317279;2.006375710663399;4.025543492340059;6.571414951384772;-1.6062979813553144;0.6287411390478344;2.356894764057816;0;53.74372454;86.79379558000001
-0.0489446313857448;0.02312248748394664;-0.0418068726419904;0.03039570545967852;0.9738844474118649;0.015545725873405638;0.00024166959293107345;1.015762333005967;0.041877885594102215;6.745047915317279;1.7571337130030087;3.0875188853717397;6.457251007694183;-1.0818551358079112;1.028269092465606;2.8813376096052195;0;53.74380943;86.79362191
-0.0672988681553992;0.02349446947253384;-0.0560823901294993;0.024576011287477162;0.9777267367808326;0.016623179391857135;0.0002763300930938638;1.0234781910438557;0.04959374363199087;6.745047915317279;1.4284702740341804;2.040527323799286;4.386194785069668;-0.7569304515639763;1.3315555212863812;3.0921639343188065;0;53.74391245;86.79340493
-0.0627103089629856;0.023586487120754732;-0.0591414295911083;0.024760997523426406;1.0040130442448738;0.01726434992632923;0.00029805777837874406;1.0234781910438557;0.04959374363199087;6.745047915317279;1.4345874967255525;2.0580412857612873;4.386194785069668;-0.4817959628140612;1.5899439422763062;3.3672984230687217;0;53.744042279999995;86.79314052000001
-0.0254919955134087;0.025620885764785335;-0.0418068726419904;0.016562256709524072;1.015762333005967;0.017705596865229902;0.00031348816035403897;1.0234781910438557;0.04959374363199087;5.372937545029073;0.9328593412901498;0.8702265506322923;3.0251361063703888;-0.2654590984587595;1.6411734126567545;3.5368122708059078;0;53.74419173;86.79283941
0.0050983991026817;0.031090528408732648;-0.0652595085143265;0.01704082646456156;1.0085504600264708;0.021678646628583893;0.0004699637196470118;1.0421122777231493;0.06822783031128443;5.372937545029073;0.9677600824893767;0.9365595772598453;3.073760774755484;-0.0867692938761923;1.4860543430087894;3.308968869846857;0;53.744361070000004;86.79250699
-0.0346691138982359;0.029636325406532292;-0.0489446313857448;0.009804610172917535;1.0234781910438557;0.021665623085908452;0.0004693992237006493;1.0421122777231493;0.06822783031128443;3.709986449296474;0.5674213300135067;0.3219669657542969;1.7213997365587048;0.0375816773242907;1.2725245835433328;3.1775254957883288;0;53.74454433;86.79215009
-0.0540430304884266;0.036931597844763284;-0.040787192821454;0.01038150019653515;0.9853004177710513;0.02001809956973284;0.0004007243103837381;1.0421122777231493;0.06438554094231674;3.709986449296474;0.612993982266902;0.3757616222954351;1.7213997365587048;0.1094206200001056;0.9474525530685081;2.7170334405862397;0;53.74473547;86.79177546999999
-0.003059039461609;0.03777440102422223;-0.0418068726419904;0.010434778853885482;1.0205410862535507;0.018057719413853222;0.0003260812304294516;1.0421122777231493;0.05681185995209803;3.709986449296474;0.61096106600034;0.3732734241682718;1.7213997365587048;0.1295081224668127;0.6595665571730733;2.4158457278978687;0;53.74492779;86.79139179
0.0193739165901906;0.03305346309462015;-0.0418068726419904;0.009587159599096732;1.0421122777231493;0.01791237192964534;0.00032085306814594636;1.0421122777231493;0.05681185995209803;3.709986449296474;0.5615480090312465;0.31533616644695683;1.7213997365587048;0.1295081224668127;0.35252853899856373;1.735806103822127;0;53.74512138;86.79098378
-0.0214132762312633;0.0374043243172767;-0.0346691138982359;0.009709293944519332;0.9990978777558623;0.017900120868342133;0.00032041432710125747;1.0421122777231493;0.05681185995209803;3.709986449296474;0.5673188188941775;0.32185064227148447;1.7213997365587048;0.1295081224668127;0.18205375380376115;1.2113632582747238;0;53.74530852;86.79057444
0.0458855919241358;0.03806637747800992;-0.0601611094116447;0.007400780908882101;0.9858790573133446;0.023910358878455114;0.0005717052616965174;1.0421122777231493;0.08069857331552721;3.498522995204998;0.4573013804139512;0.2091245525285053;1.5099362824672287;0.1295081224668127;0.09149277819731867;0.886438574030789;0;53.74546947;86.79017731
0.0438462322830631;0.03488520571950011;-0.0397675130009177;0.007660805322445843;1.0254684271234291;0.023664627400418786;0.0005600145900006516;1.0421122777231493;0.08069857331552721;3.498522995204998;0.4780257950103097;0.22850866069523862;1.5099362824672287;0.1295081224668127;0.07044866645025294;0.7124880812379908;0;53.745598789999995;86.78981766999999
0.0132558376669725;0.04340212187121141;-0.0458855919241358;0.008869195685698113;1.0146864583901423;0.023063748885303954;0.0005319365126443594;1.0421122777231493;0.08069857331552721;3.498522995204998;0.5482784227983254;0.3006092289062193;1.5099362824672287;0.1295081224668127;0.15289682857534237;1.2002528276388222;0;53.745683029999995;86.78951791
0.0632201488732537;0.051757163822646515;-0.0397675130009177;0.009730687934346833;1.0081746152839617;0.022332958549405247;0.0004987610375694529;1.0421122777231493;0.08069857331552721;3.498522995204998;0.5898887942011289;0.34796878952406185;1.5099362824672287;0.1295081224668127;0.36141015704922985;1.7427291826710651;0;53.74572696;86.78927256
0.0305903946160905;0.05343842214032378;-0.0520036708473539;0.00953459702731882;0.9614137044076221;0.018249306468322044;0.0003330371865747408;1.0254684271234291;0.06405472271580703;3.498522995204998;0.5682614226446212;0.3229210444660888;1.5099362824672287;0.1295081224668127;0.5725121132083894;1.9389531290088582;1;53.74572653;86.78909804999999
0.0020393596410727;0.05472608920205524;-0.0520036708473539;0.009158215958197803;0.9894394190282293;0.018642367623761025;0.00034753787061945324;1.0254684271234291;0.06405472271580703;3.6524546152722936;0.5385847616837408;0.29007354551793185;1.4299755187482313;0.1295081224668127;0.8118119504270437;2.3215827243845517;0;53.74568187;86.78899195
-0.0897318242071989;0.052687185124205935;-0.0601611094116447;0.011883633259732353;0.9944650608427027;0.019201232488831304;0.0003686873290901508;1.0254684271234291;0.06405472271580703;3.6524546152722936;0.6834883313097658;0.46715629903660816;2.160727931949406;0.1295081224668127;1.124066505888534;2.911531998060697;0;53.74559345;86.78895729000001
-0.078515346181299;0.049631517935019326;-0.061180789232181;0.01173296613736486;1.00321674728638;0.018197161093204076;0.00033113667185202014;1.0189688558438337;0.05755515143621159;3.6524546152722936;0.6726835446477079;0.4525031512398048;2.160727931949406;0.1219477489462909;1.2853337765448472;3.0232358201563017;0;53.745465249999995;86.78899037
