acc_X;acc_X_std;acc_X_max;acc_Z;acc_Z_std;acc_Z_max;acc;acc_std;acc_var;acc_max;acc_range;fb_tilt_max;fb_tilt_var;fb_tilt_range;tilt_max;tilt_var;tilt_range;class;lat;lon
-5.327270333907153;3.837217077406572;2.3370551368191084;0.0734169470786173;0.10722326453800476;0.0815743856429081;5.616048148858415;1.9754596728870986;3.902440919203203;5.616048148858415;3.5662294774764334;-1.01458142143367;0.0003160830686683475;0.03262975425716319;0.0978892627714897;0.004885770854186103;0.13969613541348008;0.0;53.7277149;86.85389303333334
2.3370551368191084;3.837217077406572;2.3370551368191084;-0.1080860609768532;0.10722326453800476;0.0815743856429081;2.360239197768825;1.9754596728870986;3.902440919203203;5.616048148858415;3.5662294774764334;-1.01458142143367;0.0003160830686683475;0.03262975425716319;0.0978892627714897;0.004885770854186103;0.13969613541348008;30.0;53.7277149;86.85389303333334
-1.8361222705222289;2.297103947474054;2.3370551368191084;0.0815743856429081;0.09729975559227522;0.0815743856429081;2.0498186713819813;0.32453217444039634;0.10532113224701183;2.6986813622401713;0.64886269085819;-1.01458142143367;0.00012927520242685402;0.021413276231263323;0.0326297542571632;0.0016868161131676051;0.07443662689915359;0.0;53.72771096666667;86.8539915
1.9143481541985008;2.43940795637818;2.7414475302810306;-0.0509839910268175;0.07804603856568457;0.0815743856429081;2.6986813622401713;0.9066328708460215;0.8219831624984988;3.840600041124745;1.790781369742764;-0.9992862241256244;0.0003399972482057565;0.03670847353930884;0.0326297542571632;0.0018656525862299606;0.0805547058223717;0.0;53.72769233333333;86.85410086666667
2.7414475302810306;0.41386976404068576;2.7414475302810306;-0.0560823901294993;0.015227066914518353;-0.0509839910268175;3.840600041124745;0.7149434728946703;0.5111441694346921;4.01492508124167;1.3162437190014988;-0.9870500662791885;0.0006488020883192425;0.048944631385744786;-0.0346691138982359;4.4709118265589374e-05;0.013255837666972602;0.0;53.7276563;86.85420136666669
2.2997107649846056;0.24779765648264845;2.7414475302810306;-0.0795350260018354;0.019049191080115678;-0.0418068726419904;4.01492508124167;0.402644284322668;0.16212241969771354;4.6086262365135315;0.7680261953887864;-0.9666564698684612;0.0002717205327149028;0.03262975425716319;-0.0397675130009177;1.802228023109029e-05;0.008157438564290798;0.0;53.7275955;86.85429416666666
2.715162056219257;1.3002268555242638;2.715162056219257;-0.0418068726419904;0.02339344931520995;-0.0367084735393086;4.6086262365135315;0.34146016647666816;0.11659504529027392;4.6086262365135315;0.5937011552718614;-0.9666564698684612;0.0009361188250802809;0.060161109411644764;-0.0050983991026817;0.00048382890774234413;0.0407871928214541;0.0;53.72749803333334;86.85438443333334
0.2843035319961269;1.568656623763738;3.2173607911554662;-0.0367084735393086;0.04745986142598956;-0.0367084735393086;4.019501233820487;0.623253078855764;0.38844440030318916;5.26539543300484;1.2458941991843524;-0.9666564698684612;0.0012064530285466305;0.060161109411644764;-0.0050983991026817;0.0007707990621912406;0.0530233506678903;30.0;53.72737813333333;86.85445226666667
3.2173607911554662;1.8231459142419963;3.2173607911554662;-0.1213418986438258;0.04231773631479495;-0.0367084735393086;5.26539543300484;0.6696604618610538;0.44844513417995985;5.26539543300484;1.2458941991843524;-0.9299479963291526;0.003127905367030553;0.09686958295095338;0.0020393596410727;0.0010802970669289986;0.0601611094116447;30.0;53.72723956666667;86.85452703333334
-0.125191401634797;2.807607579799406;3.2173607911554662;-0.0795350260018354;0.033057132818287614;-0.0560823901294993;4.2168356739804445;0.5251881387276972;0.275822581060263;5.26539543300484;1.0485597590243954;-0.9299479963291526;0.003491816794773722;0.10706638115631706;0.0428265524625267;0.002578918984606566;0.1009483022330987;0.0;53.7270986;86.85453966666667
-2.361406776157544;1.1206467553061283;-0.125191401634797;-0.0560823901294993;0.029240700471096375;-0.0214132762312633;4.794590472817655;0.33557627755950653;0.11261143806069497;4.794590472817655;0.5846541031961632;-0.9299479963291526;0.0029289671198643005;0.10706638115631706;0.0428265524625267;0.00041901801537284455;0.040787192821454;0.0;53.726955333333336;86.85446466666666
-1.1127117633415338;0.6625691038294428;-1.1127117633415338;-0.0214132762312633;0.01742429641137468;-0.0214132762312633;4.2099363696214915;0.36441679497582324;0.1327996004604512;4.794590472817655;0.6692003540397282;-0.99214846538187;0.0006033998054293868;0.04486591210359969;0.0428265524625267;0.00015700178739776614;0.023452635872336102;0.0;53.726820233333335;86.85428689999999
-1.35291863694125;0.9796900879445348;-1.1127117633415338;-0.0418068726419904;0.023519042713716375;-0.0214132762312633;4.1253901187779265;0.3339074606632194;0.11149419228655942;4.741354385373166;0.6159642665952392;-0.99214846538187;1.0744051676234122e-05;0.006118078923218251;0.0509839910268175;0.00029563471225230533;0.0316100744366269;0.0;53.72668703333333;86.85404276666667
-2.916888683887538;0.7822361367374664;-1.35291863694125;-0.0683185479759355;0.05633211916766851;-0.0418068726419904;4.741354385373166;0.3179419898491107;0.101087108909212;4.741354385373166;0.6159642665952392;-0.99214846538187;0.00017710356150167785;0.02549199551340897;0.0509839910268175;0.00018958052473858262;0.027531355154481497;30.0;53.72657113333333;86.85376473333334
-2.1005759741397694;0.5892458524286279;-2.1005759741397694;-0.1498929336188436;0.04085511492149611;-0.0683185479759355;4.57012876356944;0.179302126654479;0.03214925262281883;4.928613518241461;0.3584847546720207;-0.9982665443050882;0.0003753486440436566;0.03874783318038144;0.0591414295911083;0.00011679823918994829;0.021413276231263295;30.0;53.72649833333333;86.85347006666666
-3.244841827485987;1.0932366315819968;-1.0591752815326283;-0.113184460079535;0.05886241053870523;-0.0346691138982359;4.928613518241461;0.6333007447346185;0.4010698332814224;4.928613518241461;1.2313003654455414;-0.99214846538187;0.0005063567580311998;0.04486591210359969;0.0591414295911083;0.0004162453568757531;0.040787192821453995;30.0;53.726492900000004;86.85319156666667
-1.0591752815326283;2.1096305888049316;0.97349460115852;-0.0346691138982359;0.03928525214305189;-0.0346691138982359;3.6973131527959193;0.7525208350236968;0.566287607144762;4.928613518241461;1.365174951475975;-0.99214846538187;0.0005063567580311998;0.04486591210359969;0.0591414295911083;0.0014643102687760666;0.07647598654022619;0.0;53.72655496666667;86.85294643333333
0.97349460115852;1.230052451869559;1.1572750559525018;-0.0713775874375446;0.024669790029739434;-0.0244723156928724;3.5634385667654858;0.08417478473621119;0.007085394385387493;3.6973131527959193;0.1553362724637939;-0.9839910268175792;0.00030811167548921677;0.033649434077699714;0.0183542367696543;0.0004570554241298076;0.038237993270113096;0.0;53.726668499999995;86.85271863333332
1.1572750559525018;0.13987205593844662;1.2480351349448922;-0.0244723156928724;0.06776844559320182;0.0622004690527174;3.5419768803321254;0.014257976846395787;0.00020328990375235835;3.568968619060328;0.026991738728202375;-0.9809319873559702;0.0004148590276272157;0.03670847353930873;-0.0173345569491179;4.245633323670299e-06;0.004078719282145399;0.0;53.72682403333334;86.8524987
1.2480351349448922;0.28086368090103025;1.2480351349448922;0.0622004690527174;0.07621722990057653;0.0622004690527174;3.568968619060328;0.08735833038006208;0.007631477886792076;3.568968619060328;0.1629884049326038;-0.9809319873559702;0.0013998459587187082;0.0662791883348629;-0.0132558376669725;1.8802090433396933e-05;0.0081574385642908;0.0;53.726998233333326;86.85227183333332
0.7225767916337872;0.27970879904594215;1.2480351349448922;-0.0897318242071989;0.08801398331265053;0.0622004690527174;3.405980214127724;0.10308640493049005;0.010626806881492964;3.5968202237272924;0.19084000959956837;-0.9809319873559702;0.0011024783349057093;0.0662791883348629;-0.0132558376669725;1.9755191791771958e-05;0.0081574385642908;0.0;53.727185899999995;86.8520243
1.1515322664869194;0.21993431343787342;1.1515322664869194;-0.0907515040277353;0.00796395398787285;-0.0764759865402263;3.5968202237272924;0.11528705585419069;0.013291105247527283;3.6134644138990146;0.20748419977129062;-1.0105027021515245;0.0003424233243906757;0.03670847353930862;-0.0132558376669725;1.3516710173317787e-05;0.007137758743754502;30.0;53.7273765;86.85176263333334
0.8527265554850917;0.47193084573769517;1.1515322664869194;-0.0764759865402263;0.007516177012167086;-0.0764759865402263;3.6134644138990146;0.028181793795604513;0.000794213501537973;3.6517778064246507;0.05495758269735829;-1.0105027021515245;7.90207671670578e-05;0.016314877128581484;-0.0040787192821454;6.966304473940577e-05;0.016314877128581602;30.0;53.72758243333333;86.85150776666667
0.2267633491928631;0.4178447913160077;0.8527265554850917;-0.0876924645661262;0.006789362820923476;-0.07545630671969;3.6517778064246507;0.05643263587339513;0.003184642391619203;3.6517778064246507;0.11109684059456537;-0.9666564698684612;0.0011669426449630721;0.060161109411644764;-0.0010196798205363;5.649291687822443e-05;0.014275517487508901;30.0;53.727793899999995;86.8512755
0.0602552682309514;0.12481971018376499;0.3045874710488837;-0.07545630671969;0.027189337465021786;-0.0356887937187722;3.5406809658300853;0.26275399674705874;0.06903966280655337;3.6517778064246507;0.5003653572804554;-0.9666564698684612;0.0020112171573272125;0.08769246456612634;-0.0010196798205363;5.458671416147396e-06;0.0045885591924136;30.0;53.72801826666666;86.85106466666667
0.3045874710488837;1.9964827504942586;3.6339509508637216;-0.0356887937187722;0.020145666717973597;-0.0356887937187722;3.1514124491441953;0.8352094518847505;0.6975748285176254;4.75284342414195;1.601430974997755;-0.9666564698684612;0.00201121715732722;0.08769246456612634;-0.0010196798205363;0.0012015142305986848;0.062200469052717394;30.0;53.728304533333336;86.85079626666668
3.6339509508637216;2.069127741942418;4.09773648857267;-0.0499643112062812;0.009067891351044754;-0.0331395941674313;4.75284342414195;1.0693770244908238;1.143567220508848;5.179835469309079;2.028423020164884;-0.9941878250229428;0.0009218223047046274;0.060161109411644764;-0.0056082390129499;0.0013236844956267492;0.06729886815539919;30.0;53.728585066666675;86.85054773333333
4.09773648857267;1.0450029051388112;4.09773648857267;-0.0331395941674313;0.020229361459398538;-0.0331395941674313;5.179835469309079;0.7000642667563172;0.49008997758906003;5.179835469309079;1.368280971303533;-0.9421841541755888;0.001474621092562134;0.07494646680942185;-0.0346691138982359;0.00039519048141347225;0.0382379932701132;30.0;53.728893166666666;86.85028410000001
2.1009724931113647;1.7918617683325258;4.09773648857267;-0.0734169470786173;0.02296544433477163;-0.0331395941674313;3.8115544980055462;1.0811669954478376;1.1689220720457045;5.179835469309079;2.134182417394988;-0.9421841541755888;0.001608055282734625;0.07494646680942185;-0.0091771183848271;0.0010289162391547864;0.063729988783522;30.0;53.72913690000001;86.85007556666666
0.5221455450525294;0.8039124631088002;2.1009724931113647;-0.0723972672580809;0.014432462353803273;-0.0723972672580809;3.0456530519140914;0.4032662443739108;0.16262366385143873;3.8115544980055462;0.7659014460914548;-0.9421841541755888;0.0011752606204543656;0.06220046905271748;-0.0091771183848271;0.0001667060921375837;0.025491995513408798;0.0;53.729485833333335;86.84977596666666
1.0483008832392082;0.27389767604103044;1.0483008832392082;-0.0978892627714897;0.02860560852269923;-0.040787192821454;3.2097037459269693;0.11636437613248846;0.013540668032703249;3.2097037459269693;0.22498524153469912;-0.9829713469970428;0.00012165039155985212;0.021413276231263434;-0.0091771183848271;2.322101491313536e-05;0.009177118384827201;0.0;53.729814866666665;86.8495162
0.6531996143794775;0.20317153326978232;1.0483008832392082;-0.040787192821454;0.04272932974356475;-0.0142755174875089;2.98471850439227;0.3819554277928504;0.14588994882041936;3.2097037459269693;0.7447157437863825;-0.9829713469970428;6.065190462386028e-05;0.015295197308045405;-0.0112164780258998;1.351671017331758e-05;0.007137758743754502;0.0;53.730138833333335;86.84930256666667
0.7685477165937544;0.1427868017918759;0.9371154029811144;-0.0142755174875089;0.02600350151379653;-0.0142755174875089;2.4649880021405868;0.2598674116519757;0.0675310716386974;2.98471850439227;0.5197305022516834;-0.9829713469970428;3.777747202286224e-05;0.01223615784643639;-0.0112164780258998;6.585063930590539e-06;0.005098399102681799;0.0;53.73034453333333;86.849184
0.9371154029811144;0.30379697534607264;0.9371154029811144;-0.0662791883348628;0.026016826393745477;-0.0142755174875089;2.72301785467129;0.1335022912932044;0.017822861780535597;2.72301785467129;0.25802985253070343;-0.9880697460997246;0.00010709393445012042;0.020393596410727022;-0.0061180789232181;2.7380002658771158e-05;0.010196798205363499;0.0;53.730503766666665;86.84901896666668
0.3472956975404776;0.5860846407920497;0.9371154029811144;-0.0418068726419904;0.039055201391262485;0.0101967982053635;2.534555205624948;0.0987661161475324;0.00975474569886786;2.72301785467129;0.18846264904634236;-0.9941878250229428;6.342456312093779e-05;0.014275517487508882;0.0040787192821454;0.00010397469364090394;0.020393596410726997;0.0;53.730620666666674;86.84879453333333
-0.2350459272657301;0.353907693687386;0.3472956975404776;0.0101967982053635;0.029181376611102663;0.0101967982053635;2.577545828236152;0.1370809596358139;0.018791189494675644;2.790544489688175;0.2559892840632272;-0.9941878250229428;5.2333929132573426e-05;0.014275517487508882;0.0050983991026817;3.847063664713393e-05;0.0112164780258998;0.0;53.7306822;86.84850620000002
-0.2923154124272377;1.233437425231374;-0.2350459272657301;0.0071377587437544;0.053300424131348605;0.0101967982053635;2.790544489688175;0.6219010823933016;0.38676095628196;3.7452975071388903;1.1677516789027385;-0.9941878250229428;8.664557803399513e-06;0.005098399102681617;0.0418068726419904;0.00046199422207775253;0.037728153359845;0.0;53.7306812;86.84820653333334
-2.3994811756138623;2.184548339189869;-0.2923154124272377;-0.0836137452839808;0.04779460240749653;0.0071377587437544;3.7452975071388903;1.409271492764152;1.9860461403177017;5.564543176244418;2.7739986865562427;-0.9880697460997246;3.153899040440147e-05;0.011216478025899757;0.0805547058223717;0.0014237601382561188;0.07545630671969;0.0;53.730634933333334;86.84789573333335
-4.660508930824247;3.0959525318153096;-2.3994811756138623;-0.0122361578464362;0.035863169970569965;-0.0122361578464362;5.564543176244418;2.643183732965771;6.986420246214868;8.953410731959522;5.208113224820632;-0.9880697460997246;0.000591962589128866;0.04486591210359958;0.1549913327215254;0.0033088213339657183;0.113184460079535;0.0;53.730557866666665;86.84760533333333
-8.522046871398333;2.716619237406617;-3.2812244584500982;-0.0540430304884266;0.03491317791011783;-0.0122361578464362;8.953410731959522;2.4879111261641347;6.1897017716912925;8.953410731959522;4.8497131367162964;-0.9880697460997246;0.0009278008495889609;0.05812174977057205;0.1549913327215254;0.0024915802419482095;0.0948302233098807;30.0;53.73046083333333;86.84732910000001
-3.2812244584500982;2.624321688309434;-3.2812244584500982;-0.0815743856429081;0.015472612323333888;-0.0540430304884266;4.103697595243226;2.4255681006801852;5.883380611037281;8.953410731959522;4.8497131367162964;-0.9952075048434792;0.0006997496882032341;0.0509839910268175;0.1549913327215254;0.002248192813250458;0.0948302233098807;30.0;53.730329866666665;86.84709573333333
-6.1496846482890914;1.739836203114279;-3.2812244584500982;-0.0800448659121035;0.009010377717828493;-0.0652595085143265;6.630307304992192;1.5294638710615402;2.3392597328825517;6.860308088491634;2.7566104932484086;-0.9952075048434792;0.0006501884175677408;0.0509839910268175;0.1152238197206077;0.0008897634408320387;0.055062710308963;30.0;53.730161366666664;86.84687603333333
-6.421339117307879;2.4145309454920723;-2.110044011132717;-0.0652595085143265;0.007804603856568489;-0.0652595085143265;6.860308088491634;1.957017844969873;3.8299188455305258;6.860308088491634;3.4987972630592017;-0.9952075048434792;0.00023428964300413517;0.02651167533394516;0.1152238197206077;0.0018238027720394968;0.0774956663607627;30.0;53.729982166666666;86.84668829999998
-2.110044011132717;2.472724983841616;-2.110044011132717;-0.0683185479759355;0.014504325681215392;-0.0652595085143265;3.3615108254324326;2.006029231654885;4.024153278253888;6.860308088491634;3.4987972630592017;-1.0196798205363515;1.3863292484987332e-06;0.0020393596410728243;0.1152238197206077;0.001975865761489323;0.0774956663607627;30.0;53.729801933333334;86.84650806666666
-2.1674405263923364;1.4852991677290484;-2.110044011132717;-0.0917711838482716;0.05455366453607699;0.0122361578464362;3.4105350514945907;1.1326110920853016;1.2828078859146597;5.347303419855261;1.9857925944228283;-1.01458142143367;1.3516710173273964e-05;0.007137758743754441;0.0836137452839808;0.0006865795603421054;0.0458855919241358;30.0;53.7296277;86.84635943333335
-4.710875640692692;1.299019285205693;-2.1674405263923364;0.0122361578464362;0.05482695540276319;0.0122361578464362;5.347303419855261;1.022608631494004;1.0457284132060396;5.347303419855261;1.9367683683606702;-1.0013255837666972;8.976481884328222e-05;0.01835423676965431;0.0836137452839808;0.0005297727254949164;0.0448659121035995;30.0;53.72938526666667;86.84617673333332
-2.980293534337775;1.2122117850698726;-2.375147096337869;-0.06984806770674;0.04144154922554947;0.0122361578464362;3.8098133974459576;1.0373492670506768;1.0760935018505764;5.347303419855261;1.975133766455473;-1.0013255837666972;0.0008259056498208601;0.055062710308962926;0.0836137452839808;0.00043922809644929446;0.0397675130009177;30.0;53.72912350000001;86.84599176666666
-2.375147096337869;0.5256626941682081;-2.375147096337869;-0.0387478331803813;0.03394298530063696;-0.0020393596410727;3.372169653399788;0.3563681664282885;0.12699827004346032;4.078172985562043;0.706003332162255;-0.9207708779443254;0.004652174375806211;0.1356174161313347;0.0550627103089629;3.4073373561902945e-05;0.011216478025899798;30.0;53.7288595;86.8458131
-3.422241735817148;1.160073526333796;-2.375147096337869;-0.0020393596410727;0.018691039848907326;-0.0020393596410727;4.078172985562043;0.8538319818658218;0.729029053256917;5.071743497643903;1.6995738442441146;-0.9207708779443254;0.0051949222766117156;0.1356174161313347;0.0846334251045171;0.00044397194184665984;0.040787192821454;30.0;53.72866193333332;86.8456838
-4.691738300504738;2.041672565533161;-0.6959538016442156;-0.0265116753339451;0.04129808177171155;0.0540430304884266;5.071743497643903;1.5009823916183285;2.252948139948277;5.071743497643903;2.9500397573077453;-0.9207708779443254;0.004005451781359838;0.11012542061792596;0.0846334251045171;0.0013644945628808031;0.0734169470786173;30.0;53.728488199999994;86.84556126666666
-0.6959538016442156;2.104535767951357;-0.6959538016442156;0.0540430304884266;0.06423645664820976;0.0540430304884266;2.1217037403361574;1.5284513013056298;2.336163380462873;5.071743497643903;2.9500397573077453;-0.921790557764862;0.003136223342521854;0.10910574079738944;0.0846334251045171;0.0014362371014930275;0.0734169470786173;30.0;53.72831686666667;86.8454326
-3.8394865159496008;2.119133558275018;-0.6959538016442156;-0.0729071071683491;0.07092518821917214;0.0540430304884266;4.29058182793216;1.5341865786267348;2.3537284580384066;5.085813301798003;2.964109561461846;-0.921790557764862;0.0013922211478517776;0.07443662689915365;0.0825940654634444;0.0013738522853084848;0.0713775874375446;0.0;53.728133066666665;86.8453
-4.72959600233388;2.620282970373895;0.1879778700717801;-0.0642398286937901;0.02408869934417969;-0.0275313551544814;5.085813301798003;1.6244262009543002;2.6387604823468203;5.085813301798003;3.1256162179208458;-0.9319873559702252;0.0010629679513222492;0.06423982869379041;0.0825940654634444;0.0020337450076160866;0.0856531049250534;30.0;53.72793933333333;86.84516599999999
0.1879778700717801;2.4920639694127944;0.1879778700717801;-0.0275313551544814;0.019885935184133906;-0.0275313551544814;1.9601970838771576;1.5651482517566142;2.449689049976786;5.085813301798003;3.1256162179208458;-0.9319873559702252;0.0014442084946722064;0.0672988681553992;0.0825940654634444;0.0018840214487731847;0.0856531049250534;0.0;53.7277468;86.8450332
-2.9738374368325995;2.1473191930659907;1.1240390532358997;-0.0591414295911083;0.01855144835185099;-0.0265116753339451;3.6711928901441158;0.8705229620215622;0.7578102274067942;3.6711928901441158;1.7109958062669581;-0.9319873559702252;0.002928967119864313;0.10706638115631728;0.0520036708473539;0.0014289588729381629;0.0723972672580809;0.0;53.7275678;86.84491393333333
1.1240390532358997;2.199256113249192;1.1240390532358997;-0.0265116753339451;0.018838797403964543;-0.0265116753339451;2.536767226787569;0.6639120897322615;0.4407792628926584;3.6711928901441158;1.1648302673480613;-0.890180483328235;0.00594146057695347;0.14887325379830751;0.0520036708473539;0.0014857983721285237;0.0723972672580809;0.0;53.72732023333333;86.84481143333333
0.4592028850369506;4.71790515686721;1.1240390532358997;-0.0265116753339451;0.0005887124188755008;-0.0254919955134087;2.5063626227960545;3.086303156093667;9.525267171313729;7.867133948196456;5.3607713254004015;-0.890180483328235;0.006627693554983506;0.14887325379830751;0.1172631793616804;0.005766783091636699;0.1376567757724074;0.0;53.72709233333334;86.84472006666665
-7.359721365698591;3.916546689679926;0.4592028850369506;-0.0254919955134087;0.04562806098228425;-0.0254919955134087;7.867133948196456;2.7495137920498083;7.559826092672117;7.867133948196456;5.3607713254004015;-0.890180483328235;0.0018968449943223668;0.08259406546344461;0.1172631793616804;0.0038720175911872803;0.1244009381054348;30.0;53.726893366666665;86.84460643333334
-3.0424215418856053;2.616810832188197;-2.639082291471011;-0.1050270215152442;0.04061262394203171;-0.0254919955134087;4.125580826708541;2.151705319910033;4.629835783729137;7.867133948196456;3.7415531214879154;-0.9075150402773527;0.0020382505776739526;0.08667278474559004;0.1172631793616804;0.0015651657216077478;0.0713775874375446;30.0;53.726824;86.84448586666667
-2.639082291471011;0.31008340495480247;-2.639082291471011;-0.0509839910268175;0.03150024062838835;-0.0499643112062812;4.1551369958370765;0.3495881641880194;0.1222118845403496;4.745322115336412;0.6197412886278713;-0.9727745487916796;0.0006283537319032169;0.049964311206280754;0.058121749770572;3.743088971072336e-05;0.012236157846436203;30.0;53.726806966666665;86.84439203333334
-3.248726475800989;2.932119165270718;2.107156779568033;-0.0499643112062812;0.011491207983669491;-0.0499643112062812;4.745322115336412;0.3291087948902806;0.1083125988741328;4.745322115336412;0.5901851194993357;-0.9941878250229428;0.0002623628102872299;0.028551034975017542;0.058121749770572;0.0026607124102707427;0.09483022330988061;30.0;53.7268221;86.84435596666667
2.107156779568033;2.723919608351287;2.107156779568033;-0.0703579076170082;0.010213778730374042;-0.0499643112062812;4.197843065925387;0.5821585503627794;0.33890857776049277;4.745322115336412;1.1636416266939826;-0.9952075048434792;0.00023532938994059435;0.02753135515448113;0.058121749770572;0.0023314592137412124;0.09483022330988061;30.0;53.7268413;86.84435810000001
0.2924069118217456;0.9308473622648507;2.107156779568033;-0.0591414295911083;0.016578292237867092;-0.037728153359845;3.5816804886424296;0.3545754099683133;0.1257237213541975;4.197843065925387;0.6161625772829571;-0.9952075048434792;6.896988011515898e-05;0.015295197308045294;-0.0050983991026817;0.00026444230416003417;0.0316100744366269;30.0;53.7268555;86.84438936666668
1.55956320102407;0.6563775437784938;1.55956320102407;-0.037728153359845;0.012079368916023842;-0.037728153359845;3.585740523372885;0.06613127477413126;0.00437334550325165;3.585740523372885;0.11651876614984635;-0.9972468644845518;4.609544751415655e-05;0.013255837666972692;-0.0050983991026817;0.00013447393710890287;0.0224329560517997;30.0;53.7268684;86.84442786666666
1.2230214918671038;1.686400141861798;4.297645916456102;-0.058121749770572;0.012079368916023842;-0.037728153359845;3.4692217572230386;1.066640110943328;1.1377211262731948;5.372198167831125;1.9029764106080864;-1.0013255837666972;2.5300508785972685e-05;0.009177118384827265;-0.0214132762312633;0.0008758135027685564;0.05404303048842671;30.0;53.72687893333333;86.84447253333333
4.297645916456102;1.6117827916865153;4.297645916456102;-0.0591414295911083;0.010903106578529251;-0.0397675130009177;5.372198167831125;1.040889978959554;1.0834519482984208;5.372198167831125;1.9029764106080864;-0.971754868971143;0.00030187319387079916;0.030590394616090588;-0.0214132762312633;0.0008134286865840132;0.05404303048842671;30.0;53.726896833333335;86.84449043333332
1.9215579364375823;2.296243265928996;4.297645916456102;-0.0397675130009177;0.01118553595860394;-0.0397675130009177;3.689706248174582;1.2073371695557595;1.4576630409909126;5.372198167831125;2.3412142355563237;-0.971754868971143;0.0002426076184954883;0.030590394616090588;0.0050983991026817;0.0016244312969830642;0.0805547058223717;30.0;53.72692320000001;86.84448266666668
-0.2939041837844184;1.1903664690896882;1.9215579364375823;-0.0591414295911083;0.010415385912133908;-0.0397675130009177;3.0309839322748013;0.45612049732243376;0.2080459080776643;3.689706248174582;0.875896982150592;-0.971754868971143;0.00011645165687786281;0.02039359641072691;0.0050983991026817;0.00041000687525729853;0.0377281533598449;0.0;53.726956666666666;86.84446493333333
0.0590337340714923;0.40922647751243335;0.0590337340714923;-0.0560823901294993;0.003580997842647384;-0.0560823901294993;2.81380926602399;0.19548042720379816;0.038212597419779434;3.0309839322748013;0.390126256746107;-0.9880697460997246;4.609544751417147e-05;0.01325583766697258;0.0132558376669725;5.129418219617782e-05;0.014275517487508799;0.0;53.7269791;86.84445323333334
-0.7569467957419432;0.6213587189906764;0.4627649757304861;-0.0632201488732537;0.004444681292485698;-0.0550627103089629;2.6408576755286943;0.313203371429414;0.09809635187475148;2.81380926602399;0.607872828354997;-0.9880697460997246;0.00010709393445016095;0.020393596410727022;0.0132558376669725;0.00011887773306276572;0.0214132762312633;0.0;53.726987933333334;86.84446206666667
0.4627649757304861;1.0494641305217087;1.3322171308207331;-0.0550627103089629;0.03321924264401783;-0.0020393596410727;2.205936437668993;0.2698006257259705;0.07279237764212523;2.6408576755286943;0.4940646148705232;-1.0013255837666972;1.698253329470031e-05;0.007137758743754441;0.0132558376669725;0.00033999724820575465;0.0367084735393085;0.0;53.7269823;86.84448203333334
1.3322171308207331;1.2414952841102194;1.3322171308207331;-0.0020393596410727;0.029008651362430738;-0.0020393596410727;2.146793060658171;0.3522700124217327;0.12409416165160772;2.205936437668993;0.6375676018729897;-1.0084633425104517;0.00047447118531465963;0.03772815335984503;0.020393596410727;0.0004952661240428392;0.043846232283063;0.0;53.72696366666667;86.84451460000001
-1.116701423602037;1.7280005547627346;2.2196423644512544;-0.0081574385642908;0.023162672971552112;0.0346691138982359;1.5683688357960033;0.3693936680462059;0.13645168199263055;2.255606208791512;0.6872373729955086;-0.9727745487916796;0.0013478586118982725;0.07341694707861712;0.020393596410727;0.0009174033802249128;0.058121749770572;0.0;53.72692916666666;86.84453130000001
2.2196423644512544;2.0856900233634943;2.7198607066627254;0.0346691138982359;0.03096761627379926;0.0346691138982359;2.255606208791512;0.595282189345701;0.35436088495221096;2.7539265044803183;1.185557668684315;-0.9727745487916796;0.0013933475403661744;0.07341694707861712;0.020393596410727;0.0013449993078231328;0.0678087080656673;0.0;53.726888566666666;86.84450776666667
2.7198607066627254;1.1157718907472933;2.7198607066627254;-0.0254919955134087;0.03070912684077821;0.0346691138982359;2.7539265044803183;0.621426405838224;0.38617077787301307;2.7539265044803183;1.2351976703543428;-0.9727745487916796;0.00019607894309118832;0.024982155603140432;-0.0101967982053635;0.0003728359222806775;0.037218313449576795;0.0;53.7268489;86.84445956666667
0.5863564776544045;1.1157718907472933;2.7198607066627254;0.0152951973080452;0.03070912684077821;0.0346691138982359;1.5187288341259755;0.621426405838224;0.38617077787301307;2.7539265044803183;1.2351976703543428;-0.9727745487916796;0.00019607894309118832;0.024982155603140432;-0.0101967982053635;0.0003728359222806775;0.037218313449576795;0.0;53.7268489;86.84445956666667
-5.605740809647735;0.9724137726654059;-3.735052818819147;0.0622004690527174;0.04434141920089504;0.0622004690527174;5.614470874086635;0.9766796353057435;0.9539031100209602;5.614470874086635;1.8785644007165816;-0.9839910268175792;0.0007614413397635667;0.053023350667890434;0.1019679820536351;0.00038713244265630104;0.037728153359845;30.0;53.72771446666667;86.8539182
-4.209788014344228;0.9724137726654059;-3.735052818819147;-0.0183542367696543;0.04434141920089504;0.0622004690527174;4.211555009794046;0.9766796353057435;0.9539031100209602;5.614470874086635;1.8785644007165816;-0.9839910268175792;0.0007614413397635667;0.053023350667890434;0.1019679820536351;0.00038713244265630104;0.037728153359845;30.0;53.72771446666667;86.8539182
-3.735052818819147;4.687276661702524;4.135764175583243;-0.0101967982053635;0.04903306536705463;-0.0101967982053635;3.7359064733700533;0.2580406694312384;0.06658498708052164;4.211555009794046;0.47564853642399285;-0.9839910268175792;0.0001757172322531351;0.026511675333945273;0.0734169470786173;0.006765633315213659;0.1468338941572346;30.0;53.7276965;86.8540453
4.135764175583243;3.9769135805451556;4.135764175583243;-0.0989089425920261;0.06643000778905639;0.0311002345263587;4.147148772910533;1.7429331578923069;3.037815992880449;4.147148772910533;3.2033882866477583;-0.9839910268175792;0.0005763663850827492;0.047924951565208596;0.0642398286937901;0.004855964775342377;0.1376567757724074;30.0;53.72765916666666;86.85413596666666
-0.7922191358477731;2.5234582054644603;4.135764175583243;0.0311002345263587;0.06528406649343095;0.0311002345263587;0.9437604862627749;1.6047926651918263;2.575359498253485;4.147148772910533;3.2033882866477583;-1.0043846232283062;0.00020898913421821386;0.027531355154481574;0.0142755174875089;0.0020112171573272294;0.0876924645661262;30.0;53.72760590000001;86.8542107
2.615043056813948;1.8769023637101667;2.615043056813948;-0.023452635872336;0.03013235822532311;0.0311002345263587;2.718099086452202;0.9884699961196338;0.977072933228749;2.718099086452202;1.774338600189427;-1.0043846232283062;0.0002526585055473915;0.027531355154481574;0.0142755174875089;0.0010962398532872691;0.060161109411644695;0.0;53.727541900000006;86.85426616666666
-0.4528500053966204;1.809212886802334;2.7426554107455754;-0.0183542367696543;0.004120986932117289;-0.0183542367696543;1.0759392575462958;1.0389597488532738;1.0794373597372577;2.999650298649299;1.9237110411030032;-0.9574793514836342;0.0014164819097012577;0.07443662689915365;0.0081574385642908;0.000973549714791002;0.0540430304884266;0.0;53.72747483333334;86.85433563333333
2.7426554107455754;1.6080633096037864;2.7426554107455754;-0.0265116753339451;0.01641019367740496;0.0050983991026817;2.999650298649299;0.9619499925731357;0.9253477882114559;2.999650298649299;1.9237110411030032;-0.9574793514836342;0.0013956869709730775;0.07443662689915365;0.0081574385642908;0.0007448053887810118;0.0540430304884266;0.0;53.727399999999996;86.85442293333334
1.4598021701812862;0.7484494912085532;2.7426554107455754;0.0050983991026817;0.016970854468331995;0.0050983991026817;2.0611450968998555;0.5022553524202534;0.252260439034793;2.999650298649299;0.9385052017494435;-0.9574793514836342;0.0009856800957157737;0.061180789232180954;-0.0254919955134087;0.00013863292485454017;0.020393596410727098;0.0;53.72731683333333;86.85448483333334
1.4332126266984326;0.5992662596048702;2.4842115455046514;-0.0214132762312633;0.01406764017985439;0.0050983991026817;2.2202569122895035;0.5871745462852325;0.3447739478052686;3.1483390428149307;1.0871939459150752;-1.0003059039461608;8.45660841612687e-05;0.01835423676965431;-0.0254919955134087;0.00011229266913217763;0.0183542367696544;0.0;53.727210333333325;86.85453193333335
2.4842115455046514;2.107498714612805;2.4842115455046514;-0.0163148771285816;0.002566137940678736;-0.0163148771285816;3.1483390428149307;0.4640451856562332;0.21533793433072793;3.1483390428149307;0.9280821305254272;-1.0003059039461608;8.45660841612687e-05;0.01835423676965431;0.0275313551544814;0.0013738522853084811;0.07137758743754449;0.0;53.7270823;86.85454043333334
-1.5762848659176532;2.4991099111148856;2.4842115455046514;-0.0183542367696543;0.014753090931110904;-0.0163148771285816;2.680910907769017;0.2755419644273037;0.0759233741604575;3.1674160479329894;0.48650514016397217;-0.9299479963291526;0.0019238784146688884;0.0805547058223719;0.0336494340776996;0.001856294863802281;0.0774956663607627;0.0;53.726954166666665;86.85453176666665
-2.0701063330004;0.6918082093459852;-0.7038649670980197;-0.0428265524625267;0.012911471338990918;-0.0183542367696543;3.1674160479329894;0.2727247690483705;0.07437879965248705;3.1674160479329894;0.48650514016397217;-0.9299479963291526;0.0015494828719835943;0.07035790761700822;0.0336494340776996;0.00012165039155985912;0.021413276231263403;0.0;53.726834733333334;86.85447206666667
-0.7038649670980197;0.8319705649816411;-0.5644508723282163;-0.023452635872336;0.011041301023609548;-0.023452635872336;2.7105728404087617;0.284097556069157;0.0807114213644678;3.1674160479329894;0.5210048857479981;-0.9299479963291526;0.001216590561176634;0.06576934842459459;0.0336494340776996;0.00017320451049014144;0.023962475782604305;0.0;53.72672346666667;86.8543608
-0.5644508723282163;0.6564247502654184;-0.5644508723282163;-0.0239624757826042;0.020459344747148556;-0.023452635872336;2.6464111621849913;0.42541580706482046;0.18097860890061257;3.413235688569838;0.7668245263848465;-0.9829713469970428;4.167652303440501e-05;0.012745997756704375;0.0305903946160905;0.00013005501262916536;0.0209034363209952;0.0;53.7265917;86.85411810000001
-1.7646901576071554;0.6006010330938313;-0.5644508723282163;-0.0591414295911083;0.043322394506725544;-0.0239624757826042;3.413235688569838;0.41062386569507214;0.16861195907836463;3.413235688569838;0.7668245263848465;-0.9829713469970428;0.00020803603285985054;0.02804119506474978;0.0305903946160905;0.0001097799473691891;0.0209034363209952;0.0;53.726490566666676;86.85381216666667
-1.206212397909883;0.5897835769291299;-0.5856674443915231;-0.1101254206179259;0.03315135761600669;-0.0591414295911083;3.2844230847174956;0.2067293974581449;0.04273704377340764;3.6890743221486804;0.4046512374311848;-0.9901091057407974;0.0001388928615886465;0.020903436320995228;0.0305903946160905;0.00010432127595304136;0.020393596410727;0.0;53.7264319;86.8534719
-0.5856674443915231;0.49539132014074194;-0.2270373492394085;-0.1213418986438258;0.04947636678879151;-0.0305903946160905;3.6890743221486804;0.22695404911754358;0.05150814041084838;3.6890743221486804;0.4046512374311848;-0.9901091057407974;0.0003761284542459717;0.03874783318038144;0.0214132762312633;7.728785560640572e-05;0.0173345569491179;30.0;53.72649173333334;86.85312213333333
-0.2270373492394085;1.20182661712339;1.6519721631160214;-0.0305903946160905;0.04628417949272486;-0.0305903946160905;3.6648426484918897;0.20453807302848506;0.041835823318205886;4.030606741994156;0.3657640935022659;-0.9901091057407974;0.00042118415482369495;0.03874783318038144;0.0101967982053635;0.0004585283989563872;0.039767513000917604;0.0;53.7265993;86.8527945
1.6519721631160214;1.039635430501298;1.6519721631160214;-0.0917711838482716;0.03218593685098427;-0.0305903946160905;4.030606741994156;0.19306523244130844;0.037274183977616455;4.030606741994156;0.3657640935022659;-0.9941878250229428;0.00033176591829251704;0.034669113898236015;0.0040787192821454;0.00034623572982421026;0.0336494340776995;0.0;53.72675306666667;86.85248746666667
-0.0585824775822874;0.974185105970213;1.6519721631160214;-0.078515346181299;0.029885491770679826;-0.0346691138982359;3.740556496316261;0.19279236593954988;0.03716889636456931;4.105603959680805;0.3650474633645442;-0.9941878250229428;0.00022259248996956725;0.027021515244213257;0.0010196798205363;0.0003018731938707576;0.0305903946160904;0.0;53.72689736666666;86.85227336666668
1.604538873487958;0.8454329546616668;1.604538873487958;-0.0346691138982359;0.029098120017435822;-0.023452635872336;4.105603959680805;0.1863831826375419;0.03473869077009929;4.105603959680805;0.3650474633645442;-0.9941878250229428;0.00016670609213758356;0.024472315692872337;0.0010196798205363;0.0002256250852007619;0.0295707147955541;0.0;53.727059999999994;86.85206906666667
1.037158384936234;0.40906353132877715;1.604538873487958;-0.023452635872336;0.03431239009930928;-0.023452635872336;3.988435674815463;0.11129071588034556;0.0123856234411598;4.105603959680805;0.22247607356344457;-1.0054043030488429;4.470911826558284e-05;0.013255837666972248;-0.0142755174875089;5.406684069327056e-05;0.0142755174875089;0.0;53.7272438;86.8518518
0.8103993624895189;0.1293794606918717;1.037158384936234;-0.0876924645661262;0.03270931973558775;-0.023452635872336;3.883127886117361;0.12516633644469738;0.01566661177898718;3.988435674815463;0.24933266180147795;-1.0003059039461608;4.4709118265595066e-05;0.013255837666972692;-0.0142755174875089;5.545316994181978e-06;0.004078719282145402;30.0;53.72744633333334;86.85162766666667
0.8158326192571493;0.1591494930411152;0.8158326192571493;-0.0662791883348628;0.01090310657852932;-0.0662791883348628;3.739103013013985;0.1493951261004555;0.022318903702570995;3.883127886117361;0.29872665766140516;-1.0003059039461608;0.0022246252160251726;0.08412358519424923;-0.0101967982053635;5.545316994182014e-06;0.004078719282145399;30.0;53.727668300000005;86.85139736666667
0.5375011451258497;2.051585906147128;0.8158326192571493;-0.0734169470786173;0.00523259043483942;-0.0662791883348628;3.5844012284559557;0.45334421676091974;0.2055209788705718;4.435453261358819;0.8510520329028632;-0.9941878250229428;0.0025429610697224204;0.09024166411746726;0.0499643112062812;0.0012937917712049884;0.0642398286937901;30.0;53.727896566666665;86.85117336666667
-2.8685993819677287;2.073812673661822;0.8840743630558001;-0.0764759865402263;0.002566137940678995;-0.0734169470786173;4.435453261358819;0.5794744689856228;0.33579066020616954;4.435453261358819;1.106815095027804;-0.9880697460997246;0.002911031485211233;0.0963597430406854;0.0499643112062812;0.001317359368430259;0.0652595085143264;30.0;53.72812546666666;86.85096706666666
0.8840743630558001;3.974282378559072;5.075920175346281;-0.078515346181299;0.03298366077008429;-0.020393596410727;3.328638166331015;1.2985542984581115;1.6862432660440385;5.916732435970974;2.5880942696399587;-0.9870500662791885;1.4903039421919996e-05;0.00713775874375433;0.0499643112062812;0.004741592612337383;0.1376567757724074;30.0;53.72836076666667;86.85075863333334
5.075920175346281;2.097887173772306;5.075920175346281;-0.020393596410727;0.03028866752144957;-0.020393596410727;5.916732435970974;1.3017189136733438;1.6944721302149104;5.916732435970974;2.5880942696399587;-0.9870500662791885;0.00037768807465062476;0.03415927398796759;-0.0152951973080452;0.0013173593684302637;0.072397267258081;30.0;53.72858203333334;86.85057883333333
3.1372019005644827;0.977966958671697;5.075920175346281;-0.0642398286937901;0.030288667521449538;-0.0061180789232181;4.37826265646079;0.7730066395992347;0.597539264864501;5.916732435970974;1.5384697795101836;-0.9870500662791885;0.00039484389910135486;0.034669113898235904;-0.0560823901294993;0.0002519653409231263;0.031610074436626896;30.0;53.728790866666664;86.8503866
3.8823140646625336;0.6477350592955801;3.8823140646625336;-0.0061180789232181;0.029488557461328904;-0.0061180789232181;5.015395889360476;0.3843178895017634;0.1477002401910896;5.015395889360476;0.6909194776237326;-0.9901091057407974;0.0003277802217029714;0.031610074436627;-0.0448659121035994;0.0001500701411550406;0.024472315692872504;30.0;53.728976499999995;86.85021383333333
2.5919954761300628;2.284378166820699;3.8823140646625336;-0.0438462322830631;0.03721947744943476;-0.0061180789232181;4.324476411736743;0.7174268067045113;0.5147012229782323;5.015395889360476;1.434531075095593;-0.9381054348934434;0.0017824728313172934;0.08361374528398091;0.0091771183848271;0.001614033827618973;0.078515346181299;30.0;53.72917156666667;86.85003343333335
-0.5584294115455244;1.7452445121843696;2.5919954761300628;-0.0805547058223717;0.018439014295936685;-0.0438462322830631;3.5808648142648827;0.41646152039207024;0.17344019796727475;4.324476411736743;0.7436115974718605;-0.9381054348934434;0.0012445770828816874;0.06729886815539943;0.0091771183848271;0.0009056195816122755;0.0540430304884265;0.0;53.7293827;86.84985203333333
2.3182254982755643;1.4400376740709595;2.3182254982755643;-0.0652595085143265;0.008551541841140101;-0.0652595085143265;4.277635131034469;0.38454371555533223;0.14787386917310025;4.277635131034469;0.696770316769586;-0.9381054348934434;0.00136657405675368;0.06729886815539943;0.0091771183848271;0.0006262742380303798;0.0499643112062811;0.0;53.72963126666667;86.84964833333333
0.7583747715905238;0.7971655734470897;2.3182254982755643;-0.0795350260018354;0.030861111349896116;-0.020393596410727;3.647283748128161;0.317735633777871;0.10095593297222537;4.277635131034469;0.6303513829063077;-0.9982665443050882;2.7380002658802512e-05;0.0101967982053639;-0.0132558376669725;0.00019815843696395816;0.027531355154481504;0.0;53.7298889;86.84947076666667
1.8239014957715407;0.8369683647880708;1.8239014957715407;-0.020393596410727;0.030861111349896116;-0.020393596410727;3.892741081398086;0.30422291170222904;0.09255158000458225;3.892741081398086;0.6048777754921337;-0.9982665443050882;4.297620670493594e-05;0.01223615784643628;-0.003059039461609;0.0002173937552875251;0.029060874885285998;0.0;53.730134633333336;86.84932396666666
0.1730872712377724;1.0662631868173345;1.8239014957715407;-0.0652595085143265;0.032523364165475514;-0.020393596410727;3.2878633059059523;0.3349776001731136;0.11220999261773837;3.892741081398086;0.6048777754921337;-1.008463342510452;6.896988011514986e-05;0.01529519730804485;0.003059039461609;0.0003532540216449721;0.035178953808504;0.0;53.7303402;86.84919673333333
-0.1706338591374065;0.25581637039008437;0.1730872712377724;-0.0836137452839808;0.012735796876513552;-0.0591414295911083;3.3408585419188386;0.10431367918540789;0.0108813436651962;3.489111202068236;0.2012478961622839;-0.9809319873559702;0.00048070966693314614;0.04282655246252676;0.0056082390129499;1.9841837369806153e-05;0.0086672784745589;0.0;53.7304976;86.84904693333334
-0.3269773226863626;0.1490695410431671;-0.028958541228199;-0.0591414295911083;0.022463834188991998;-0.0591414295911083;3.489111202068236;0.220847713473943;0.048773712546668825;3.775313887212935;0.43445534529409624;-0.9809319873559702;0.0004588749812685589;0.04282655246252676;0.0056082390129499;6.498418352557291e-06;0.0050983991026818;0.0;53.730612433333334;86.84888016666666
-0.028958541228199;1.0868872966957848;1.6868003087578145;-0.1040073416947078;0.022709347865116893;-0.0591414295911083;3.775313887212935;0.2440063322071595;0.05953909015719068;3.9745329906170896;0.48542178854885343;-0.9809319873559702;0.00014799064728226603;0.022432956051799846;0.0056082390129499;0.00036139870598017517;0.035178953808504;0.0;53.730676466666665;86.8487138
1.6868003087578145;0.9665350780871168;1.6868003087578145;-0.0876924645661262;0.012460693232604899;-0.0795350260018354;3.9745329906170896;0.16704685801944563;0.027904652774168825;4.107190031329097;0.33187614411616195;-1.0003059039461608;1.6982533294711594e-05;0.008157438564290853;0.0005098399102681;0.00028705680002692936;0.030080554705822198;0.0;53.73070703333334;86.84851396666666
0.0577536852665662;0.8961568697266068;1.6868003087578145;-0.0795350260018354;0.021004744305741327;-0.0479249515652085;4.107190031329097;0.33469612994408493;0.1120214993995478;4.609074569922646;0.634541579305556;-0.9982665443050882;2.911291421948637e-05;0.010196798205363455;-0.0010196798205363;0.0002457268593046716;0.0285510349750178;0.0;53.73070426666666;86.8483064
1.5195379407925205;0.7533466164760003;1.5195379407925205;-0.0479249515652085;0.01587341617053891;-0.0479249515652085;4.609074569922646;0.3428872546471926;0.11757166939948871;4.762853118769737;0.6556630874406402;-0.9870500662791885;0.0001147187453171697;0.021413276231263212;-0.0010196798205363;0.00017294457375603874;0.025491995513408798;0.0;53.73068393333333;86.84808979999998
0.472444190026354;2.5560838270450854;1.5195379407925205;-0.0662791883348628;0.011231917094495966;-0.0458855919241358;4.762853118769737;0.716944478328816;0.5140093850061781;5.920586164513142;1.3115115945904963;-0.9870500662791885;7.728785560644616e-05;0.017334556949117785;0.0586315896808402;0.0020078379797839004;0.08514326501478531;0.0;53.730650733333334;86.84789446666666
-3.337412862275381;2.1144330198372634;0.472444190026354;-0.0458855919241358;0.02729112289336978;-0.0122361578464362;5.920586164513142;0.6074802387226577;0.3690322404385371;5.920586164513142;1.157733045743405;-0.9850107066381156;0.00011333241606863379;0.01937391659019061;0.0586315896808402;0.001354010447938679;0.066789028245131;0.0;53.7306089;86.84770756666667
-3.0218939488123464;0.9954991561764418;-3.0218939488123464;-0.0122361578464362;0.029181376611102625;-0.0122361578464362;5.660839317328976;0.5971487252844497;0.35658660010884324;6.8002465352340495;1.1394072179050738;-0.9850107066381156;0.00010432127595308221;0.01937391659019061;0.0856531049250535;0.00031772933465099723;0.0336494340776996;0.0;53.73052983333333;86.8474749
-4.882119725703947;1.0972970191318392;-2.943615896785181;-0.0703579076170082;0.046426236108217424;-0.0122361578464362;6.8002465352340495;0.6749468409420908;0.455553238097708;6.8002465352340495;1.1965792809422293;-0.9850107066381156;7.312886786081947e-05;0.015295197308045183;0.0856531049250535;0.0003892119365291198;0.034669113898236;0.0;53.73043326666667;86.84725886666666
-2.943615896785181;1.2552121562350698;-2.943615896785181;-0.1040073416947078;0.019427509822838494;-0.0703579076170082;5.60366725429182;0.752824981300716;0.5667454524704233;6.993401697466285;1.389734443174465;-0.9737942286122158;0.00017606381456531972;0.02651167533394505;0.0907515040277353;0.0004682327036962086;0.0397675130009178;30.0;53.7303274;86.84705913333333
-5.294289126568535;1.2357318950907437;-2.943615896785181;-0.1040073416947078;0.001766137256622674;-0.1040073416947078;6.993401697466285;0.6972219434828386;0.48611843847398656;6.993401697466285;1.389734443174465;-0.9737942286122158;0.00010536102288950882;0.020393596410727022;0.0907515040277353;0.0004495172588408458;0.0397675130009178;30.0;53.7302419;86.8469395
-4.779899918600185;0.5871244448265576;-4.122929248586807;-0.1070663811563169;0.00809345766615071;-0.1040073416947078;6.397700742890174;0.6488793686918765;0.4210444351139681;6.993401697466285;1.2963436344402606;-0.9737942286122158;0.00016254710439200107;0.023452635872336036;0.0907515040277353;8.560583109767848e-05;0.018354236769654392;30.0;53.730164300000006;86.84684483333332
-4.122929248586807;1.2127401169719314;-4.122929248586807;-0.1193025390027531;0.014858429689265878;-0.0897318242071989;5.697058063026025;0.8895896427055064;0.7913697324089106;7.463689423254277;1.7666313602282528;-0.9941878250229428;8.560583109771763e-05;0.01733455694911812;0.1152238197206077;0.0004931866301700246;0.0428265524625268;30.0;53.730087233333336;86.84675923333333
-6.4734205004977925;1.4505082554220339;-4.122929248586807;-0.0897318242071989;0.04239955722706597;-0.0356887937187723;7.463689423254277;1.1042176402451203;1.2192965970285017;7.728045307168425;2.0309872441424;-0.9870500662791885;0.00015110988809148923;0.02447231569287245;0.1172631793616804;0.0006418704420765186;0.0448659121035995;30.0;53.730002333333324;86.84667433333334
-6.770695079211812;0.31099455051232333;-6.148904854766185;-0.0356887937187723;0.09601428498153149;-0.0356887937187723;7.728045307168425;0.257094146901288;0.06609740037090105;7.728045307168425;0.5141192674152224;-0.9870500662791885;0.0001719048268196666;0.02447231569287245;0.1172631793616804;9.70430473981787e-06;0.006118078923218098;30.0;53.72989766666666;86.8465782
-6.148904854766185;1.3123559735976962;-4.251436932544561;-0.2222902008769246;0.11016475309316737;-0.0275313551544814;7.213926039753202;1.1572062557240745;1.339126318286932;7.728045307168425;2.211321639942999;-0.9870500662791885;0.0007749580499368913;0.055062710308962814;0.1172631793616804;0.0004585283989563894;0.0397675130009177;30.0;53.72977146666667;86.8464776
-4.251436932544561;0.9569058415503704;-4.251436932544561;-0.0275313551544814;0.11318713938669052;-0.0249821556031405;5.516723667225426;0.8492683029620891;0.7212566504161068;7.213926039753202;1.6972023725277765;-0.989089425920261;0.0007250501969892631;0.05302335066789032;0.1111451004384623;0.00028315774901539715;0.0336494340776996;0.0;53.7296274;86.8463762
-5.416314322620289;1.6745180800256882;-2.114624278301415;-0.0249821556031405;0.02167269430695633;0.0112164780258998;6.423617488212071;1.2920234226577414;1.6693245246962247;6.423617488212071;2.548949540456092;-0.989089425920261;0.0007153458922494398;0.05302335066789032;0.0938105434893443;0.0008321441314393725;0.056082390129499296;0.0;53.72945496666667;86.84627203333334
-2.114624278301415;1.960941797936412;-1.932436201164346;0.0112164780258998;0.03196307260887021;0.0387478331803813;3.874667947755979;1.57778701218071;2.4894118558061322;6.423617488212071;2.8854923826627847;-0.9360660752523708;0.0018687718270392545;0.08565310492505351;0.0938105434893443;0.001175260620454359;0.0622004690527175;0.0;53.72925546666667;86.8461408
-1.932436201164346;0.12617267226869855;-1.932436201164346;0.0387478331803813;0.039285252143051716;0.0387478331803813;3.538125105549286;0.2816296603730812;0.07931526560185706;3.874667947755979;0.5594235441004773;-0.9360660752523708;0.006742065717988396;0.1641684511063526;0.0418068726419904;2.634025572236257e-05;0.010196798205363601;0.0;53.72904690000001;86.84599196666666
-2.174739558540125;0.26093206046676676;-1.932436201164346;-0.0387478331803813;0.04974881195531865;0.0387478331803813;3.3152444036555018;0.15361897247519765;0.02359878870433553;3.538125105549286;0.29457830620334846;-0.9360660752523708;0.006742065717988396;0.1641684511063526;0.0438462322830631;4.29762067049075e-05;0.0122361578464363;30.0;53.7288523;86.84584856666667
-2.453867073405525;1.7656626529901078;-2.174739558540125;-0.0540430304884266;0.031553832369296875;0.0066279188334862;3.2435467993459377;1.3655743853343558;1.8647934018813035;5.6438246648892;2.4002778655432624;-0.9992862241256244;0.002809742804489364;0.10094830223309903;0.0938105434893443;0.0008674955272772796;0.0520036708473539;30.0;53.72868476666667;86.84572370000001
-5.362952145425975;2.4195673359953913;-0.5594043372403845;0.0066279188334862;0.04469273442540523;0.0066279188334862;5.6438246648892;2.0501606179712413;4.203158559480222;5.6438246648892;4.079110156069632;-0.9992862241256244;0.0024278957420931415;0.09432038339961268;0.0938105434893443;0.0017501540307105284;0.08310390537371269;30.0;53.728513066666665;86.84559466666667
-0.5594043372403845;2.5851512928679794;-0.5594043372403845;-0.0805547058223717;0.04372255011050997;0.0066279188334862;1.5647145088195684;2.2432284193283283;5.03207374128227;5.6438246648892;4.079110156069632;-0.93912511471398;0.006063370905247391;0.15448149281125712;0.0938105434893443;0.0020437092490900163;0.08310390537371269;30.0;53.72832996666667;86.84544569999998
-1.304836500656586;0.38167767599072144;-0.5594043372403845;-0.0428265524625267;0.020042178019517416;-0.0428265524625267;1.9865964199773412;0.21177129907505643;0.044847083111937;1.9865964199773412;0.42188191115777274;-0.8667278474558988;0.013429977949705546;0.22687876006933827;0.0214132762312633;2.8679686329282812e-05;0.010706638115631698;30.0;53.728134266666665;86.84528413333334
-1.0745342959322914;0.41649513114505976;-1.0745342959322914;-0.0734169470786173;0.018441363663888634;-0.0428265524625267;1.808105258145142;0.3602261022616144;0.12976284475059507;2.5018293027906156;0.6937240446454735;-0.8667278474558988;0.002339777189232611;0.09177118384827154;0.0316100744366268;6.065190462386041e-05;0.0152951973080452;30.0;53.727932366666664;86.84514196666667
-1.8829568124440603;0.41168025951799975;-1.0745342959322914;-0.0759661466299582;0.056089342061033894;0.0224329560517997;2.5018293027906156;0.3979003936231075;0.15832472324542388;2.5018293027906156;0.6937240446454735;-0.8667278474558988;0.003481072743097587;0.11012542061792596;0.0316100744366268;6.273139849667838e-05;0.0152951973080452;0.0;53.727721233333334;86.84500763333334
-1.6139553331542535;1.3841353600861321;-1.6139553331542535;0.0224329560517997;0.053397060184692736;0.0224329560517997;2.492657052517332;1.1654737398980788;1.3583290383920146;4.515887281389137;2.023230228871805;-0.9584990313041704;0.0008498198293583607;0.05710206995003575;0.0734169470786173;0.0006449896828857472;0.0458855919241359;30.0;53.72749196666666;86.84491489999999
-4.134503167520315;1.3896475865248776;-1.6139553331542535;0.0091771183848271;0.05281295108678637;0.0224329560517997;4.515887281389137;1.1790358266519805;1.3901254805289192;4.55321497870289;2.0605579261855578;-0.9768532680738248;0.0018396589128197348;0.08565310492505362;0.0734169470786173;0.0006865795603421085;0.0458855919241359;0.0;53.72727123333333;86.84484776666666
-3.888374311562618;3.4096406235917462;1.890384113259192;-0.0749464668094218;0.04441853731736549;0.0091771183848271;4.55321497870289;0.7862346032334272;0.6181648513216247;4.55321497870289;1.380078383699316;-1.015601101254206;0.004155868504826899;0.12745997756704397;0.0734169470786173;0.00408031356078123;0.1111451004384623;30.0;53.727076933333336;86.84479853333333
1.890384113259192;3.1714048869386198;1.890384113259192;-0.0081574385642908;0.03856066343623985;-0.0081574385642908;3.173136595003574;0.7108450224981395;0.5053006460103805;4.55321497870289;1.380078383699316;-0.9656367900479248;0.007892025829656757;0.17742428877332528;0.0723972672580809;0.0035063732518834344;0.1101254206179259;30.0;53.72691586666667;86.8446972
-3.2634796257841523;3.0880908834369523;1.890384113259192;-0.0081574385642908;0.021193647079459962;-0.0081574385642908;4.158877797609942;0.6741414282869371;0.4544666653327516;4.462647458351914;1.2895108633483403;-0.9656367900479248;0.008510675256820147;0.17742428877332528;0.0642398286937901;0.0031819722077238125;0.1019679820536351;30.0;53.726810566666664;86.84454923333334
-3.633950398018423;0.8872249573855367;-3.2634796257841523;-0.0448659121035994;0.0403300234422927;-0.0081574385642908;4.462647458351914;0.7521166911005814;0.5656795170320874;5.5866276467057965;1.4277498490958545;-0.9656367900479248;0.00114406821236209;0.06627918833486302;0.0897318242071989;0.00032266813259894205;0.034669113898236;0.0;53.72675903333333;86.8444209
-4.951568274935802;3.0161177236254164;0.8051628594889026;-0.0887121443866625;0.03507164988665202;-0.0193739165901906;5.5866276467057965;1.46086548411369;2.134127962674726;5.5866276467057965;2.897559679987898;-1.0105027021515245;0.00012511621468120468;0.021413276231263323;0.0897318242071989;0.002938671424604096;0.1040073416947078;0.0;53.726766700000006;86.8443603
0.8051628594889026;3.415303930649;1.1108101378188704;-0.0193739165901906;0.034987551021264426;-0.0193739165901906;2.6890679667178983;1.6513710934374988;2.72702648824096;5.5866276467057965;2.897559679987898;-0.9972468644845518;0.0003008334469343367;0.034669113898236015;0.0897318242071989;0.0037912639124595103;0.1091057407973895;0.0;53.72679886666666;86.84436686666668
1.1108101378188704;0.4032565657023519;1.6043473725341784;-0.0622004690527174;0.04030423423144354;-0.0193739165901906;2.7651896590275076;0.13909600826734594;0.019347699515909575;2.9588554071981212;0.26978744048022296;-0.9778729478943612;0.0003559400345640183;0.03772815335984492;-0.0142755174875089;4.470911826558621e-05;0.013255837666972501;0.0;53.72683966666667;86.84435646666667
1.6043473725341784;1.714452619973518;1.6043473725341784;-0.0999286224125624;0.03926760378091098;-0.0214132762312633;2.9588554071981212;0.09864019483533659;0.009729888037153165;2.9588554071981212;0.19366574817061366;-0.9778729478943612;0.0001251162146812122;0.01937391659019061;0.0275313551544814;0.0008830917313234088;0.0550627103089628;0.0;53.726910733333334;86.84435926666667
-1.581019398172174;2.0436815537789323;1.6043473725341784;-0.0214132762312633;0.03950519145061795;-0.0214132762312633;2.894577833765478;0.17633140924407156;0.031092765886000247;3.227015792680459;0.33243795891498085;-0.9778729478943612;0.00017710356150166536;0.02549199551340886;0.0387478331803813;0.0012584403753670747;0.06627918833486271;0.0;53.72696648333334;86.84437235
-2.206439207404112;2.0329271218729543;1.5854969898242264;-0.0683185479759355;0.024858726084397542;-0.0214132762312633;3.227015792680459;0.2356244935666374;0.055518901968534345;3.227015792680459;0.4554774426179038;-0.9941878250229428;2.1834685664579728e-05;0.009177118384827265;0.0387478331803813;0.0012584403753670747;0.06627918833486271;0.0;53.72698545;86.84440838333335
1.5854969898242264;2.2152855088920234;1.6740652513791296;-0.0305903946160905;0.0387523052022301;0.0091771183848271;2.771538350062555;0.26904685294289177;0.07238620907847403;3.227015792680459;0.4758593606864574;-0.9768532680738248;0.00018126254924730233;0.026511675333945273;0.0387478331803813;0.0014871847013770648;0.0672988681553991;0.0;53.72693335;86.84440748333333
1.6740652513791296;0.15286148645741818;1.6740652513791296;0.0091771183848271;0.02718933746502152;0.0091771183848271;2.7511564319940014;0.15182430785677115;0.02305062045618762;2.771538350062555;0.2725652993010681;-0.9768532680738248;0.00041901801537283783;0.040787192821454155;-0.0244723156928724;4.505570057769465e-06;0.004078719282145399;0.0;53.72685393333333;86.84436219999999
1.3763710785556391;0.6723110351425305;2.660797320519064;-0.0428265524625267;0.03649542198057145;0.0091771183848271;2.498973050761487;0.419222777866306;0.17574773748194214;3.3175572461158223;0.8185841953543354;-0.9768532680738248;0.00045055700577724785;0.040787192821454155;-0.0244723156928724;0.0001427919126001719;0.0224329560517997;0.0;53.726782533333335;86.84431640000001
2.660797320519064;0.7055831836503025;2.660797320519064;-0.061180789232181;0.020955185264672573;-0.0193739165901906;3.3175572461158223;0.4309412162339043;0.18571033184915664;3.3175572461158223;0.8185841953543354;-0.9941878250229428;0.00013828634254239324;0.023452635872336147;-0.0244723156928724;0.0001479906472822171;0.0224329560517997;0.0;53.72672493333332;86.84429293333335
2.524775674047808;0.7055831836503025;2.660797320519064;-0.0193739165901906;0.020955185264672573;-0.0193739165901906;3.1418693690437878;0.4309412162339043;0.18571033184915664;3.3175572461158223;0.8185841953543354;-0.9941878250229428;0.00013828634254239324;0.023452635872336147;-0.0244723156928724;0.0001479906472822171;0.0224329560517997;0.0;53.72672493333332;86.84429293333335
-10.182114886680072;7.638153530988082;4.882207494917875;0.1916998062608341;0.11778221515951219;0.1916998062608341;11.426823988225793;3.5280284439538345;12.446984701347315;11.426823988225793;6.42394254109416;-0.99214846538187;0.002023694120564145;0.08667278474559015;0.1967982053635158;0.02037046204139191;0.2834709901091056;60.0;53.727653333333336;86.8540192
-4.846271404297283;7.638153530988082;4.882207494917875;-0.0091771183848271;0.11778221515951219;0.1916998062608341;5.686874122915207;3.5280284439538345;12.446984701347315;11.426823988225793;6.42394254109416;-0.99214846538187;0.002023694120564145;0.08667278474559015;0.1967982053635158;0.02037046204139191;0.2834709901091056;60.0;53.727653333333336;86.8540192
4.882207494917875;5.6526454790452165;5.005424959004396;-0.0152951973080452;0.010184044231384626;-0.0091771183848271;5.002881447131633;0.3874838539028861;0.15014373703543316;5.686874122915207;0.6839926757835739;-0.99214846538187;0.00012797551875634686;0.022432956051799957;0.084123585194249;0.009782199114470395;0.1718160497603752;60.0;53.72762916666667;86.85412303333332
5.005424959004396;2.3968298508788366;5.005424959004396;-0.0290608748852859;0.02074950306034766;-0.0152951973080452;5.02936752257208;1.765132437152456;3.1156925206877686;5.02936752257208;3.0704560541649597;-1.0008157438564291;0.00019659881655933607;0.02804119506474967;-0.0142755174875089;0.0017720753619531388;0.0734169470786173;60.0;53.72758673333334;86.85422566666666
0.7937568183984477;2.814750148182898;5.005424959004396;-0.0560823901294993;0.02074950306034766;-0.0152951973080452;1.9589114684071205;1.5794476731007556;2.4946549520633914;5.02936752257208;3.0704560541649597;-1.0008157438564291;0.000503324162800003;0.044356072193331375;0.0061180789232181;0.0024343941604457004;0.0938105434893443;60.0;53.7274952;86.8543304
-0.3353501919274937;0.5793818356871056;0.7937568183984477;-0.0152951973080452;0.037275306696989356;-0.0152951973080452;2.851341260604438;0.8531959510638158;0.7279433309116893;3.6646924771946114;1.705781008787491;-1.023758539818497;0.00012511621468121113;0.021413276231263545;0.0061180789232181;0.00010952001063507471;0.020393596410727;60.0;53.727347433333335;86.85444716666667
0.4547868986247844;3.35694612713632;0.4547868986247844;-0.0897318242071989;0.038617919274900166;-0.0152951973080452;3.6646924771946114;2.258305517215512;5.099943809086022;7.1055714528023355;4.254230192197897;-1.023758539818497;0.00011679823918993894;0.021413276231263545;0.1040073416947078;0.0037278393493385504;0.11216478025899859;0.0;53.7271512;86.85451546666667
-5.714277181381771;3.0892978341839363;0.4547868986247844;-0.0703579076170082;0.022104661859633175;-0.0456306719690017;7.1055714528023355;1.7210621449594898;2.96205490681256;7.1055714528023355;3.440878975607724;-1.0161109411644744;0.00011185944124199136;0.020903436320995228;0.1040073416947078;0.00315077979963153;0.11216478025899859;30.0;53.72695923333333;86.85447710000001
-2.9268471566195777;1.7851769780661548;-2.388401222846634;-0.0456306719690017;0.014502085342571738;-0.0448659121035994;5.465310683204972;0.9687034805534248;0.9383864332363194;7.1055714528023355;1.7130568966118664;-1.0161109411644744;0.00010943336505703685;0.020903436320995228;0.1040073416947078;0.0010886150424202611;0.06118078923218109;0.0;53.726778833333334;86.85431376666668
-2.388401222846634;0.4964715787259556;-1.9351222397354264;-0.0448659121035994;0.04511170970691657;-0.0448659121035994;5.392514556190469;0.09794138438123341;0.009592514774512513;5.465310683204972;0.19388802268657734;-1.0161109411644744;2.5213863207902856e-05;0.00968695829509536;0.0520036708473538;7.520836173357598e-05;0.017334556949117903;0.0;53.72662946666666;86.85404493333333
-1.9351222397354264;0.4647930116380625;-1.9351222397354264;-0.1233812582848985;0.039311709830735876;-0.0448659121035994;5.271422660518395;0.17894198091790378;0.03202023253482344;5.623624676706146;0.3522020161877508;-0.974813908432752;0.0007621345043878143;0.05098399102681783;0.0489446313857448;5.129418219616844e-05;0.014275517487508903;0.0;53.72651246666667;86.85372313333333
-2.8646139587222144;1.3654910861313798;-0.1759680166792474;-0.0805547058223717;0.026321436928111588;-0.07545630671969;5.623624676706146;0.6868990248959282;0.47183027040297704;5.623624676706146;1.3260819279590255;-0.974813908432752;0.0004848686546787271;0.04384623228306317;0.0489446313857448;0.0005514124586089192;0.0458855919241358;0.0;53.726456299999995;86.85338536666667
-0.1759680166792474;1.381904893650139;-0.1759680166792474;-0.07545630671969;0.004120986932116705;-0.07545630671969;4.29754274874712;0.7566119215468726;0.572461599826851;5.623624676706146;1.3260819279590255;-0.974813908432752;0.0006387512012672715;0.04996431120628142;0.0489446313857448;0.0005514124586089192;0.0458855919241358;30.0;53.72653053333334;86.85297320000001
-0.965880801976734;0.8788827242429723;-0.1759680166792474;-0.0836137452839808;0.015272520946712068;-0.0540430304884266;4.329303394851988;0.06447298458759501;0.004156765741632264;4.421653119587377;0.12411037084025711;-0.9931681452024064;0.000615876768666283;0.0489446313857449;0.0351789538085041;0.00025898363274387586;0.0321199143468951;0.0;53.72670933333333;86.85260586666668
-1.9308261971920695;1.6374762296716598;1.261931632354429;-0.0540430304884266;0.018363675822358202;-0.0540430304884266;4.421653119587377;0.29508068497742407;0.08707261064674579;4.421653119587377;0.5509733154122922;-1.01458142143367;0.00019373951248421268;0.02753135515448135;0.0351789538085041;0.0008698349578841875;0.0576119098603038;0.0;53.7269447;86.85227803333333
1.261931632354429;1.6719021596781316;1.261931632354429;-0.0876924645661262;0.03416054222290807;-0.0193739165901906;3.870679804175085;0.49787528160410033;0.2478797960323622;4.421653119587377;0.9937906966581682;-0.9992862241256244;0.00047100536219329313;0.04282655246252687;0.0351789538085041;0.0009103850884041402;0.0576119098603038;0.0;53.72715243333332;86.85206763333333
0.5260720816929672;0.38888328190098087;1.261931632354429;-0.0193739165901906;0.03434141759773407;-0.0193739165901906;3.427862422929209;0.3186668380682812;0.10154855368443616;3.870679804175085;0.6183724625256555;-0.9962271846640156;9.669646508603507e-05;0.01835423676965431;-0.0091771183848271;4.817494138694123e-05;0.0132558376669726;0.0;53.727379500000005;86.85181683333333
1.1121157311846055;1.2000613351620442;1.1121157311846055;-0.0596512695013765;0.024349860173874846;-0.0193739165901906;3.2523073416494297;0.1829166447483721;0.03345849892600217;3.427862422929209;0.3657358232214012;-0.9962271846640156;0.00021895337569213046;0.027021515244213257;0.0214132762312633;0.0004505570057772399;0.040787192821454;0.0;53.727611866666656;86.85154573333334
-1.1965589047170984;1.2287009405290765;1.1121157311846055;-0.0632201488732537;0.010891179749166865;-0.0428265524625267;3.062126599707808;0.25551527549016556;0.0652880560088152;3.2523073416494297;0.505867235061729;-0.9962271846640156;0.00021548755257076258;0.027021515244213257;0.0214132762312633;0.0004744711853146481;0.040787192821454;0.0;53.72783516666667;86.85128263333333
0.6869108243424763;1.6505030137571286;0.6869108243424763;-0.0428265524625267;0.017904989213236612;-0.0428265524625267;2.7464401065877007;0.3823820423460725;0.14621602630875358;3.507528417340101;0.7610883107524002;-1.006423982869379;7.858753927690544e-05;0.0168247170388498;0.0458855919241358;0.0008515527409189963;0.058121749770571995;0.0;53.72800673333333;86.8510702
-2.602564854257569;3.343395540282706;4.083937907792318;-0.078515346181299;0.018532756711485708;-0.0428265524625267;3.507528417340101;0.9195561887110479;0.8455835841967885;4.576918463925295;1.830478357337594;-0.9554399918425616;0.0011503066939805282;0.06423982869378997;0.0458855919241358;0.0032609929748908893;0.1142041399000713;0.0;53.72816003333333;86.8508907
4.083937907792318;3.7222826012963934;4.083937907792318;-0.0520036708473539;0.05461715811498752;0.0265116753339451;4.576918463925295;0.5377063701096907;0.2891281404565396;4.576918463925295;1.0693900465851938;-0.9554399918425616;0.0013832100077361565;0.07239726725808082;0.0458855919241358;0.004197804964595438;0.1142041399000713;30.0;53.728316;86.8507224
3.5751483630893923;0.6525106673897915;4.87029306341261;0.0265116753339451;0.04005408247456376;0.0265116753339451;4.140651676256506;0.5964648681099196;0.3557703388893838;5.320327832609041;1.179676156352535;-0.9554399918425616;0.0013485517765225207;0.07239726725808082;-0.0642398286937901;0.00010432127595302784;0.019373916590190707;0.0;53.728473699999995;86.85058996666667
4.87029306341261;0.7022340441012578;4.87029306341261;-0.0265116753339451;0.027943692476893465;0.0265116753339451;5.320327832609041;0.6106080667360659;0.3728422111631559;5.320327832609041;1.179676156352535;-0.9809319873559702;0.0005625030925972896;0.04690527174467218;-0.0642398286937901;0.00011333241606857291;0.019373916590190707;0.0;53.7286511;86.85045163333335
3.752244239872162;0.5598177708821838;4.87029306341261;-0.0152951973080452;0.010710683699798608;-0.0152951973080452;4.4569943100658715;0.4334061325179546;0.18784087570417082;5.320327832609041;0.8633335225431695;-0.9809319873559702;0.0002568174932930328;0.029570714795554287;-0.0662791883348628;7.590152635784699e-05;0.017334556949117993;0.0;53.72884316666667;86.85030236666667
4.259665057567805;1.6388207268012034;4.259665057567805;-0.0367084735393086;0.01940966185414395;-0.0152951973080452;4.955847742280511;1.1333813179678707;1.2845532119185874;4.955847742280511;2.1643728186468993;-0.9707351891506067;0.00040584788751166256;0.03976751300091774;-0.020393596410727;0.0008279851436937243;0.0530233506678903;0.0;53.72904523333333;86.85012896666667
1.2016555902908488;1.5541195017996932;4.259665057567805;-0.0540430304884266;0.015340449469965966;-0.0367084735393086;2.791474923633612;1.0901925005729765;1.1885196883055593;4.955847742280511;2.1643728186468993;-0.9707351891506067;0.00040584788751166256;0.03976751300091774;-0.020393596410727;0.0007198514623071839;0.0530233506678903;0.0;53.7292472;86.84997253333331
2.248689524859717;0.7886056203363343;2.746684392148982;-0.0672988681553992;0.017493775510632185;-0.0326297542571632;3.6452389361927637;0.5834268061252952;0.34038683810556275;3.90717894789815;1.115704024264538;-0.9707351891506067;0.0006768752556022826;0.048944631385744786;-0.020393596410727;0.0002124549573395684;0.0285510349750178;0.0;53.729447633333336;86.84983163333334
2.746684392148982;1.001447968791157;2.746684392148982;-0.0326297542571632;0.02392085695239844;-0.0326297542571632;3.90717894789815;0.49092047551651735;0.2410029132813635;3.90717894789815;0.9504511298237954;-0.9972468644845518;0.00012719570855403267;0.022432956051799735;-0.0142755174875089;0.0003226681325989272;0.034669113898235904;0.0;53.72965826666667;86.8496924
0.817599182016765;0.9744314114024356;2.746684392148982;-0.078515346181299;0.022989954893560118;-0.0326297542571632;2.9567278180743544;0.48001346614776724;0.2304129276831937;3.90717894789815;0.9504511298237954;-0.9972468644845518;0.0001261559616176237;0.022432956051799735;-0.0142755174875089;0.00030603218161638244;0.034669113898235904;0.0;53.72986316666667;86.84955596666664
2.021980098493114;0.8526378364342226;2.4652913362738507;-0.0530233506678902;0.013919034179289008;-0.0530233506678902;3.549089075292648;0.5064179752683321;0.25645916567487703;3.964391828593941;1.0076640105195867;-0.9972468644845518;8.73387426583539e-05;0.01835423676965431;-0.0142755174875089;0.0002332498960677502;0.0295707147955542;0.0;53.73005583333333;86.84941583333334
2.4652913362738507;1.3802848158266194;2.4652913362738507;-0.07545630671969;0.011596289799280658;-0.0530233506678902;3.964391828593941;0.2398565109170678;0.05753114582930947;3.964391828593941;0.41558443033190473;-1.0043846232283062;3.1538990404400414e-05;0.011216478025899868;0.0020393596410727;0.000599240817683734;0.0458855919241358;0.0;53.7302194;86.84928926666664
-0.1160602118090028;1.5918268659928478;2.4652913362738507;-0.0693382277964719;0.007698413822035691;-0.0693382277964719;3.5488073982620363;0.2129459171158648;0.045345963616316765;3.964391828593941;0.41558443033190473;-0.9941878250229428;0.00011471874531712348;0.021413276231263323;0.0076475986540226;0.0007980924192719635;0.0514938309370857;0.0;53.7303603;86.8491315
-0.4391398259220352;0.2051510523949416;-0.0585668362088729;-0.0846334251045171;0.009139274436455827;-0.0683185479759355;3.837253669731681;0.20471151233123733;0.04190680328094233;3.944664139064388;0.39585674080235167;-0.9941878250229428;3.1538990404399865e-05;0.010196798205363455;0.0076475986540226;1.2736899970998927e-05;0.0066279188334863;0.0;53.730495;86.84895046666668
-0.0585668362088729;0.4063003155549995;-0.0585668362088729;-0.0683185479759355;0.038550550637321136;-0.0112164780258998;3.944664139064388;0.1858163168877385;0.034527703621724457;4.199066603382457;0.36181293365077627;-0.9941878250229428;4.6095447514127336e-05;0.01223615784643628;0.0152951973080452;5.103424546206538e-05;0.014275517487508901;0.0;53.73060443333333;86.84868443333333
-0.8706354383071115;0.42186137396939316;-0.0585668362088729;-0.0112164780258998;0.030064708048667253;-0.0112164780258998;4.199066603382457;0.12982058789502102;0.01685338504140888;4.199066603382457;0.2544024643180691;-0.9855205465483838;0.0001094333650570453;0.020903436320995228;0.0152951973080452;5.51932332077016e-05;0.014275517487508901;0.0;53.73065643333333;86.84835243333333
-0.2663349130625857;1.4640083451732302;-0.2663349130625857;-0.0560823901294993;0.034266906389663315;-0.0112164780258998;4.026924357261756;0.4923241106099815;0.24238302988790927;4.952593226263054;0.9256688690012975;-0.9855205465483838;0.00011411222627088661;0.020903436320995228;0.0530233506678902;0.0006473291134926536;0.0484347914754767;0.0;53.73064693333333;86.84801013333333
-3.049629460204085;3.3906394788899417;-0.2663349130625857;-0.078515346181299;0.02555310306136771;-0.0275313551544814;4.952593226263054;2.010474285478294;4.042006852569458;7.878471440605584;3.851547083343828;-0.9855205465483838;0.0013540104479386823;0.06678902824513111;0.1294993372081166;0.003966201334510332;0.1249107780157031;0.0;53.73058893333333;86.84767906666666
-7.013284402690842;2.362997119756807;-3.049629460204085;-0.0275313551544814;0.02943562094369456;-0.0275313551544814;7.878471440605584;1.7182438817189838;2.9523620370647214;7.97646590579445;3.0238726795313964;-0.99214846538187;0.000999196805889096;0.060161109411644986;0.1294993372081166;0.001923878414668863;0.0764759865402264;30.0;53.730522199999996;86.84743313333333
-7.260435573474362;1.9605067798667848;-3.747915059967645;-0.078515346181299;0.03315135761600662;-0.0275313551544814;7.97646590579445;1.6760320166150604;2.8090833207187464;7.97646590579445;2.9507290905975934;-1.0054043030488429;0.00058468436057402;0.04690527174467207;0.1294993372081166;0.0012272479672748;0.06118078923218109;0.0;53.7304358;86.84721873333335
-3.747915059967645;1.9383573179693687;-3.747915059967645;-0.0897318242071989;0.013308026206078351;-0.078515346181299;5.025736815196857;1.6295827940682048;2.655540082723137;7.97646590579445;2.9507290905975934;-0.979912307535434;0.0008799724905141801;0.05914142959110846;0.1284796573875803;0.0011669426449630765;0.06016110941164479;0.0;53.73033266666667;86.84705586666666
-4.083493435361895;1.542743675888186;-3.747915059967645;-0.1050270215152442;0.017374498377528892;-0.0703579076170082;5.302552811793843;1.221150096630112;1.4912075584997322;7.265609149029073;2.239872333832216;-0.979912307535434;0.0011659028980266614;0.05914142959110846;0.113184460079535;0.000641870442076507;0.0448659121035995;0.0;53.73020686666666;86.84689593333333
-6.571963744392219;1.3668505180710349;-4.083493435361895;-0.0703579076170082;0.03215361623678938;-0.040787192821454;7.265609149029073;1.06365574159193;1.131363536621479;7.265609149029073;1.9630563372352299;-0.9584990313041704;0.00015284279965209095;0.021413276231263656;0.113184460079535;0.0005264585321351026;0.0428265524625268;0.0;53.7300535;86.84673403333333
-6.3077682100246415;2.1521282821809384;-2.7192989547501103;-0.040787192821454;0.018718833232064615;-0.040787192821454;6.99393869326303;1.8901034925220654;3.5724912124441093;7.265609149029073;3.401125415589194;-0.9584990313041704;0.002250358952701291;0.09075150402773535;0.113184460079535;0.0011988282176796181;0.0632201488732538;30.0;53.72988363333334;86.84658123333334
-2.7192989547501103;2.355946910440594;-1.868987527313688;-0.07545630671969;0.03724740253335534;-0.0010196798205363;3.864483733439879;1.9782636129280908;3.9135269222353033;6.99393869326303;3.6612637919115887;-0.9584990313041704;0.0024714784678442773;0.09075150402773535;0.1060467013357805;0.0015038206523596055;0.0744366268991537;0.0;53.729700699999995;86.84642389999999
-1.868987527313688;0.5224831596819336;-1.868987527313688;-0.0010196798205363;0.04420050331741257;0.003059039461609;3.3326749013514414;0.29488280804382433;0.08695587047981096;3.864483733439879;0.5318088320884375;-0.968695829509534;0.001847630305998875;0.08055470582237167;0.0509839910268175;0.00011887773306275563;0.0193739165901907;0.0;53.72950963333333;86.84625843333333
-2.8201601739645863;0.7606054370838785;-1.868987527313688;0.003059039461609;0.010791276888200847;0.003059039461609;3.81937817614269;0.28995139534255254;0.08407181166109319;3.8490748434733435;0.5163999421219021;-0.968695829509534;0.0012168504979107114;0.06627918833486279;0.0601611094116447;0.00021245495733957014;0.028551034975017903;30.0;53.7292966;86.84610513333332
-3.3726861207546146;1.3783084063982218;-0.7575690480116225;-0.0173345569491179;0.011774248377477972;0.003059039461609;3.8490748434733435;1.0921753523667581;1.192847000317452;3.8490748434733435;1.9063767056213121;-1.0023452635872336;0.0002675615449692631;0.03262975425716319;0.0601611094116447;0.0006179562625390978;0.046905271744672204;0.0;53.729073633333336;86.84595043333333
-0.7575690480116225;1.7685225701523575;-0.7575690480116225;-0.0173345569491179;0.04297600657779413;-0.0173345569491179;1.9426981378520314;1.3254533912983248;1.7568266925042302;4.491121886994849;2.5484237491428177;-1.0023452635872336;0.0034810727430975097;0.11012542061792607;0.0805547058223717;0.0011908568245004821;0.0672988681553992;60.0;53.728852100000005;86.84581423333333
-4.127623224451474;2.0914871847859047;-0.7575690480116225;-0.0917711838482716;0.04913897606436197;-0.0173345569491179;4.491121886994849;1.583836483191701;2.5085380054890547;4.8462553756202125;2.9035572377681813;-1.0023452635872336;0.0031847448662209333;0.11012542061792607;0.0836137452839808;0.001581455090278148;0.0703579076170083;60.0;53.728643;86.84567340000001
-4.588524156521656;2.140023080463594;-0.6729991861022545;-0.1101254206179259;0.07240684108346761;0.023452635872336;4.8462553756202125;1.8431874418433996;3.397339945769215;4.8462553756202125;3.355212097597129;-0.8677475272764352;0.015674185066366392;0.24472315692872448;0.0836137452839808;0.0017249401675025937;0.0734169470786173;60.0;53.72843353333334;86.84550660000001
-0.6729991861022545;2.014922454163744;-0.6729991861022545;0.023452635872336;0.07310708471451056;0.023452635872336;1.4910432780230836;1.7122405454335288;2.931767685426508;4.8462553756202125;3.355212097597129;-0.8677475272764352;0.009105063922134024;0.168247170388498;0.0836137452839808;0.001425493049816789;0.0734169470786173;0.0;53.72819986666667;86.84531559999999
-3.456131675247352;1.7309802264216914;-0.2814479937998737;0.0081574385642908;0.034704085273549734;0.023452635872336;3.7621279628170328;1.2663478886855903;1.6036369751784525;3.7621279628170328;2.271084684793949;-0.8677475272764352;0.00916467607982148;0.16926685020903443;0.0622004690527174;0.0009985036412648077;0.0571020699500357;0.0;53.727895;86.84508753333334
-0.2814479937998737;1.6004336922363165;-0.2814479937998737;-0.0428265524625267;0.026978192220501608;0.0081574385642908;1.6557397565435317;1.0725381953333513;1.150338180448922;3.7621279628170328;2.1063882062735013;-1.0217191801774244;5.857241075105428e-05;0.015295197308045294;0.0622004690527174;0.0008298047008324404;0.0571020699500357;30.0;53.72759816666667;86.8449187
-1.5149513801425143;1.102377500287563;-0.2814479937998737;-0.0020393596410727;0.024809880821038906;-0.0020393596410727;2.3577058928258254;0.7017569788597023;0.49246285737829676;3.059253693481217;1.4035139369376852;-0.91669215866218;0.004290342441935874;0.12032221882328964;0.0397675130009177;0.0003075051564429636;0.034669113898236;0.0;53.727326833333336;86.84479243333334
-2.48078001868636;3.224985116755575;3.524993006963204;-0.0469052717446721;0.02855103497501785;0.0061180789232181;3.059253693481217;0.8523156111788238;0.726441901059132;4.053916047951235;1.6962101551254096;-0.91669215866218;0.0029490688939681963;0.10502702151524435;0.0397675130009177;0.003022111116250908;0.1009483022330987;30.0;53.72715746666666;86.84474253333333
3.524993006963204;3.0381304497365123;3.524993006963204;0.0061180789232181;0.02759422656577926;0.0061180789232181;4.053916047951235;0.8613427133346246;0.7419112698146534;4.053916047951235;1.7154111868789141;-0.91669215866218;0.0051748205025078185;0.14377485469562556;0.0397675130009177;0.002610804557323098;0.1009483022330987;0.0;53.726993633333336;86.84468963333332
1.3213108873530832;3.561534434555677;3.524993006963204;-0.0336494340776996;0.06915053261215853;0.0061180789232181;2.338504861072321;0.9729723281977026;0.9466751514384579;4.053916047951235;1.7154111868789141;-0.9574793514836342;0.0027348810250679145;0.10298766187417141;0.058121749770572;0.003733731248644865;0.119302539002753;30.0;53.72686036666667;86.84459903333332
-3.442972959657297;2.6735054192299117;1.3213108873530832;-0.1284796573875803;0.06148875054101708;-0.0132558376669725;3.991854092872189;0.8815186514768253;0.7770751329015205;3.991854092872189;1.6533492317998681;-0.9574793514836342;0.0029740228204419928;0.10298766187417141;0.058121749770572;0.002167179197788572;0.0825940654634444;0.0;53.72676799999999;86.844464
-3.162994980470452;0.20295293612967635;-3.162994980470452;-0.0132558376669725;0.06378502772726999;-0.0132558376669725;3.6953234545714206;0.17629599098891574;0.031080276438763862;4.008794750393359;0.31347129582193833;-0.9574793514836342;0.0009025003408030297;0.05914142959110813;0.0632201488732537;2.1141521040304126e-05;0.009177118384827099;0.0;53.7267443;86.84434643333333
-3.557501024951662;2.757789386263521;1.404149192382358;-0.023452635872336;0.005395638444100412;-0.0132558376669725;4.008794750393359;0.6914037045059594;0.478039082604564;4.008794750393359;1.32310568260643;-0.9778729478943612;0.0003756952263557825;0.03874783318038111;0.0632201488732537;0.0023231412382499262;0.08769246456612609;0.0;53.7267601;86.84431103333333
1.404149192382358;2.4930055393928505;1.404149192382358;-0.0152951973080452;0.03380357796319116;-0.0152951973080452;2.685689067786929;0.6776092611910026;0.45915431085181646;4.008794750393359;1.32310568260643;-0.9982665443050882;8.421950184911523e-05;0.018354236769654086;0.0632201488732537;0.0019394746187149882;0.08769246456612609;0.0;53.72678633333334;86.8443458
-1.5029976245663748;1.4846544385947136;1.404149192382358;-0.0774956663607627;0.04028703225275499;-0.0020393596410727;3.093260714813098;0.22223791447267283;0.04938969062916305;3.093260714813098;0.407571647026169;-0.986030386458652;0.00011541190994139239;0.021413276231263656;0.0265116753339451;0.0006779150025386827;0.0509839910268175;0.0;53.72680306666666;86.84437959999998
0.4739966897243302;1.0774058091591832;0.4739966897243302;-0.0020393596410727;0.03789314607130016;-0.0020393596410727;2.735907035637463;0.23261563742607436;0.054110034775138885;3.093260714813098;0.4366571979683882;-0.986030386458652;0.0003767349732921944;0.03874783318038133;0.0265116753339451;0.0003590592753732429;0.0346691138982359;0.0;53.726818699999995;86.84439523333333
0.2278134444629791;2.4228479013207025;4.541981446273216;-0.0458855919241358;0.02192509217616007;-0.0020393596410727;2.6566035168447097;1.4542858401259289;2.1149473047907787;5.214215785920033;2.5576122690753236;-0.986030386458652;0.0004755109322510562;0.03874783318038133;-0.0040787192821454;0.001751280423224954;0.0744366268991536;0.0;53.7268243;86.8443923
4.541981446273216;2.255574785099463;4.541981446273216;-0.0244723156928724;0.01796296558475073;-0.0244723156928724;5.214215785920033;1.4533049288059832;2.112095216091764;5.214215785920033;2.5576122690753236;-0.9850107066381156;0.0004897208070486473;0.03976751300091774;-0.0040787192821454;0.0015169907802207833;0.0744366268991536;0.0;53.7268405;86.84439143333333
1.2430486494905564;3.2651311400455723;4.541981446273216;-0.0601611094116447;0.01853275671148574;-0.0244723156928724;2.7394789430711275;1.3523659008506885;1.8288935297836941;5.214215785920033;2.474736842848906;-0.9850107066381156;0.000543094483117643;0.041806872641990345;0.0356887937187723;0.0032606463925787515;0.1142041399000713;0.0;53.72687953333334;86.84437926666665
-1.9881637867495952;1.6226886438873853;1.2430486494905564;-0.0509839910268175;0.00817865430509893;-0.0509839910268175;3.031628470092933;0.42135374944277865;0.1775389821694879;3.031628470092933;0.8306209174729213;-0.9850107066381156;0.00044249896702006606;0.041806872641990345;0.0356887937187723;0.0008207069151388579;0.0571020699500356;0.0;53.726938999999994;86.84439606666666
-0.634864543219349;1.6431953382477427;1.2820757461257395;-0.0672988681553992;0.03225048090682033;-0.0050983991026817;2.2010075526200117;0.4559252672457423;0.2078678493131015;3.031628470092933;0.8306209174729213;-1.0023452635872336;0.00015674185066364582;0.024472315692872337;0.0356887937187723;0.0008515527409189942;0.058121749770572;0.0;53.726967599999995;86.84442466666667
1.2820757461257395;1.419551480487299;2.1372715471486083;-0.0050983991026817;0.035620750198882285;-0.0050983991026817;2.2905033147394143;0.27209093926349537;0.07403347922929111;2.7106138197607916;0.50960626714078;-1.0023452635872336;0.0011112295382871588;0.061180789232181176;0.0112164780258998;0.0006720231032323644;0.0509839910268175;0.0;53.7269412;86.84444093333333
2.1372715471486083;0.4380648430019939;2.1372715471486083;-0.0662791883348628;0.032007769598568506;-0.0050983991026817;2.7106138197607916;0.22783870677171542;0.05191047630340772;2.7106138197607916;0.42011050502137737;-1.0023452635872336;0.000948249206005041;0.061180789232181176;-0.0224329560517997;7.72878556063925e-05;0.017334556949118;0.0;53.72687083333333;86.8444047
1.874544888695188;0.3015557787618714;2.4760557376617083;-0.0520036708473539;0.048216948781633004;0.023452635872336;2.3477128882524094;0.2141822051303883;0.04587401699451574;2.7262654504346595;0.3785525621822501;-0.9901091057407974;0.001347512029586116;0.07341694707861746;-0.0336494340776996;2.1834685664576103e-05;0.009177118384827099;0.0;53.726802666666664;86.84435359999999
2.4760557376617083;1.0212755985063466;3.865758851044792;0.023452635872336;0.03773848653756915;0.023452635872336;2.7262654504346595;0.8424242778556899;0.7096786639206805;3.9588047199727288;1.6110918317203193;-0.9656367900479248;0.0009482492060050267;0.061180789232181176;-0.0336494340776996;0.00026444230416002083;0.0316100744366269;0.0;53.726746866666666;86.84431486666666
3.865758851044792;1.0212755985063466;3.865758851044792;-0.0158050372183134;0.03773848653756915;0.023452635872336;3.9588047199727288;0.8424242778556899;0.7096786639206805;3.9588047199727288;1.6110918317203193;-0.9656367900479248;0.0009482492060050267;0.061180789232181176;-0.0336494340776996;0.00026444230416002083;0.0316100744366269;0.0;53.726746866666666;86.84431486666666
-3.63055259962468;1.9981381409268697;0.0549256395927458;0.0632201488732537;0.08229980635506169;0.0632201488732537;3.644426852367228;0.7288544893764617;0.5312288666842226;3.644426852367228;1.3964025383623166;-0.9299479963291526;0.005063914162624198;0.1325583766697258;0.0591414295911083;0.0011669426449630804;0.0601611094116446;60.0;53.7276483;86.85400563333333
-3.1259486383132065;1.9981381409268697;0.0549256395927458;-0.0968695829509534;0.08229980635506169;0.0632201488732537;3.30848455573765;0.7288544893764617;0.5312288666842226;3.644426852367228;1.3964025383623166;-0.9299479963291526;0.005063914162624198;0.1325583766697258;0.0591414295911083;0.0011669426449630804;0.0601611094116446;60.0;53.7276483;86.85400563333333
0.0549256395927458;3.545418576640352;3.952794958179902;-0.0499643112062812;0.02371714764884882;-0.0499643112062812;2.2480243140049114;1.4363083883634051;2.0629817864830824;5.090291073038451;2.84226675903354;-1.0003059039461608;0.000998503641264819;0.06220046905271759;0.0571020699500356;0.004005451781359776;0.1264402977465075;60.0;53.727615833333324;86.85411823333334
3.952794958179902;2.083342580050556;3.952794958179902;-0.0795350260018354;0.014811704951905744;-0.0499643112062812;5.090291073038451;1.6590702557569392;2.7525141135373956;5.151953058190022;2.903928744185111;-0.9768532680738248;0.0019592298105067817;0.08565310492505362;-0.0010196798205363;0.0013125072160603524;0.0683185479759356;0.0;53.72756293333333;86.85422746666666
3.278972058289317;0.515913895838371;4.292620878596748;-0.0632201488732537;0.015306522890721227;-0.0489446313857448;5.151953058190022;0.6612517093195783;0.43725382307806415;6.2651980329016235;1.174906959863172;-0.9360660752523708;0.001056729469703724;0.06423982869378997;-0.0560823901294993;6.342456312094963e-05;0.014275517487508903;0.0;53.72747793333334;86.85433019999999
4.292620878596748;1.614193042741027;4.292620878596748;-0.0489446313857448;0.007192177006049713;-0.0489446313857448;6.2651980329016235;0.652552173191485;0.42582433873692976;6.2651980329016235;1.1465269168359624;-0.9360660752523708;0.0012144244217257717;0.06933822779647203;-0.0198837565004588;0.0006769619011803216;0.050474151116549404;0.0;53.72735840000001;86.85443253333331
1.1313201378803306;1.6814020798440439;4.292620878596748;-0.0545528703986948;0.04732731597882123;-0.0489446313857448;5.118671116065661;0.5791831250352913;0.33545309232564596;6.2651980329016235;1.1465269168359624;-0.9360660752523708;0.0017290991552482466;0.07443662689915365;-0.0198837565004588;0.0007072878534922522;0.050474151116549404;30.0;53.7272126;86.85451713333333
1.7190092389178222;2.446340881731105;1.7190092389178222;-0.133578056490262;0.040063815757881364;-0.0545528703986948;5.54887410228777;0.49080413818695634;0.24088870206144092;6.097880029091291;0.9792089130256301;-1.0054043030488429;0.0004938797947942847;0.04078719282145382;0.0509839910268175;0.001965208355391124;0.081574385642908;30.0;53.72705736666666;86.85453256666666
-2.781344228657689;3.6294603065440474;1.7190092389178222;-0.0825940654634444;0.03510622027443079;-0.0662791883348628;6.097880029091291;1.1324363457706168;1.282412077222308;7.726317054474748;2.1774429521869783;-1.0105027021515245;0.0005264585321350987;0.042826552462526646;0.1009483022330988;0.004408873592686488;0.13153869684918928;30.0;53.72690373333334;86.85443866666667
-5.463617226037727;1.786663153839993;-2.0778403307222155;-0.0662791883348628;0.008178654305099084;-0.0662791883348628;7.726317054474748;1.0419251989793252;1.0856081202681063;7.726317054474748;1.9402598092588361;-0.9809319873559702;0.0015918525596422348;0.07239726725808093;0.1009483022330988;0.0011648631510902702;0.06525950851432649;30.0;53.72675936666667;86.8542431
-2.0778403307222155;1.7092977177289148;-2.0778403307222155;-0.0734169470786173;0.03169766746754841;-0.0662791883348628;5.786057245215912;0.9704391580191749;0.9417521594169651;7.726317054474748;1.9402598092588361;-0.968695829509534;0.002092317418367117;0.0846334251045171;0.1009483022330988;0.001067820103692092;0.06525950851432649;30.0;53.7266289;86.85399316666667
-4.179974639520418;1.7803629195943864;-0.639961947904787;-0.1244009381054349;0.025491995513408795;-0.0734169470786173;6.713756233262598;1.019172059726646;1.0387116873274542;6.713756233262598;2.0356847279665287;-0.968695829509534;0.00023706230150124114;0.030590394616090366;0.0713775874375446;0.0009153238863520997;0.060161109411644806;30.0;53.7265239;86.85370896666666
-0.639961947904787;1.7858942856292481;-0.639961947904787;-0.0989089425920261;0.022019733301717144;-0.0989089425920261;4.678071505296069;1.0302274671431941;1.0613686340562811;6.713756233262598;2.0356847279665287;-0.968695829509534;0.001100398841032889;0.06627918833486279;0.0713775874375446;0.0009394980026236102;0.060161109411644806;30.0;53.72646696666666;86.85340456666667
-2.8216572609315573;1.750178844691704;0.6397456335075193;-0.1427551748750892;0.04745986142598955;-0.0479249515652085;5.420057623361785;0.44786909893022625;0.20058672977657277;5.420057623361785;0.8055648480137361;-0.9992862241256244;0.00038158712566210395;0.03568879371877243;0.0514938309370857;0.0010096809208312144;0.0627103089629855;30.0;53.72647633333333;86.85310673333333
0.6397456335075193;1.8899123177562378;0.6397456335075193;-0.0479249515652085;0.05135313829792177;-0.0479249515652085;4.614492775348049;0.555867421701011;0.30898859050852956;5.420057623361785;1.0663068985057658;-1.00336494340777;0.00041000687525728254;0.03772815335984503;0.0514938309370857;0.0011786397979976838;0.0627103089629855;0.0;53.72655603333334;86.85281096666667
0.2240815272775264;0.5814170081550692;0.6397456335075193;-0.061180789232181;0.009474429737103678;-0.0428265524625267;4.353750724856019;0.227945804550556;0.05195928981220027;4.614492775348049;0.4542352819423989;-1.00336494340777;0.0003940640888990119;0.03772815335984503;0.0091771183848271;0.00010709393445012974;0.0203935964107269;30.0;53.726690899999994;86.85254476666665
-0.5085941150624321;0.37206112255530566;0.2240815272775264;-0.0428265524625267;0.01446843863484777;-0.0428265524625267;4.16025749340565;0.2412327362749142;0.05819323305068231;4.353750724856019;0.47949976880064504;-1.0291118588763128;3.745255110521774e-05;0.011981237891302232;0.0091771183848271;4.531563731182653e-05;0.013255837666972501;0.0;53.72686686666666;86.85229406666666
-0.254853980780946;0.5740915576378149;0.588046702227101;-0.0713775874375446;0.015675677315659192;-0.0428265524625267;3.8742509560553744;0.3561198879296017;0.1268213745789921;4.16025749340565;0.707905312556766;-0.9911287855613338;0.0005341916499746323;0.041806872641990456;0.0091771183848271;0.00010250171881432359;0.019373916590190603;0.0;53.727085499999994;86.85205189999999
0.588046702227101;0.48353517189092154;0.588046702227101;-0.0683185479759355;0.0063678984382568;-0.0591414295911083;3.452352180848884;0.2966038491067987;0.08797384330496863;3.8742509560553744;0.5720900769811323;-0.9911287855613338;0.00036072720275038574;0.03798307331497908;0.0045885591924135;7.286893112666559e-05;0.014785357397777001;0.0;53.727345799999995;86.85178313333334
0.5771540500983625;0.4018664338150869;0.588046702227101;-0.0591414295911083;0.01682729179087936;-0.0356887937187723;3.302160879074242;0.21607187750670212;0.04668705624927129;3.452352180848884;0.42601316028407554;-0.9911287855613338;0.0003753486440436411;0.03874783318038144;0.0020393596410727;4.990785294763327e-05;0.0122361578464362;0.0;53.72760963333334;86.85148376666666
-0.113388779269281;0.8793769668392983;0.5771540500983625;-0.0356887937187723;0.01175952135685811;-0.0356887937187723;3.0263390205648086;0.17135279066439876;0.029361778868477264;3.302160879074242;0.3140559359444044;-0.9982665443050882;0.00025404483479592004;0.031610074436627;0.020393596410727;0.00023706230150126126;0.0305903946160905;0.0;53.727842900000006;86.85123063333333
-1.1689294504946115;0.5932440222631394;-0.113388779269281;-0.0489446313857448;0.0066344520226855;-0.0356887937187723;2.9881049431298377;0.24963476103318558;0.06231751391609566;3.0263390205648086;0.45022741697377766;-0.9982665443050882;0.00025681749329301245;0.031610074436627;0.020393596410727;0.00010640076982585859;0.0183542367696543;0.0;53.728027833333336;86.85102303333333
-0.1719141592407277;1.43626712543064;1.6626148747695857;-0.0418068726419904;0.019463156659828545;-0.0418068726419904;2.576111603591031;0.29808371676633333;0.08885390220123164;3.1552809180376875;0.5791693144466565;-0.945243193637198;0.0014362371014929743;0.07341694707861712;0.020393596410727;0.0005888433483196524;0.0479249515652084;0.0;53.72819736666667;86.8508427
1.6626148747695857;1.665027471271081;3.152179570191433;-0.078515346181299;0.018504683850061078;-0.0418068726419904;3.1552809180376875;0.8134870495305411;0.6617611797539049;4.182398853719923;1.6062872501288923;-0.945243193637198;0.0014362371014929743;0.07341694707861712;0.003059039461609;0.0008453142593005489;0.0581217497705719;0.0;53.728357466666665;86.85066146666666
3.152179570191433;1.013436564227815;3.5978000000126498;-0.0560823901294993;0.037060837861499406;-0.0061180789232181;4.182398853719923;0.8473569139473061;0.7180137396143023;4.836235610769379;1.6809546927316918;-0.945243193637198;0.0012854737957136663;0.0683185479759355;-0.0275313551544814;0.0003572397182345399;0.0361986336290405;0.0;53.72858299999999;86.8504262
3.5978000000126498;0.7361330892350259;4.590202770382628;-0.0061180789232181;0.031467215729605744;-0.0061180789232181;4.836235610769379;0.7229388351336083;0.5226405593443386;5.626140763238377;1.4437419095184536;-0.9758335882532884;0.00036009902230963077;0.03772815335984514;-0.0550627103089629;0.00014062577314932163;0.023452635872336106;0.0;53.728817933333325;86.85020033333335
4.590202770382628;1.1188873926319363;4.590202770382628;-0.0642398286937901;0.029907228257494554;-0.0061180789232181;5.626140763238377;0.7982648926756234;0.6372268388784245;5.626140763238377;1.596500704364396;-0.9758335882532884;0.0004876413131758134;0.03874783318038155;-0.0418068726419904;0.000341123640720198;0.0367084735393086;0.0;53.72907273333333;86.84998580000001
2.3570271343252904;1.9539707906940995;4.590202770382628;-0.0474151116549403;0.017080271111454055;-0.0300805547058223;4.029640058873981;1.1528770506150754;1.3291254938349153;5.626140763238377;2.2390021029108667;-0.9758335882532884;0.0004172851038121329;0.03874783318038155;-0.0122361578464362;0.0011024783349057213;0.0662791883348628;0.0;53.729288133333334;86.84982573333332
0.6962600080684627;0.8739335254808793;2.3570271343252904;-0.0300805547058223;0.020203646159012614;-0.0300805547058223;3.38713866032751;0.3419951822608352;0.11696070468962189;4.029640058873981;0.6425013985464707;-0.9666564698684612;0.0006574666461226215;0.04792495156520871;-0.0122361578464362;0.0002466799606630438;0.0295707147955542;0.0;53.72951393333333;86.84965899999999
1.0547655836441725;0.34186392887144745;1.379713303393855;-0.0703579076170082;0.028290372996849354;-0.0300805547058223;3.5052242082626757;0.12136796008086631;0.014730181734190759;3.629845251442602;0.24270659111509163;-0.9666564698684612;0.0006207289210361658;0.04588559192413588;-0.0122361578464362;3.751753528875688e-05;0.0122361578464362;0.0;53.729747599999996;86.84949160000001
1.379713303393855;0.23564467921272922;1.5128607876332656;-0.0846334251045171;0.007963953987872545;-0.0703579076170082;3.629845251442602;0.11526680879067756;0.013286437208786622;3.7354975481306822;0.23027333986800658;-0.962577750586316;0.0007697593152547809;0.04996431120628109;-0.0178443968593861;1.724247002878056e-05;0.007647598654022602;0.0;53.729967466666665;86.84934453333334
1.5128607876332656;0.08749781937332637;1.5128607876332656;-0.0713775874375446;0.006634452022685476;-0.0713775874375446;3.7354975481306822;0.1675555607804867;0.028074865948463368;3.7354975481306822;0.32824000420240695;-0.962577750586316;0.0006365850618163941;0.04996431120628109;-0.023452635872336;1.0397469364063407e-06;0.0020393596410726994;0.0;53.730168166666665;86.84922949999999
1.3479436890231835;0.5298777830008319;1.5128607876332656;-0.0774956663607627;0.003860445495258654;-0.0703579076170082;3.4072575439282753;0.22718717277284736;0.051614011472519594;3.7354975481306822;0.43621540659830993;-0.962577750586316;0.00042118415482365174;0.03874783318038122;-0.0091771183848271;7.902076716708454e-05;0.016314877128581602;0.0;53.73033710000001;86.8491083
0.5238079753344909;0.7631432070315278;1.3479436890231835;-0.0703579076170082;0.007653261445360596;-0.0622004690527174;3.2992821415323723;0.05490926483075617;0.003015027364254117;3.4072575439282753;0.10797540239590298;-0.9901091057407974;3.2838674074881606e-05;0.011216478025899868;0.003059039461609;0.00017606381456526052;0.026511675333945002;0.0;53.7304782;86.84898486666667
-0.1766721026905865;1.50665507099897;2.7116822470097546;-0.0622004690527174;0.004444681292485643;-0.0622004690527174;3.3359185761821393;0.7572782379156184;0.573470329620584;4.628860942266919;1.3295788007345468;-0.9901091057407974;9.461697121319045e-05;0.01937391659019072;0.003059039461609;0.0007084142460066928;0.0509839910268175;0.0;53.73058546666667;86.84882759999999
2.7116822470097546;1.4450402714579011;2.7116822470097546;-0.0693382277964719;0.030528017251938325;-0.0132558376669725;4.628860942266919;0.65008794878224;0.4226143411519003;4.628860942266919;1.2929423660847799;-0.9901091057407974;0.00011333241606855106;0.01937391659019072;0.003059039461609;0.0006501884175677855;0.0509839910268175;0.0;53.730657199999996;86.8486092
1.3539979697333755;2.267091567606178;2.7116822470097546;-0.0132558376669725;0.028593490069063778;-0.0132558376669725;4.100998578217909;0.36348457102132625;0.13212103337055756;4.628860942266919;0.6968100260179506;-0.9870500662791885;0.00013828634254236564;0.022432956051799624;0.0295707147955541;0.0015693247093533783;0.0774956663607626;0.0;53.730681233333335;86.84833456666667
-1.7137093147857612;3.8614122423671295;1.3539979697333755;-0.0509839910268175;0.026452782239365466;-0.0132558376669725;3.9320509162489685;1.8559818763599951;3.444668725376768;7.227848258150194;3.295797341901226;-0.9870500662791885;5.6406271300151224e-05;0.014785357397777088;0.1111451004384623;0.0045970677881765195;0.1345977363107983;0.0;53.730663433333326;86.84803516666666
-6.317721142613447;2.3783125323316585;-1.7137093147857612;-0.0642398286937901;0.015873416170538904;-0.0326297542571632;7.227848258150194;1.6743590167611504;2.8034781170093663;7.227848258150194;3.295797341901226;-0.9870500662791885;0.00012502956910315205;0.02192311614153153;0.1111451004384623;0.0017822128945831368;0.0815743856429082;0.0;53.73060976666667;86.8477511
-5.05080837487274;0.8687121634083674;-4.654613605311663;-0.0326297542571632;0.017690783698274176;-0.0326297542571632;6.093490492937096;0.7159150697338053;0.5125343870719592;7.227848258150194;1.3238343567765556;-1.0018354236769655;2.971943326566152e-05;0.01070663811563155;0.1111451004384623;0.00022328565459383746;0.028551034975017903;0.0;53.73053806666667;86.84750020000001
-4.654613605311663;0.8212543655007847;-3.4722587174685984;-0.0622004690527174;0.022363324359601623;-0.0326297542571632;5.904013901373639;0.5299648883534783;0.28086278288751476;6.093490492937096;0.9978785476804353;-1.0054043030488429;1.2736899970980594e-05;0.007137758743754219;0.0892219842969307;0.00021479438794649763;0.028041195064749704;0.0;53.73043753333334;86.84726313333333
-3.4722587174685984;0.6488805973109079;-3.4722587174685984;-0.0764759865402263;0.008241973864234475;-0.0622004690527174;5.09561194525666;0.4724710240801006;0.22322886859529903;5.923547880329051;0.8279359350723903;-0.9768532680738248;0.00035663319918826655;0.035688793718772316;0.0825940654634444;0.0001251162146812176;0.0214132762312634;30.0;53.730320500000005;86.8470693
-4.526756545244476;1.0853655140262013;-3.4722587174685984;-0.0622004690527174;0.047634802377638515;-0.0622004690527174;5.923547880329051;0.8760517289566272;0.7674666318078959;6.846850065374427;1.7512381201177663;-0.9768532680738248;0.0003289066142173592;0.033649434077699714;0.1009483022330988;0.0003996094058932064;0.03976751300091779;30.0;53.73018833333333;86.84689446666668
-5.642699843340301;0.5799023706595671;-4.526756545244476;-0.15091261343938;0.050358145099890894;-0.0622004690527174;6.846850065374427;0.4628563031005053;0.2142359573198668;6.846850065374427;0.923302185045376;-0.9768532680738248;0.00036633750392808486;0.033649434077699714;0.1009483022330988;0.00014305184933427232;0.02345263587233609;30.0;53.730039166666664;86.8467197
-4.811116800037567;1.292458018238452;-3.107310383801852;-0.0652595085143264;0.04887376898954813;-0.0652595085143264;6.327383072984793;0.923667846177927;0.8531622900629705;6.846850065374427;1.7950192686333422;-1.009483022330988;0.0001459111534093836;0.021413276231263323;0.1009483022330988;0.0005178806199097342;0.04486591210359949;30.0;53.7298494;86.84652139999999
-3.107310383801852;0.8520584890634363;-3.107310383801852;-0.0672988681553992;0.036073050221882175;-0.0038237993270112;5.0518307967410845;0.6378447346772544;0.4068459055554971;6.327383072984793;1.2755522762437081;-0.9941878250229428;0.00033999724820573047;0.03670847353930862;0.0851432650147853;0.00021288818522974764;0.02906087488528599;30.0;53.72962676666666;86.84632436666668
-3.931039519605757;2.105977802122845;0.0580488660385747;-0.0038237993270112;0.03229243244221087;-0.0038237993270112;5.67340478705454;0.776107111094809;0.6023422478919302;5.67340478705454;1.5425585139864708;-0.9941878250229428;0.0003538605406911805;0.03670847353930862;0.0683185479759355;0.001369693297562845;0.06933822779647181;30.0;53.72937406666667;86.84615699999999
0.0580488660385747;2.1438705184389337;0.0580488660385747;-0.0458855919241358;0.05461973598147621;-0.0038237993270112;4.1308462730680695;0.7720678713536998;0.5960887979766332;5.67340478705454;1.5425585139864708;-0.9941878250229428;3.3618484277178176e-05;0.01121647802590009;0.0683185479759355;0.001401578870279389;0.06933822779647181;30.0;53.729133100000006;86.84602696666667
-3.2980836596261707;1.7863788300210748;0.0580488660385747;-0.1121647802589986;0.03507164988665204;-0.0458855919241358;4.962551659556519;0.4323545422866666;0.18693045023591295;4.962551659556519;0.8317053864884496;-1.0023452635872336;7.520836173355338e-05;0.016314877128581484;0.058121749770572;0.0009995433882012262;0.059141429591108303;30.0;53.72890506666667;86.8458928
-2.681021084663832;0.8934907808756809;-1.5371740948132382;-0.0989089425920261;0.00796395398787247;-0.0989089425920261;4.3417819995372255;0.7729081032667342;0.5973869360953807;4.962551659556519;1.536412798771278;-1.0023452635872336;9.461697121319906e-05;0.017334556949117896;0.058121749770572;0.00024260761849544382;0.030590394616090602;30.0;53.72870606666667;86.84575353333332
-1.5371740948132382;0.7268581587536969;-1.3321298319147097;-0.113184460079535;0.06807715239261443;0.0112164780258998;3.426138860785241;0.7211589402461736;0.5200702170969841;4.3417819995372255;1.4229168409078974;-0.9646171102273886;0.0009922651596463144;0.055062710308962926;0.0479249515652085;0.00018195571387158346;0.025491995513408798;30.0;53.728513266666674;86.84559486666666
-1.3321298319147097;0.660907642815999;-1.3321298319147097;0.0112164780258998;0.06274415099080376;0.0112164780258998;2.918865158629328;0.29291869792489933;0.08580136359401844;3.426291556591723;0.5074263979623947;-0.9646171102273886;0.0017315252314331637;0.08157438564290809;0.0469052717446721;0.00016670609213758342;0.0244723156928724;30.0;53.72832113333334;86.84542833333334
-2.565520821670337;2.9172064922421646;-1.3321298319147097;-0.0367084735393086;0.02959414642743644;0.0112164780258998;3.426291556591723;2.295605942962208;5.269806645363409;7.124325917118647;4.205460758489318;-0.9646171102273886;0.0016982533294680592;0.08157438564290809;0.1203222188232894;0.0025952083532769735;0.09788926277148971;30.0;53.728118;86.84527639999999
-6.8873819129755525;2.720211249774518;-1.8646712812932456;-0.0428265524625267;0.0032778120257614804;-0.0367084735393086;7.124325917118647;2.467976540262558;6.090908203286345;7.124325917118647;4.680294455828447;-0.9075150402773527;0.004920082503087536;0.13867645559294395;0.1203222188232894;0.0023210617443771234;0.0907515040277353;30.0;53.727911866666666;86.84513
-1.8646712812932456;2.9617392143860743;-1.6566551707040345;-0.037728153359845;0.0321859368509842;0.0152951973080452;2.4440314612901997;2.7079548196130543;7.333019305065569;7.124325917118647;4.700272387784524;-0.9075150402773527;0.0023470554177872486;0.08769246456612645;0.1203222188232894;0.0027764709025242854;0.0917711838482716;30.0;53.727695133333334;86.8449986
-1.6566551707040345;2.124846429605648;-1.6566551707040345;0.0152951973080452;0.04230544952925214;0.0152951973080452;2.424053529334123;1.8958133654591596;3.594108316653585;5.717641985450506;3.2935884561163826;-0.9075150402773527;0.004265388515461974;0.1294993372081169;0.0989089425920261;0.001626510790855885;0.0703579076170083;30.0;53.72748493333333;86.84489933333333
-5.436593587352778;2.067273238001509;-1.6566551707040345;-0.0683185479759355;0.04741602533773248;0.0152951973080452;5.717641985450506;1.7818999943523508;3.175167589872908;5.717641985450506;3.2935884561163826;-0.9870500662791885;0.000742725894908186;0.0499643112062812;0.0989089425920261;0.0014629239395275262;0.0703579076170083;30.0;53.72729023333333;86.84484116666665
-2.095795272472772;3.157641401729657;0.8750766923362716;0.0122361578464362;0.04593088866954297;0.0122361578464362;2.8919885287643274;1.8596055783928525;3.4581329071898157;5.717641985450506;3.507142995912891;-1.0013255837666972;0.0003642580100553049;0.03568879371877243;0.0989089425920261;0.0032661917095729446;0.11420413990007129;30.0;53.72713293333334;86.84480333333333
0.8750766923362716;1.6363109106812246;0.8750766923362716;0.0101967982053635;0.025923408403070378;0.0122361578464362;2.210498989537615;0.4102229850339851;0.16828289745019315;2.8919885287643274;0.7363805848449405;-0.9085347200978892;0.004076154573035516;0.12236157846436224;0.037728153359845;0.0008415018538670549;0.0530233506678902;30.0;53.727003233333335;86.84475896666667
0.5783290693334174;1.8041883058555064;0.8750766923362716;-0.0336494340776996;0.023125235298832862;0.0101967982053635;2.155607943919387;0.5861537291599785;0.34357619420814944;3.1971879807144963;1.0415800367951094;-0.9085347200978892;0.0029019336995175504;0.09381054348934448;0.0418068726419904;0.0009829074372186843;0.0571020699500356;30.0;53.726893933333336;86.84459846666665
-2.387657722104214;1.8251006183611287;0.5783290693334174;-0.0244723156928724;0.014018279886680442;-0.0244723156928724;3.1971879807144963;0.7065753004634756;0.4992486552250508;3.503488789183943;1.347880845264556;-0.9085347200978892;0.0035323669252935765;0.11012542061792596;0.0489446313857448;0.0010047421228832707;0.0581217497705719;30.0;53.72682353333334;86.8444598
-2.747262645658943;2.970284954548905;2.56778969882863;-0.0520036708473539;0.014858429689265753;-0.0244723156928724;3.503488789183943;0.15484537156327594;0.023977089094568985;3.503488789183943;0.30630080846944674;-0.9992862241256244;0.00010848026369864413;0.01937391659019072;0.0489446313857448;0.0027272562142009217;0.0938105434893442;30.0;53.72680346666667;86.84434586666667
2.56778969882863;3.5853148718592367;4.078729925950795;-0.0479249515652085;0.007920315555372712;-0.0367084735393086;3.3899127242601654;0.6983603349390244;0.48770715741614634;4.652290583469002;1.2623778592088364;-0.9992862241256244;0.00011887773306273357;0.01937391659019072;0.0489446313857448;0.00399678722355637;0.1203222188232894;0.0;53.72681426666667;86.84437373333333
4.078729925950795;0.8568407334761984;4.078729925950795;-0.0367084735393086;0.03547450317294215;-0.0367084735393086;4.652290583469002;0.7114863169275266;0.5062127791750968;4.652290583469002;1.2623778592088364;-0.9992862241256244;0.00011887773306273357;0.01937391659019072;-0.0448659121035994;0.0002176536920216359;0.026511675333945203;0.0;53.72683713333333;86.84438806666667
2.6230292430911906;2.862638388244715;4.078729925950795;-0.1029876618741715;0.034221362227543246;-0.0367084735393086;3.4523838477781643;1.0076345110543912;1.0153273078678218;4.652290583469002;2.002148002279688;-1.0003059039461608;8.421950184910629e-05;0.01835423676965431;0.0254919955134087;0.0025373291071502076;0.0968695829509533;0.0;53.72689;86.84438973333333
-1.4444094857018326;2.060504420251655;2.6230292430911906;-0.0550627103089629;0.028918905912655328;-0.0509839910268175;2.650142581189314;0.5263316286573723;0.277024983325122;3.4523838477781643;0.9913592821575463;-1.00336494340777;5.9265575375290174e-05;0.015295197308045072;0.0254919955134087;0.001341620130279803;0.0723972672580808;0.0;53.72692166666667;86.84439580000002
1.1628881543169474;2.2263401170583705;2.9851424378497726;-0.0509839910268175;0.005132275881357283;-0.0448659121035994;2.461024565620618;0.631674893755285;0.3990131714007506;3.6373484722359137;1.1763239066152957;-0.9962271846640156;4.4015953641272264e-05;0.01325583766697247;0.0254919955134087;0.001518377109469342;0.0774956663607626;0.0;53.72688176666667;86.84439003333334
2.9851424378497726;1.162627708089868;3.324875623004248;-0.0448659121035994;0.03780157236065926;0.0173345569491179;3.6373484722359137;0.7486218914209203;0.5604347363146361;3.8513715094309995;1.3903469438103815;-0.9962271846640156;1.2823545548993258e-05;0.007137758743754441;-0.020393596410727;0.0004100068752573066;0.037728153359845;0.0;53.72678453333333;86.84438666666667
3.324875623004248;1.162627708089868;3.324875623004248;0.0173345569491179;0.03780157236065926;0.0173345569491179;3.8513715094309995;0.7486218914209203;0.5604347363146361;3.8513715094309995;1.3903469438103815;-0.9962271846640156;1.2823545548993258e-05;0.007137758743754441;-0.020393596410727;0.0004100068752573066;0.037728153359845;0.0;53.72678453333333;86.84438666666667
-3.938915624710528;5.159941183799298;4.391888314535264;0.0142755174875089;0.036428885148602576;0.0142755174875089;4.059735473489822;0.6748873536544043;0.45547294012264505;5.354871062546851;1.295135589057029;-0.9676761496889976;0.0007552028581451027;0.054043030488426735;0.0887121443866625;0.007986642800870006;0.16314877128581612;0.0;53.727727566666665;86.85402516666666
-5.048289323795204;5.159941183799298;4.391888314535264;-0.0418068726419904;0.036428885148602576;0.0142755174875089;5.354871062546851;0.6748873536544043;0.45547294012264505;5.354871062546851;1.295135589057029;-0.9676761496889976;0.0007552028581451027;0.054043030488426735;0.0887121443866625;0.007986642800870006;0.16314877128581612;30.0;53.727727566666665;86.85402516666666
4.391888314535264;5.0462370857492;4.391888314535264;-0.0540430304884266;0.008093457666150463;-0.0418068726419904;5.036524583908365;0.6519354324059962;0.42501980802639316;5.354871062546851;1.2541851405025302;-0.9676761496889976;0.0005618099279730179;0.04486591210359947;0.0887121443866625;0.007702791887230334;0.16314877128581612;30.0;53.727687;86.8541894
2.7630469449194504;2.313900150149523;4.391888314535264;-0.0571020699500356;0.023891861963617825;-0.0540430304884266;4.100685922044321;0.7771363503732819;0.6039409070715044;5.036524583908365;1.5426179958771797;-0.9676761496889976;0.0005618099279730179;0.04486591210359947;0.003059039461609;0.0015599669869256984;0.0774956663607626;0.0;53.72761653333333;86.85432373333333
-0.1738732717446797;1.579866967824081;2.7630469449194504;-0.0968695829509534;0.0352785640705745;-0.0265116753339451;3.4939065880311855;0.500299886265733;0.2502999761975053;4.486327501392702;0.9924209133615163;-0.9880697460997246;0.00015284279965212906;0.02447231569287245;0.003059039461609;0.0007704524798790981;0.0520036708473538;0.0;53.727514299999996;86.85440923333333
2.3039498232166373;1.2439145552873012;2.3039498232166373;-0.0265116753339451;0.0509057555473198;-0.0265116753339451;4.486327501392702;0.5128845862248165;0.2630505987870012;4.486327501392702;0.9924209133615163;-0.9880697460997246;0.0016376014248442486;0.07647598654022636;0.003059039461609;0.000459914728204932;0.0428265524625267;0.0;53.7273674;86.85446713333333
0.8719973600624736;1.786066496927905;2.3039498232166373;-0.1254206179259712;0.050516191109979146;-0.0265116753339451;4.214788681557875;0.1581014576200046;0.02499607090157011;4.490872790266065;0.27608410870819;-0.979912307535434;0.002179656161025491;0.08463342510451699;0.0214132762312633;0.0009527547760628183;0.061180789232180996;30.0;53.727193766666666;86.8544983
-1.2461461485610956;2.1472509113422125;0.8719973600624736;-0.0938105434893443;0.03682630292860706;-0.0520036708473539;4.490872790266065;0.7336927408512092;0.5383050379777596;5.60092860371817;1.3861399221602957;-0.979912307535434;0.0017907908068085115;0.08463342510451699;0.061180789232181;0.0015017411584867944;0.0774956663607626;30.0;53.7270154;86.85447353333332
-3.4223735282455414;1.3015352915077845;-1.2461461485610956;-0.0520036708473539;0.021250805930920894;-0.0520036708473539;5.60092860371817;0.6836899608020073;0.46743196250145025;5.737368668607751;1.2464958783416868;-0.9289283165086164;0.002159554386921569;0.09279086366880795;0.061180789232181;0.0004897208070486622;0.0397675130009177;30.0;53.7268499;86.85438483333333
-3.5711948161020564;0.8579346130062331;-2.0163975440279622;-0.0662791883348628;0.009637637659330296;-0.0479249515652085;5.737368668607751;0.43574367719405366;0.18987255221459565;5.737368668607751;0.8136432264517133;-0.9289283165086164;0.00261427038044446;0.09279086366880795;0.061180789232181;0.00019373951248421913;0.0254919955134087;0.0;53.726701;86.85421033333334
-2.0163975440279622;0.7774108867077979;-2.0163975440279622;-0.0479249515652085;0.009252341925030567;-0.0479249515652085;4.923725442156038;0.4090836038970035;0.16734939497736045;5.737368668607751;0.8136432264517133;-0.9289283165086164;0.0017647971333982638;0.08361374528398069;0.058121749770572;0.00012615596161763158;0.0224329560517997;0.0;53.72657876666667;86.8539857
-2.8013554378737737;0.9066462643393572;-0.9932836205999368;-0.0550627103089629;0.025856474626503458;-0.0479249515652085;5.256137983562549;0.3907889222942516;0.15271598178790263;5.256137983562549;0.7788026893186935;-0.9778729478943612;0.0003004868646222017;0.034669113898235904;0.0479249515652085;0.0002370623015012637;0.0305903946160906;30.0;53.72650386666667;86.8537316
-0.9932836205999368;1.9125870072994164;1.0219482572391776;-0.095849903130417;0.025856474626503492;-0.0550627103089629;4.477335294243855;0.5220024771109352;0.27248658610995236;5.256137983562549;0.9915305140759614;-0.9778729478943612;0.0005368560014991921;0.04588559192413577;0.0479249515652085;0.0011003988410329044;0.06627918833486279;0.0;53.7264701;86.85347596666666
1.0219482572391776;1.0275710577808186;1.0219482572391776;-0.1029876618741715;0.031697667467548415;-0.0448659121035994;4.264607469486587;0.15267480802281497;0.023309597004803402;4.477335294243855;0.29607143844165673;-0.9635974304068522;0.0009056195816122704;0.060161109411644764;0.0173345569491179;0.000328906614217391;0.035688793718772205;0.0;53.7264824;86.85319813333332
0.3633841701585036;1.2849809400061563;1.0219482572391776;-0.0448659121035994;0.03012804466747053;-0.0448659121035994;4.181263855802198;0.046741969084674255;0.0021848116739126436;4.264607469486587;0.0833436136843888;-0.9635974304068522;0.0009153238863520875;0.060161109411644764;0.0254919955134087;0.0005119020750253825;0.043846232283063;0.0;53.72655159999999;86.85290040000001
-1.4586701281926402;0.9131043874403172;0.3633841701585036;-0.0601611094116447;0.011461007647658098;-0.0448659121035994;4.186263921953894;0.20403074892201875;0.041628546505679855;4.186263921953894;0.3558651261749164;-0.9635974304068522;0.00031920230947756796;0.035688793718772205;0.0254919955134087;0.0002505790116745773;0.0316100744366268;0.0;53.72668593333333;86.85261659999999
-0.6542613052249162;0.4366787708430298;-0.6542613052249162;-0.0672988681553992;0.016003884799284294;-0.0367084735393086;3.8303987957789776;0.1832175669507263;0.03356867683934388;4.186263921953894;0.3558651261749164;-0.979912307535434;0.0008432347654277196;0.05710206995003564;0.0254919955134087;6.342456312095115e-05;0.014275517487508901;0.0;53.726875799999995;86.85236273333334
-1.351016019481832;0.7681538840108099;-0.6542613052249162;-0.0367084735393086;0.022486964966551917;-0.0367084735393086;4.084001957499129;0.18275423981802755;0.03339911217146513;4.185150840092339;0.3547520443133614;-0.979912307535434;0.0030890881480712326;0.11114510043846215;0.0418068726419904;0.00023532938994058112;0.030590394616090602;0.0;53.727091566666665;86.85212623333332
-2.1884214500861225;1.8067180950280728;1.2744157782264838;-0.0805547058223717;0.0283378054411403;-0.0367084735393086;4.185150840092339;0.20953504524235014;0.04390493518471372;4.185150840092339;0.402769675814004;-1.0043846232283062;0.0019162536038018312;0.08667278474558993;0.0418068726419904;0.0011045578287785403;0.06423982869379011;0.0;53.72732033333333;86.85187713333333
1.2744157782264838;2.031072992086727;1.2744157782264838;-0.0897318242071989;0.004672759962226962;-0.0805547058223717;3.782381164278335;0.2736790853101634;0.0749002417362077;4.304753800072031;0.5223726357936957;-1.0043846232283062;0.0019030834759406492;0.08667278474558993;0.0418068726419904;0.0013755851968691652;0.06423982869379011;0.0;53.72756203333333;86.85163243333334
-2.296117091546253;1.8218236937029801;1.2744157782264838;-0.0866727847455898;0.012749396236369332;-0.0662791883348628;4.304753800072031;0.42208797106614887;0.1781582553187381;4.304753800072031;0.8354857937687084;-0.9870500662791885;0.0007011360174518088;0.05200367084735402;0.0418068726419904;0.0010775244084319051;0.06423982869379011;0.0;53.727806466666664;86.85139046666666
