acc_X;acc_X_std;acc_X_max;acc_Z;acc_Z_std;acc_Z_max;acc;acc_std;acc_var;acc_max;acc_range;fb_tilt_max;fb_tilt_var;fb_tilt_range;tilt_max;tilt_var;tilt_range;class;lat;lon
0.396699567746828;0.8777059794155906;1.1173022739319936;-0.0458855919241358;0.03547450317294211;0.020393596410727;1.3685242645230418;0.18707459511148972;0.03499690413612781;1.5986080218399639;0.3705547176168571;-0.9931681452024064;0.00036495117467957985;0.03670847353930884;0.0112164780258998;0.00023706230150126017;0.0305903946160904;60.0;53.71360383333333;86.84130943333334
1.1173022739319936;0.8777059794155906;1.1173022739319936;0.020393596410727;0.03547450317294211;0.020393596410727;1.5986080218399639;0.18707459511148972;0.03499690413612781;1.5986080218399639;0.3705547176168571;-0.9931681452024064;0.00036495117467957985;0.03670847353930884;0.0112164780258998;0.00023706230150126017;0.0305903946160904;60.0;53.71360383333333;86.84130943333334
-0.629235770272394;1.3085676001104216;1.932005744877681;-0.0346691138982359;0.0411720061286656;0.020393596410727;1.2280533042231068;0.4858829136092389;0.23608220573740313;2.1913174997782296;0.9632641955551229;-0.9931681452024064;0.00023143033892904916;0.027531355154481574;0.0112164780258998;0.0005254187851987025;0.0448659121035994;60.0;53.71373276666666;86.84123356666667
1.932005744877681;1.432754767525357;1.932005744877681;-0.0601611094116447;0.027556520932271913;-0.0346691138982359;2.1913174997782296;0.5744550120842011;0.3299985609086597;2.1913174997782296;1.0239302168017155;-0.9957173447537474;0.005593058707678366;0.14020597532374823;0.0112164780258998;0.0006418704420765159;0.0448659121035994;60.0;53.713879733333336;86.84115866666667
-0.4614447828795391;1.8505883223619848;1.932005744877681;-0.0897318242071989;0.09098797552424688;0.0805547058223717;1.1673872829765142;0.5580436137580554;0.31141267485614976;2.1913174997782296;1.0239302168017155;-0.9957173447537474;0.005562732755366433;0.14020597532374823;0.0305903946160905;0.0010698995975649069;0.06423982869379011;60.0;53.71403816666666;86.84115496666665
-1.709627972291491;1.3280687103359754;0.9449385772889444;0.0805547058223717;0.08563084711637926;0.0805547058223717;2.0639472534189007;0.4485392908849436;0.20118749546756803;2.0639472534189007;0.8965599704423866;-0.9890894259202612;0.00594457981776265;0.14683389415723447;0.0305903946160905;0.0005514124586089291;0.0469052717446721;60.0;53.71425536666667;86.84116736666665
0.9449385772889444;1.8474928369667363;0.9449385772889444;0.0112164780258998;0.03471407062414436;0.0805547058223717;1.5892541852090787;0.7046725308111692;0.49656337567981823;2.9758134912951455;1.3865593060860668;-0.9615580707657796;0.000907005910860801;0.060161109411644764;0.0438462322830631;0.0009991968058890913;0.060161109411644695;60.0;53.714463800000004;86.84107713333333
-2.6082482608473283;3.4899401630524447;0.9449385772889444;0.0428265524625267;0.06294819754889622;0.0428265524625267;2.9758134912951455;2.3906535925844055;5.715224599736724;6.245331305602641;4.6560771203935625;-0.9615580707657796;0.000703215511324626;0.05302335066789032;0.1075762210665851;0.0038383124613320264;0.1238910981951667;60.0;53.714657666666675;86.84082726666666
-6.034557348556629;1.900644533471598;-2.6082482608473283;-0.078515346181299;0.06104751921578917;0.0428265524625267;6.245331305602641;1.8261923153097268;3.3349783724963005;6.245331305602641;3.2695178143074957;-0.9615580707657796;0.0017135029512020904;0.08157438564290809;0.1075762210665851;0.00130184980996216;0.063729988783522;60.0;53.7148042;86.84049593333333
-5.747114365452225;3.2287421001117975;-0.3040336369772092;-0.0295707147955541;0.030528017251938315;-0.0295707147955541;6.0204039713445185;2.385194181491888;5.689151283422758;6.245331305602641;4.239146308306587;-0.956969511573366;0.0019263911364318452;0.08616294483532172;0.1075762210665851;0.003415655331681754;0.1024778219639034;60.0;53.71494783333333;86.84027263333333
-0.3040336369772092;4.136185004685496;2.3692136050246027;-0.0856531049250535;0.029873892510871407;-0.0295707147955541;2.0061849972960535;2.060314698073622;4.2448966550982;6.0204039713445185;4.014218974048465;-0.956969511573366;0.001931416579957816;0.08616294483532172;0.1050270215152442;0.005558833704354893;0.14581421433669822;60.0;53.71510703333333;86.84015876666666
2.3692136050246027;2.715434221521936;2.3692136050246027;-0.0397675130009177;0.023482173208818017;-0.0397675130009177;3.207549806034067;0.933867865424557;0.8721091900726186;3.845362261348481;1.8391772640524273;-0.956969511573366;0.00019711869002751132;0.02804119506474967;0.0520036708473539;0.002152622740678856;0.0927908636688079;60.0;53.7152802;86.84012713333334
-3.061437485545186;3.1000327592211137;2.3692136050246027;-0.0713775874375446;0.04496236900666285;0.0173345569491179;3.845362261348481;0.3648212975977333;0.13309457918089387;3.845362261348481;0.637812455314414;-0.8942592026103804;0.0023605721279606235;0.09075150402773524;0.0520036708473539;0.002693291147611559;0.0927908636688079;60.0;53.715473499999995;86.84009856666667
-2.936793486514495;0.5884377925721592;-1.985643724059728;0.0173345569491179;0.07207580923313814;0.0173345569491179;3.8333439471499573;0.3851763851714632;0.14836084769375535;3.845362261348481;0.6730730319824163;-0.8942592026103804;0.004107346981127828;0.12745997756704397;0.0520036708473539;6.793013317872259e-05;0.016314877128581595;60.0;53.7156931;86.84007923333333
-1.985643724059728;0.5500157583278843;-1.982639875856245;-0.1254206179259712;0.08424143531127579;0.023452635872336;3.1722892293660645;0.4440433221496672;0.1971744719457131;3.8333439471499573;0.8441209831795495;-0.8942592026103804;0.004124676096734644;0.12745997756704397;0.0458855919241358;4.297620670490546e-05;0.012236157846436196;60.0;53.715923499999995;86.84010483333333
-1.982639875856245;1.1553007411027671;-1.982639875856245;0.023452635872336;0.07715783188467704;0.023452635872336;2.9892229639704078;0.8228486566230134;0.6770799117062978;4.497126384401797;1.5079034204313895;-0.971754868971143;0.0007558960227693377;0.04996431120628131;0.0683185479759355;0.0003784678848528902;0.034669113898235904;60.0;53.71617616666666;86.84017829999999
-3.985179690616176;1.8792284956289005;-1.982639875856245;-0.0861629448353217;0.05579506226528215;0.023452635872336;4.497126384401797;1.546712638380748;2.3923199857267345;6.082326318087943;3.093103354117535;-0.971754868971143;0.000855711728664606;0.05302335066789032;0.1029876618741715;0.0012019474584888555;0.06933822779647189;60.0;53.71648026666667;86.84033733333335
-5.738338024101621;3.4211237896882354;0.8659885922420596;-0.0132558376669725;0.050048346779763137;-0.0132558376669725;6.082326318087943;1.9023978811022757;3.6191176980224284;6.082326318087943;3.7880480087473813;-0.9381054348934434;0.0018850611957095585;0.08667278474558993;0.1029876618741715;0.003629063390379703;0.11726317936168039;60.0;53.71679223333334;86.84056396666666
0.8659885922420596;4.070430140759501;1.686003961772226;-0.1091057407973896;0.05288918453949228;-0.0132558376669725;2.2942783093405614;2.1641183359630425;4.683408172051449;6.082326318087943;3.7880480087473813;-0.9381054348934434;0.0019238784146688285;0.08667278474558993;0.1029876618741715;0.005209478733721452;0.13153869684918928;60.0;53.717104799999994;86.84085093333334
1.686003961772226;0.4609779705674098;1.686003961772226;-0.0224329560517997;0.04338534933837122;-0.0224329560517997;2.3749507954688003;0.1401792179687134;0.01965021315032006;2.3749507954688003;0.2728649551350544;-0.9381054348934434;0.0004252564969912537;0.03874783318038133;-0.0142755174875089;6.55907025718023e-05;0.0142755174875089;60.0;53.717371033333336;86.84114276666666
1.6409389620222945;1.6009402987449315;4.4361067389910005;-0.0622004690527174;0.050851259874749304;0.0387478331803813;2.102085840333746;1.3162022221555592;1.7323882896072318;4.5059669735528285;2.4038811332190826;-0.9697155093300704;5.8572410750998116e-05;0.015295197308045183;-0.0280411950647496;0.000773831657422431;0.048434791475476704;0.0;53.71761656666666;86.84140536666666
4.4361067389910005;1.7369651580032637;4.824977916915756;0.0387478331803813;0.05582223184733749;0.0387478331803813;4.5059669735528285;1.5096241573575033;2.278965096477352;4.886085796614564;2.783999956280818;-0.9768532680738248;4.470911826554607e-05;0.01325583766697258;-0.0280411950647496;0.0009141974938376532;0.0555725502192312;0.0;53.71784303333333;86.84161476666667
4.824977916915756;0.5367848832893551;4.824977916915756;0.0295707147955541;0.016261682082737608;0.0387478331803813;4.886085796614564;0.5453026787236657;0.2973550114232053;4.886085796614564;1.0753262043878182;-0.9850107066381156;0.00013828634254236543;0.022432956051800068;-0.0662791883348628;7.590152635785893e-05;0.017334556949117993;0.0;53.71805466666667;86.8417496
3.7639406674319713;0.7388533645011404;5.18516847541488;0.0071377587437544;0.026083348686923656;0.0295707147955541;3.810759592226746;0.737582827461236;0.5440284273657114;5.222974263920587;1.4122146716938415;-0.9901091057407974;8.214000797627594e-05;0.01733455694911834;-0.0662791883348628;0.00015310273638622973;0.023962475782604187;0.0;53.71825353333333;86.84183753333333
5.18516847541488;1.0581593126418027;5.832563051203206;-0.0224329560517996;0.02086194474312525;0.0178443968593861;5.222974263920587;1.0506304851888273;1.1038244164081106;5.864349966933087;2.0535903747063413;-0.9880697460997246;9.808279433454798e-05;0.019373916590191054;-0.0662791883348628;0.0003151299673099735;0.03466911389823599;0.0;53.718432799999995;86.84190586666666
5.832563051203206;0.5996314983665757;6.383127737164659;0.0178443968593861;0.026118205065860836;0.0265116753339451;5.864349966933087;0.5983355876085191;0.35800547539883193;6.418587444746665;1.1956131808260775;-0.9880697460997246;1.0744051676182855e-05;0.00611807892321814;-0.090241664117467;0.00010926007390098281;0.02090343632099531;0.0;53.71858913333333;86.84197686666666
6.383127737164659;0.3836862603686486;6.570775555348821;0.0265116753339451;0.01633345446520571;0.0265116753339451;6.418587444746665;0.37765866269712556;0.14262606551018125;6.585871462549007;0.7215214956159199;-0.9880697460997246;3.777747202281822e-05;0.012236157846436169;-0.1009483022330988;5.406684069326784e-05;0.01427551748750891;0.0;53.71872906666667;86.84204853333334
6.570775555348821;0.2629345186972594;6.570775555348821;-0.0050983991026817;0.017962965584750613;0.0265116753339451;6.585871462549007;0.24443939324895353;0.05975061697191655;6.585871462549007;0.4814659573465576;-0.9931681452024064;1.6982533294638343e-05;0.007137758743754441;-0.1060467013357805;2.114152104031499e-05;0.00917711838482721;0.0;53.7188547;86.84210589999999
6.051516685756653;0.3365351895477886;6.570775555348821;-0.0040787192821454;0.011491207983669292;-0.0040787192821454;6.1044055052024495;0.3165174972181277;0.1001833260452275;6.585871462549007;0.5966724076116199;-0.9992862241256244;3.465823120938722e-07;0.0010196798205364122;-0.1040073416947078;3.569797815004171e-05;0.01121647802589991;0.0;53.71898910000001;86.84215496666667
5.940274887947287;0.1039091792240787;6.051516685756653;-0.0244723156928724;0.015575866540755913;-0.0040787192821454;5.989199054937387;0.08442055466328827;0.007126830049657243;6.1044055052024495;0.16449614123065537;-0.9992862241256244;8.35263372248175e-05;0.016314877128581706;-0.1040073416947078;1.3863292485429168e-06;0.0020393596410726994;0.0;53.71913866666667;86.84221066666667
5.84387506656634;0.2922767771676874;5.940274887947287;-0.0346691138982359;0.008241973864234246;-0.0183542367696543;5.939909363971794;0.274854101952206;0.07554477735995366;5.989199054937387;0.49878852291954434;-0.9992862241256244;6.966304473936317e-05;0.016314877128581706;-0.0948302233098807;2.8073167283041393e-05;0.009177118384827099;0.0;53.719296533333335;86.84229173333334
5.392768008305975;0.5747008926853276;5.84387506656634;-0.0183542367696543;0.008178654305098815;-0.0183542367696543;5.490410532017843;0.5361356519995533;0.2874414373449861;5.939909363971794;1.0678315069319275;-0.9788926277148976;0.0003538605406911658;0.036708473539308506;-0.0805547058223717;0.00013967267179094628;0.02345263587233609;0.0;53.71944533333333;86.84239786666667
4.702777893118372;0.4752355695206961;5.613884044332961;-0.0254919955134087;0.014002819112276485;-0.0183542367696543;4.872077857039867;0.4397227494310299;0.1933560963671843;5.7228315064116915;0.8507536493718248;-0.9788926277148976;0.0003538605406911658;0.036708473539308506;-0.0805547058223717;0.00010085545283167535;0.019373916590190693;0.0;53.71958456666667;86.84255416666667
5.613884044332961;0.6628363059629236;5.992279463191555;-0.0453757520138676;0.012636763838768987;-0.0254919955134087;5.7228315064116915;0.6161904046833402;0.3796906148238186;6.069617563203409;1.1975397061635427;-0.9788926277148976;0.0004370402956038878;0.036708473539308506;-0.0805547058223717;0.000147990647282219;0.02243295605179979;0.0;53.719714333333336;86.84273513333333
5.992279463191555;1.0929324275770795;7.667516401045102;-0.0489446313857448;0.021415299309942383;-0.0101967982053635;6.069617563203409;1.0409684802067516;1.0836153767839543;7.67404643349791;1.9512149270862187;-0.979912307535434;0.00032890661421734795;0.035688793718772094;-0.0999286224125624;0.0003462357298242095;0.0336494340776996;0.0;53.71983886666667;86.84296206666666
7.667516401045102;1.422168911230734;8.820596085468537;-0.0101967982053635;0.021542370249129184;-0.0101967982053635;7.67404643349791;1.382719263455096;1.911912561529803;8.82249693234459;2.752879369141181;-0.979912307535434;4.9907852947587724e-05;0.012236157846435947;-0.1029876618741715;0.0006585063930590602;0.05098399102681761;0.0;53.71993773333333;86.8431548
8.820596085468537;0.8958847524585833;9.43175734205684;-0.0132558376669725;0.004120986932116759;-0.0101967982053635;8.82249693234459;0.8989089110593813;0.8080372303819627;9.446148045456217;1.7721016119583073;-0.9819516671765066;3.465823121358925e-05;0.010196798205363344;-0.133578056490262;0.0002290909083221233;0.029570714795554204;0.0;53.72001823333333;86.84332916666666
9.43175734205684;0.8838645477305687;9.43175734205684;-0.0183542367696543;0.013489096110250582;0.0071377587437544;9.446148045456217;0.8713740697621185;0.7592927694537974;9.446148045456217;1.72114197780314;-0.9819516671765066;0.00012615596161758577;0.022432956051799624;-0.1356174161313347;0.00019651217098130635;0.02753135515448149;0.0;53.72007793333333;86.84346566666666
7.689684091074036;0.9432357409677035;9.43175734205684;0.0071377587437544;0.012749396236369089;0.0071377587437544;7.725006067653077;0.9231747409740431;0.8522516023724914;9.446148045456217;1.72114197780314;-0.980422147445702;0.00017996286557675346;0.023962475782604242;-0.1356174161313347;0.00024364736543184979;0.02753135515448149;0.0;53.72013136666667;86.84360443333333
7.933850251258361;0.1268539843373893;7.933850251258361;-0.0050983991026817;0.0061180789232177;0.0071377587437544;8.006778709718374;0.14195659399104524;0.020151674577538463;8.006778709718374;0.2817726420652962;-0.980422147445702;0.00014842387517234785;0.023962475782604242;-0.1356174161313347;3.4658231213407726e-07;0.0010196798205363844;0.0;53.720183399999996;86.84374180000002
7.752076596596802;0.38400115304320775;7.933850251258361;0.0010196798205363;0.027545513733537353;0.0453757520138676;7.896028038177294;0.30288078191069534;0.09173676805083418;8.006778709718374;0.5711378981162465;-0.980422147445702;0.0001102998208373493;0.019883756500458816;-0.1264402977465076;3.153899040440561e-05;0.010196798205363483;0.0;53.72025906666667;86.84391133333334
7.196751840567491;0.649224252904061;8.49087238455959;0.0453757520138676;0.041832771119714895;0.0846334251045171;7.435640811602127;0.6891654073614996;0.4749489587037417;8.790947564674351;1.3553067530722238;-0.979912307535434;0.0001164516568777675;0.0203935964107268;-0.1264402977465076;0.00010432127595303816;0.020393596410726994;30.0;53.72034463333333;86.84407370000001
8.49087238455959;1.2774061799394854;9.751490979368944;0.0846334251045171;0.032617802695469086;0.1101254206179259;8.790947564674351;1.3066183948835806;1.7072516298481446;10.048265142274778;2.6126243306726504;-0.9727745487916796;0.00020413698184826236;0.02753135515448124;-0.1264402977465076;0.000437040295603931;0.0418068726419904;30.0;53.720437499999996;86.84421776666666
9.751490979368944;1.1008989680587233;9.751490979368944;0.1101254206179259;0.013919034179288949;0.1101254206179259;10.048265142274778;1.0435901612630012;1.0890804246849368;10.048265142274778;2.0714358526072205;-0.9727745487916796;1.3516710173274309e-05;0.007137758743754441;-0.130519017028653;0.00035801952843684344;0.037728153359845;30.0;53.720514666666666;86.8442864
7.557830735300678;1.5868017862156045;9.751490979368944;0.1070663811563169;0.0025661379406775498;0.1101254206179259;7.976829289667557;1.404715773056728;1.9732264030743605;10.048265142274778;2.6793554595277502;-0.9727745487916796;1.3516710173274309e-05;0.007137758743754441;-0.1152238197206077;0.0007448053887810114;0.05302335066789031;30.0;53.720593900000004;86.84433150000001
6.668531260252373;0.8645258303211927;7.557830735300678;0.1050270215152442;0.01827854887291209;0.1070663811563169;7.368909682747027;0.5502127422969588;0.30273406178593965;7.976829289667557;1.0983321966103556;-0.9778729478943612;1.8022280231047946e-05;0.008157438564290853;-0.1009483022330988;0.00021869343895803848;0.029570714795554218;30.0;53.720676966666666;86.84432070000001
5.829018014881943;0.4253749339836688;6.668531260252373;0.0744366268991536;0.034748996755058034;0.1050270215152442;6.878497093057201;0.26392658409112785;0.06965724179001118;7.368909682747027;0.49041258968982593;-0.979912307535434;0.00016220052207976826;0.024472315692872226;-0.1009483022330988;5.64929168782281e-05;0.01427551748750891;30.0;53.72075253333333;86.84425973333333
6.368125534172487;1.698698616255561;9.003525006265884;0.0356887937187723;0.054759749493616956;0.0744366268991536;7.292799053947437;1.4681435215057328;2.155445399739254;9.603107430298301;2.7246103372411;-0.986030386458652;0.0001064007698258206;0.018354236769654197;-0.1009483022330988;0.0009506752821900047;0.05812174977057201;30.0;53.72078846666667;86.8440738
9.003525006265884;1.4310287426496684;9.003525006265884;-0.0336494340776996;0.03466911389823591;0.0356887937187723;9.603107430298301;1.2343454917422614;1.5236087929844448;9.603107430298301;2.3103083763508643;-0.9850107066381156;0.00011887773306272973;0.01937391659019061;-0.1121647802589986;0.0006179562625391069;0.0469052717446722;0.0;53.720782533333335;86.8438716
8.652537225113626;1.1156094063504938;9.003525006265884;0.0010196798205363;0.03315135761600658;0.0326297542571632;9.201400508741854;1.129935391056124;1.276753987961156;9.603107430298301;2.1267910573175595;-0.9850107066381156;9.288405965250304e-05;0.01835423676965442;-0.1213418986438258;0.00038713244265629735;0.037728153359845;0.0;53.720746299999995;86.84364763333333
6.91979666318544;1.052245981325292;8.652537225113626;0.0326297542571632;0.02139708471572971;0.0418068726419904;7.476316372980742;1.112696169713416;1.238092766094907;9.201400508741854;2.0800566845048234;-0.9850107066381156;5.3113739334852954e-05;0.014275517487508771;-0.1172631793616804;0.0003160830686683486;0.03262975425716319;0.0;53.720707;86.84348886666668
6.751820568687112;0.5461723674655328;6.91979666318544;0.0418068726419904;0.00817865430509882;0.0489446313857448;7.12134382423703;0.6879532931035152;0.47327973349197106;7.476316372980742;1.3287182526041823;-0.9895992658305292;2.3654242803266524e-05;0.00968695829509525;-0.1029876618741715;9.288405965254496e-05;0.01835423676965431;0.0;53.72066063333333;86.84330596666666
5.901062239261567;0.9725566933869864;6.751820568687112;0.0489446313857448;0.0035809978426467855;0.0489446313857448;6.14759812037656;1.055664555396736;1.1144276535209887;7.12134382423703;2.1092622745791036;-0.9895992658305292;5.571310667588048e-05;0.014785357397777088;-0.0846334251045171;0.00026756154496926886;0.0326297542571633;0.0;53.72060663333334;86.84311543333332
4.811595780077225;0.5547026657939872;5.901062239261567;0.0458855919241358;0.005798144899640033;0.0489446313857448;5.0120815496579265;0.5949639199126456;0.353982065997821;6.14759812037656;1.1355165707186332;-0.9952075048434792;2.1834685664555496e-05;0.009177118384827043;-0.0846334251045171;8.733874265836933e-05;0.018354236769654392;0.0;53.720544366666665;86.84288250000002
5.174994324484582;0.6900924792808016;5.174994324484582;0.037728153359845;0.011905971848772491;0.0458855919241358;5.271784992154787;0.7197557358168172;0.518048319241208;5.271784992154787;1.3560493191869059;-1.0013255837666972;2.4260761849225497e-06;0.0030590394616090144;-0.0672988681553992;0.00014799064728223294;0.02345263587233609;0.0;53.7204769;86.84261876666666
3.8401953110088463;1.098448106377698;5.174994324484582;0.0224329560517997;0.03183949219128371;0.0836137452839808;3.915735672967881;1.1324717743546564;1.2824923197099836;5.271784992154787;2.2491149313727363;-1.0013255837666972;1.975519179174176e-05;0.008157438564290853;-0.0530233506678902;0.000362871680806774;0.0377281533598451;0.0;53.72040803333332;86.84232803333333
2.9964699313020646;0.42903204909725484;3.8401953110088463;0.0836137452839808;0.034206167364560294;0.0836137452839808;3.0226700607820507;0.4499566602430392;0.20246099609706983;3.915735672967881;0.8930656121858305;-0.9819516671765066;0.00020413698184827423;0.027531355154481463;-0.0530233506678902;5.129418219619837e-05;0.014275517487509007;0.0;53.7203362;86.84201726666667
3.5536142170460345;0.3457576118953015;3.5536142170460345;0.0795350260018354;0.09068464645336208;0.0836137452839808;3.565163002033145;0.3422695357894024;0.11714843512949302;3.565163002033145;0.6328005632701168;-0.9819516671765066;0.0003351450958358149;0.03466911389823568;-0.0520036708473539;2.530050878597295e-05;0.009177118384827106;30.0;53.720170700000004;86.84159576666667
2.9203060283629374;0.46756643789839797;3.5536142170460345;-0.07545630671969;0.10606140723660733;0.0795350260018354;2.932362438763028;0.4620224304717215;0.2134647262589967;3.565163002033145;0.8995527180706477;-0.9819516671765066;0.00035039471756980405;0.03466911389823568;-0.0458855919241358;5.926557537533549e-05;0.015295197308045204;0.0;53.71996403333333;86.8411587
2.641103029806251;0.1399919810437844;2.9203060283629374;-0.1233812582848985;0.059494917042118206;-0.0050983991026817;2.665610283962497;0.1333887501926786;0.017792558677964816;2.932362438763028;0.26675215480053094;-0.9870500662791885;0.00024364736543181412;0.029570714795553843;-0.0458855919241358;9.704304739839432e-06;0.006118078923218098;0.0;53.71974236666667;86.84068956666665
2.762606781507896;0.06137770750583927;2.762606781507896;-0.0050983991026817;0.0663929875687234;-0.0050983991026817;2.7958017160360042;0.06509644808194015;0.004237547552884729;2.7958017160360042;0.13019143207350714;-0.9870500662791885;0.00033176591829248603;0.03415927398796759;-0.0458855919241358;1.3863292485674244e-06;0.0020393596410726994;0.0;53.719610100000004;86.84028423333332
2.686712327350226;0.5549834333091825;3.683669386294184;-0.011981237891302;0.003714607422315839;-0.0050983991026817;2.730171285450244;0.5396492096949697;0.2912212695244053;3.695956646840559;0.9657853613903153;-0.9819516671765066;0.0004088804827428212;0.039257673090649425;-0.0479249515652084;7.798102023069974e-05;0.015295197308045405;0.0;53.71950156666666;86.83982583333334
3.683669386294184;0.5013474435060471;3.683669386294184;-0.0061180789232181;0.003385096408524207;-0.0061180789232181;3.695956646840559;0.48650991042371594;0.2366918929404921;3.695956646840559;0.9657853613903153;-0.9819516671765066;0.0003858327589857572;0.039257673090649425;-0.0479249515652084;5.9265575375336476e-05;0.015295197308045405;0.0;53.71938343333333;86.83933223333334
3.092426400825018;0.728734931809505;3.683669386294184;-0.0061180789232181;0.036500169970181184;0.0571020699500356;3.1104985937499507;0.7297862556908168;0.5325879789952221;3.695956646840559;1.4506120465603614;-0.9819516671765066;0.0003185091448532717;0.035688793718772316;-0.0397675130009177;0.0001396726717909693;0.023452635872336106;0.0;53.71922743333332;86.8388093
2.2343635339454613;0.5639900459079878;3.092426400825018;0.0571020699500356;0.04279416943145948;0.07545630671969;2.2453446002801978;0.571310795934169;0.3263960255509337;3.1104985937499507;1.0789665869514198;-1.0003059039461608;8.214000797629523e-05;0.01733455694911812;-0.0356887937187723;9.288405965256417e-05;0.018354236769654295;0.0;53.71900159999999;86.83833600000001
2.0293205214314147;0.3073548553187689;2.633707590890753;0.07545630671969;0.0491389760643619;0.07545630671969;2.031532006798531;0.30612788642027294;0.09371428284414351;2.6352843357102156;0.6037523289116846;-1.0043846232283062;4.609544751411856e-05;0.013255837666972692;-0.0356887937187723;2.9199559797510595e-05;0.010706638115631599;0.0;53.71871946666666;86.83799413333334
2.633707590890753;0.35222443359707506;2.644920114767241;-0.0173345569491179;0.05313679940866584;0.07545630671969;2.6352843357102156;0.35341477214306305;0.12490200116893316;2.651713602416163;0.6201815956176322;-0.9931681452024064;6.27313984966535e-05;0.015295197308045294;-0.0356887937187723;3.647778835237349e-05;0.010706638115631599;0.0;53.718366;86.8377772
2.644920114767241;0.9693095256338535;2.644920114767241;-0.0158050372183134;0.017530883186163325;-0.0158050372183134;2.651713602416163;0.9667073195382375;0.934523041648804;2.651713602416163;1.68254037356694;-0.9931681452024064;0.0004023820643902875;0.03976751300091785;-0.0173345569491179;0.00027665933066286553;0.029060874885286;0.0;53.71801206666667;86.83762806666665
0.9604485875576126;0.8792767952109954;2.644920114767241;-0.0469052717446721;0.042809352027319586;0.037728153359845;0.9691732288492233;0.8795766894509716;0.7736551526255309;2.651713602416163;1.68254037356694;-0.9115937595594984;0.0038266153082973714;0.12134189864382583;-0.0173345569491179;0.00020933571653038136;0.0285510349750179;0.0;53.717552899999994;86.83741636666667
2.24006268087772;0.6406074541522632;2.24006268087772;0.037728153359845;0.04355278400196971;0.037728153359845;2.255144299783505;0.6430315210155503;0.4134895370195721;2.255144299783505;1.285971070934282;-0.9115937595594984;0.0037191747915351;0.12134189864382583;-0.0173345569491179;8.421950184916101e-05;0.018354236769654402;30.0;53.717125;86.83719326666666
1.5448069184644098;0.3947147875688562;2.24006268087772;0.0132558376669725;0.01475309093111085;0.037728153359845;1.5988390571565754;0.3707501358180794;0.13745566320912433;2.255144299783505;0.6563052426269298;-0.9115937595594984;0.0015263485026483874;0.07137758743754441;-0.0265116753339451;3.569797815006986e-05;0.011216478025899902;30.0;53.71669740000001;86.83699606666666
2.2162616966389264;2.75519075878843;6.61710371088457;0.0112164780258998;0.003676507877499312;0.0132558376669725;2.2258470966954462;2.7418448495062764;7.5177131787640965;6.630211793312417;5.031372736155841;-0.8789640053023351;0.0033452124767399333;0.10400734169470771;-0.0265116753339451;0.0016577031989481736;0.07545630671969;30.0;53.716378033333335;86.8368815
6.61710371088457;2.657361198557444;6.61710371088457;0.0061180789232181;0.006686487737638174;0.0112164780258998;6.630211793312417;2.5908074825771794;6.712283411777902;6.630211793312417;4.5660835623462654;-0.8789640053023351;0.0034627038805541636;0.10706638115631695;-0.0316100744366268;0.0015190702740936353;0.0703579076170083;30.0;53.71606056666667;86.83684563333334
1.8361502406771093;2.765991114482304;6.61710371088457;-0.0020393596410727;0.015272520946712047;0.0061180789232181;2.0641282309661513;2.5917190381530193;6.717007572724812;6.630211793312417;4.5660835623462654;-0.8789640053023351;0.005001529346439566;0.133578056490262;-0.0316100744366268;0.001638207943890507;0.0703579076170083;0.0;53.715753299999996;86.8368797
1.8164436896035097;0.0615111294345707;1.931461579039088;-0.023452635872336;0.01613329837368648;-0.0020393596410727;2.222509240527054;0.21236191197467072;0.0450975816575378;2.484609428310105;0.4204811973439537;-0.986030386458652;0.000177103561501632;0.02651167533394505;-0.0316100744366268;1.126392514469566e-06;0.0020393596410728035;0.0;53.715442466666666;86.83698700000001
1.931461579039088;1.3880417494083268;1.931461579039088;-0.0336494340776996;0.043862038423548765;-0.023452635872336;2.484609428310105;0.26404116071929945;0.06971773455399491;2.484609428310105;0.5280775769894357;-0.9901091057407974;0.00013135469629963566;0.022432956051799735;0.0091771183848271;0.0005903163231462633;0.0428265524625267;0.0;53.715119433333335;86.83715036666668
-0.5281418388695169;1.4927953414153556;2.16729183753546;-0.1040073416947078;0.03682630292860698;-0.0336494340776996;1.9565318513206693;0.557025643055399;0.31027756702128084;3.0700900660644743;1.113558214743805;-0.968695829509534;0.0002207729328307953;0.028551034975017764;0.0091771183848271;0.0006581598107469533;0.0458855919241357;0.0;53.71477276666667;86.83731569999999
2.16729183753546;1.7851348477720221;2.847159090379882;-0.0499643112062812;0.037228788138123095;-0.0326297542571632;3.0700900660644743;0.839914794468679;0.7054568619673632;3.602513264366107;1.6459814130454375;-0.963087590496584;0.000203357171645932;0.027021515244213368;0.0091771183848271;0.0009153238863521219;0.0571020699500356;0.0;53.714406233333335;86.83748676666666
2.847159090379882;0.3772521672113946;2.847159090379882;-0.0326297542571632;0.01346337807711378;-0.023452635872336;3.602513264366107;0.28752560479280087;0.08267097341146591;3.602513264366107;0.5324231983016325;-0.963087590496584;0.0011637367585757706;0.06169062914244938;-0.0367084735393086;5.0947599884066126e-05;0.013255837666972595;0.0;53.714027666666674;86.8376202
2.790585626788237;1.4324964036073768;2.847159090379882;-0.023452635872336;0.0050299611117731674;-0.023452635872336;3.524469339556844;0.6909938846302802;0.47747254859644495;3.602513264366107;1.2339485313366407;-0.963087590496584;0.0015411648964922843;0.07290710716834925;-0.0061180789232181;0.0006124109455449533;0.0438462322830631;0.0;53.713642533333335;86.83773000000001
0.3381995826103552;1.2494561768846495;2.790585626788237;-0.0316100744366268;0.03965405338881024;-0.023452635872336;2.368564733029466;0.5884014255201202;0.3462162375541096;3.524469339556844;1.1559046065273777;-1.0247782196390334;3.361848427722413e-05;0.011216478025899868;-0.0061180789232181;0.0005001182764127777;0.0438462322830631;0.0;53.7132559;86.83779563333333
1.980053802800256;1.1790486078095483;2.6249721478834096;-0.095849903130417;0.0327093197355877;-0.0316100744366268;3.1377292694764254;0.6727309036081703;0.4525668686694654;3.709175265956799;1.3406105329273328;-1.0217191801774244;5.1294182196177335e-05;0.014275517487508882;-0.0061180789232181;0.0004439719418466888;0.040787192821454;0.0;53.71287156666667;86.83780383333333
2.6249721478834096;0.7797358824971711;3.5321569829685444;-0.0530233506678902;0.0698858923004165;0.040787192821454;3.709175265956799;0.6430156360480682;0.4134691082023017;4.421196939181631;1.2834676697052059;-0.9737942286122158;0.0008758135027685433;0.054043030488426624;-0.0356887937187723;0.00015007014115506036;0.0244723156928724;0.0;53.7124883;86.83776189999999
3.5321569829685444;1.0249883140987823;3.5321569829685444;0.040787192821454;0.04843300253047331;0.040787192821454;4.421196939181631;0.8281116054971536;0.6857688311590733;4.421196939181631;1.6510302751232135;-0.9737942286122158;0.0006574666461226391;0.047924951565208596;-0.0254919955134087;0.00030603218161641947;0.034669113898236;0.0;53.71210873333333;86.83768953333333
1.486532879698332;1.0580141239044685;3.5321569829685444;-0.0270215152442133;0.04801436133859276;0.040787192821454;2.7701666640584177;0.9880058229513796;0.9761555061858329;4.421196939181631;1.7657495719062757;-0.9737942286122158;0.00018438179005651718;0.02651167533394505;-0.0254919955134087;0.0003174693979169198;0.034669113898236;0.0;53.71172576666667;86.8376223
2.0405718729843896;1.072423600916576;3.5580043079481958;-0.0520036708473539;0.012739198077502522;-0.0270215152442133;2.6554473672753556;0.5554636863030817;0.3085399068014084;3.6697549414253574;1.0143075741500018;-0.9819516671765066;0.00010640076982584123;0.018354236769654197;-0.0254919955134087;0.00033791775433296325;0.0356887937187723;0.0;53.71134226666667;86.83754599999999
3.5580043079481958;0.8150139295280838;3.5580043079481958;-0.0438462322830631;0.025060070821748763;-0.0050983991026817;3.6697549414253574;0.7148780042813947;0.5110505610053497;3.6697549414253574;1.3798145411957052;-0.9829713469970428;0.00039752991202037955;0.03976751300091752;-0.0356887937187723;0.00018195571387160427;0.0254919955134087;0.0;53.710954066666666;86.83745646666667
2.283737685593759;1.1021325085425404;4.478520389453371;-0.0050983991026817;0.019382859086208154;-0.0050983991026817;2.289940400229652;1.1089772917756529;1.2298306336740616;4.4837013122936105;2.1937609120639583;-0.9829713469970428;0.00045852839895637015;0.03976751300091752;-0.040787192821454;0.00033826433664509517;0.0367084735393087;0.0;53.71057933333333;86.83734626666666
4.478520389453371;1.21721119429178;4.478520389453371;-0.0254919955134087;0.01149120798366942;-0.0050983991026817;4.4837013122936105;1.2322828537872532;1.5185210317380569;4.4837013122936105;2.1937609120639583;-0.9890894259202612;0.000649148670631384;0.04996431120628131;-0.040787192821454;0.000455495803725214;0.03721831344957689;0.0;53.71021433333333;86.83723726666666
4.293272631842263;0.17414866515743205;4.478520389453371;-0.0061180789232181;0.011185535958603884;-0.0061180789232181;4.359509342232048;0.12540719570849523;0.015726964735468828;4.4837013122936105;0.25081047873913676;-0.9890894259202612;0.0006262742380303857;0.04996431120628131;-0.0734169470786173;6.3251271965015864e-06;0.004588559192413591;0.0;53.70983033333332;86.83709219999999
4.130464085232908;0.26939549022481263;4.293272631842263;-0.0061180789232181;0.0005887124188737665;-0.0050983991026817;4.232890833554474;0.19344827708002985;0.037422235905232006;4.359509342232048;0.37992025013791864;-0.9911287855613338;0.0005749800558342067;0.04792495156520871;-0.0652595085143265;4.167652303441031e-05;0.012745997756704389;0.0;53.709510366666656;86.83696850000001
3.767074222645972;0.5657013385969317;4.130464085232908;-0.0050983991026817;0.01972845499599799;0.0285510349750178;3.9795890920941295;0.43162141885433897;0.1862970492138327;4.232890833554474;0.8413324910838664;-0.9850107066381156;0.00028107825514254634;0.03161007443662667;-0.0520036708473539;0.00011679823918996684;0.021413276231263406;0.0;53.7092335;86.8368367
3.020860284869951;0.641042310228481;3.767074222645972;0.0285510349750178;0.02918137661110259;0.0530233506678902;3.3915583424706073;0.447072838226469;0.1998741226798705;3.9795890920941295;0.87735682384699;-0.9829713469970428;1.8022280231044666e-05;0.008157438564290964;-0.0428265524625267;0.00012719570855406078;0.022432956051799804;0.0;53.70903073333333;86.83673633333335
2.491094449975084;1.2810286239283004;3.020860284869951;0.0530233506678902;0.013111248103046088;0.0530233506678902;3.1022322682471395;0.6551102973011265;0.42916950162997025;3.3915583424706073;1.2513365761333994;-0.9829713469970428;5.961215768740921e-05;0.014275517487508993;-0.0101967982053635;0.0004827891608059585;0.0418068726419904;0.0;53.7087904;86.83664959999999
0.5851217466811355;1.6359369260698569;2.491094449975084;0.0489446313857448;0.012530035410874453;0.0723972672580809;2.140221766337208;0.579861325935947;0.3362391573161946;3.1022322682471395;1.0419146176175555;-0.9829713469970428;5.094759988400352e-05;0.014275517487508993;0.0132558376669725;0.0007933269124801304;0.0560823901294992;0.0;53.70851150000001;86.83660963333334
-0.7650028236555388;0.7468132054724895;0.5851217466811355;0.0723972672580809;0.06147183866798367;0.1651881309268889;2.060317650629584;0.24095655339065;0.058060060621901166;2.140221766337208;0.4515242642592321;-0.9901091057407974;1.3516710173283745e-05;0.007137758743754441;0.0132558376669725;0.000168785586010436;0.023452635872336;30.0;53.70820333333333;86.83667693333332
0.4632887313766693;0.63274725655797;0.4632887313766693;0.1651881309268889;0.049539371738421226;0.1651881309268889;1.6886975020779758;0.23229374606995612;0.05396038446321326;2.060317650629584;0.42727436207522773;-0.9901091057407974;0.0004938797947942831;0.040787192821454044;0.0132558376669725;0.00012165039155989364;0.0214132762312633;30.0;53.707910433333325;86.83690456666666
0.1129272671209452;0.7868123522665698;1.6166997974739514;0.0887121443866625;0.07724200837529545;0.1651881309268889;1.6330432885543562;0.2521801847500056;0.06359484558054695;2.0949919141670796;0.46194862561272343;-0.9952075048434792;0.000319202309477577;0.035688793718772205;-0.0020393596410727;0.00019269976554784133;0.0265116753339451;30.0;53.7077129;86.83739823333333
1.6166997974739514;0.7531450752239082;1.6166997974739514;0.0107066381156316;0.06662406710122286;0.0887121443866625;2.0949919141670796;0.30921136607731897;0.09561166891140177;2.0949919141670796;0.5870467874587477;-0.9931681452024064;0.0003559400345640308;0.03772815335984503;-0.0020393596410727;0.00017606381456529581;0.0265116753339451;0.0;53.70763933333333;86.83806706666667
0.940203489976134;0.7227927248170272;1.6166997974739514;-0.0438462322830631;0.03106399527693793;0.0107066381156316;1.507945126708332;0.4733265713020274;0.2240380431005332;2.0949919141670796;0.9366767046143851;-0.9931681452024064;0.00016220052207980434;0.02447231569287256;-0.003059039461609;0.00016254710439197879;0.025491995513408798;0.0;53.70767383333333;86.83888663333333
0.1720825694096227;0.43011958439087145;0.940203489976134;-0.0423167125522585;0.052548148648342674;0.0479249515652085;1.1583152095526945;0.19294121764225033;0.03722631346527421;1.507945126708332;0.3496299171556374;-0.9931681452024064;0.0003663375039281275;0.03772815335984503;-0.003059039461609;5.7467679631140466e-05;0.013255837666972598;0.0;53.707732299999996;86.83970456666667
0.891555103373439;1.1291566509661206;2.385667180220327;0.0479249515652085;0.04631505776083939;0.0479249515652085;1.4745449168949376;0.7552259644193944;0.5703662573332043;2.5955304702072843;1.4372152606545898;-1.00336494340777;0.0001895805247385945;0.02753135515448135;-0.003059039461609;0.0003888870156115228;0.0387478331803814;0.0;53.70774283333333;86.84057696666666
2.385667180220327;1.0540858333234475;2.9266377946285345;-0.0152951973080452;0.03220881099640473;0.0479249515652085;2.5955304702072843;0.8090105446100125;0.6544980612901892;3.0455018076191553;1.5709568907242177;-0.9972468644845518;0.0003212818033503913;0.0336494340776996;-0.0160599571734474;0.0003278018830974867;0.034924033853370104;0.0;53.70769043333333;86.84132669999998
2.9266377946285345;0.3135960411860144;2.930998857061491;0.0056082390129499;0.019642626071525872;0.0056082390129499;3.0455018076191553;0.24633713917048985;0.060681986134701285;3.0455018076191553;0.449971337411871;-0.9952075048434792;1.8022280231058537e-05;0.008157438564290853;-0.0418068726419904;2.8073167283065093e-05;0.009177118384827099;0.0;53.7076008;86.84204773333333
2.930998857061491;0.1383709185331514;3.168454026728488;-0.0336494340776996;0.019787656939012205;0.0056082390129499;2.99426971451652;0.10030910540388936;0.010061916626928586;3.187865534725352;0.19359582020883215;-0.9952075048434792;5.094759988401918e-05;0.013255837666972914;-0.0509839910268175;7.819763417596292e-06;0.004843479147547701;0.0;53.70751106666666;86.8426492
3.168454026728488;0.23680959885323016;3.168454026728488;-0.0096869582950953;0.013834741843536424;-0.0096869582950953;3.187865534725352;0.24592412179931625;0.06047867368276493;3.187865534725352;0.48836720773453823;-0.9952075048434792;0.00012719570855402945;0.022432956051799735;-0.0479249515652085;1.587780217476653e-05;0.007902518609156702;0.0;53.707434533333334;86.84326386666665
2.6948354161901342;0.3120043585937514;3.168454026728488;-0.0336494340776996;0.013834741843536424;-0.0096869582950953;2.6994983269908137;0.32194283469577933;0.10364718881195388;3.187865534725352;0.6075906335778098;-0.9952075048434792;0.00012719570855402945;0.022432956051799735;-0.0448659121035994;3.1993879689107464e-05;0.0109615580707658;0.0;53.707357699999996;86.84388676666667
2.579786485576974;0.53833276625425;3.5643920203388544;-0.0336494340776996;0.008830686283108305;-0.0183542367696543;2.580274901147542;0.5406167837609265;0.29226650688400835;3.5705524250344625;0.9902775238869204;-0.9656367900479248;0.0006803410787236153;0.05200367084735413;-0.0448659121035994;6.550405699379032e-05;0.015295197308045301;0.0;53.70728276666667;86.8445201
3.5643920203388544;0.618835342333164;3.7215394038155214;-0.0183542367696543;0.04104554323303309;0.0438462322830631;3.5705524250344625;0.6251988718755902;0.3908736293945106;3.736574541733129;1.156299640585587;-0.9656367900479248;0.00037881446716497884;0.03670847353930884;-0.0448659121035994;0.00011263925144433263;0.020393596410727105;0.0;53.70720826666667;86.84511973333333
3.7215394038155214;0.7192416390173556;3.7215394038155214;0.0438462322830631;0.038483064064060886;0.0520036708473539;3.736574541733129;0.7243572820735964;0.5246934720930476;3.736574541733129;1.32936891581015;-0.9656367900479248;0.00037153623861011436;0.03670847353930884;-0.0418068726419904;0.00015214963502787606;0.023452635872336106;0.0;53.70715756666667;86.84563223333333
2.404658750621792;0.7142957080098141;3.7215394038155214;0.0520036708473539;0.032343037328079305;0.1034975017844396;2.407205625922979;0.7212934308297463;0.520264213358146;3.736574541733129;1.32936891581015;-0.9941878250229428;1.802228023106004e-05;0.008157438564290853;-0.0418068726419904;0.00015968780031684352;0.023452635872336106;0.0;53.70714546666667;86.8461236
2.583490815846196;0.2350687518189637;2.583490815846196;0.1034975017844396;0.03459530848807165;0.1034975017844396;2.586734073525443;0.23272383975425556;0.05416038558996442;2.586734073525443;0.4616624748672651;-0.9941878250229428;0.00017710356150165592;0.02549199551340875;-0.037728153359845;1.464310268778377e-05;0.0076475986540225985;30.0;53.70721816666667;86.84660589999999
2.1175296019067096;0.5238405034361336;3.163152030005934;0.037728153359845;0.061486636811272366;0.1034975017844396;2.125071598658178;0.5216523584204935;0.2721211830456631;3.166158578812317;1.0410869801541391;-1.0003059039461608;0.00010085545283166638;0.01937391659019072;-0.037728153359845;8.014715968155195e-05;0.017844396859386095;30.0;53.707429166666664;86.84701316666667
3.163152030005934;0.634834421603547;3.264079168112086;-0.0193739165901906;0.03627156540417816;0.037728153359845;3.166158578812317;0.632331669056697;0.39984333969202823;3.267413644451836;1.142342045793658;-1.0008157438564291;9.678311066406382e-05;0.018864076679922404;-0.037728153359845;0.00011601842898766249;0.019373916590190596;0.0;53.707725366666665;86.84727523333333
3.264079168112086;0.34328218248504183;3.801738252108789;-0.0295707147955541;0.005395638444100142;-0.0193739165901906;3.267413644451836;0.34196516631191576;0.11694017497073621;3.8025600301996123;0.6364014513872953;-1.0008157438564291;3.4918167947723044e-05;0.011726317936167963;-0.0555725502192311;4.0636776098005186e-05;0.011726317936168108;0.0;53.70812526666666;86.84741913333333
3.801738252108789;1.0627413974231303;5.313765207820861;-0.0214132762312633;0.00623034661630227;-0.0173345569491179;3.8025600301996123;1.0631476868756884;1.130283004109127;5.317138001422982;2.049724356971146;-1.0008157438564291;3.543804141592898e-05;0.011726317936167963;-0.0571020699500356;0.00035905927537327177;0.0367084735393087;0.0;53.708466433333335;86.84749576666667
5.313765207820861;0.7599254454954385;5.313765207820861;-0.0173345569491179;0.0026978192220498435;-0.0173345569491179;5.317138001422982;0.7608229473905677;0.5788515572760705;5.317138001422982;1.5145779712233693;-1.0013255837666972;3.223215502866917e-05;0.011216478025899868;-0.0672988681553992;0.00017883647306236744;0.026511675333945092;0.0;53.708766966666666;86.84758296666666
4.42436915226312;0.517951988594168;5.313765207820861;-0.0224329560517997;0.010042681555823413;-0.0173345569491179;4.432983541225414;0.5092681945375118;0.259354093967497;5.317138001422982;0.8841544601975677;-1.0013255837666972;1.2823545549030846e-05;0.007137758743754441;-0.0774956663607627;8.87250719069161e-05;0.016314877128581595;0.0;53.70895383333333;86.8476589
4.409117422204597;0.12271962633063645;4.628889130011478;-0.0367084735393086;0.010465180869678455;-0.0224329560517997;4.437150449697651;0.1523739823124137;0.023217830485743766;4.6989618023687205;0.2659782611433066;-1.0003059039461608;4.505570057755017e-06;0.0040787192821454266;-0.0774956663607627;4.245633323682607e-06;0.0035688793718771927;0.0;53.70916256666666;86.84775669999999
4.628889130011478;0.18722979370076132;4.781568095311586;-0.0428265524625267;0.009345519924453517;-0.0244723156928724;4.6989618023687205;0.2509634153565863;0.06298263584744244;4.938918660204205;0.5017682105065546;-0.9992862241256244;7.27822855484523e-06;0.005098399102681839;-0.0774956663607627;9.444368005727303e-06;0.006118078923218098;0.0;53.70936123333333;86.84784443333335
4.781568095311586;0.32337732717274187;5.24950385309995;-0.0244723156928724;0.009177118384827045;-0.0244723156928724;4.938918660204205;0.42053637873245064;0.17685084583740315;5.517057748109755;0.8180959457410344;-0.9982665443050882;1.0397469363883722e-06;0.0020393596410726023;-0.0810645457326399;3.127905367031595e-05;0.010706638115631703;0.0;53.70955036666666;86.8479397
5.24950385309995;0.23405599229791418;5.24950385309995;-0.0336494340776996;0.009177118384827094;-0.0152951973080452;5.517057748109755;0.3224301097569273;0.10396117567786418;5.517057748109755;0.5781390879055497;-0.9982665443050882;3.153899040439051e-05;0.010196798205363455;-0.0836137452839808;1.6982533294690723e-05;0.008157438564290798;0.0;53.7096918;86.84801286666668
5.026658812374563;0.5180339263350998;5.24950385309995;-0.0152951973080452;0.01990335606805657;0.0061180789232181;5.475374386694362;0.33014547329639854;0.10899603353810298;5.517057748109755;0.5915298386803025;-0.9982665443050882;5.4066840693257665e-05;0.014275517487508882;-0.07545630671969;7.520836173359772e-05;0.016314877128581595;0.0;53.709831400000006;86.84808420000002
4.261820805056975;0.7563861933370803;5.7745615935782455;0.0061180789232181;0.010722811294209687;0.0061180789232181;4.925527909429452;0.6972143016080822;0.4861077823668458;6.310214629926439;1.3846867204969868;-0.9931681452024064;0.00010432127595302645;0.01937391659019072;-0.07545630671969;0.00015622197719546865;0.0249821556031406;0.0;53.709972566666664;86.84814856666667
5.7745615935782455;0.87728480080782;5.787994645168079;-0.0056082390129499;0.024982155603140568;0.0061180789232181;6.310214629926439;0.7863230859163669;0.6183039954450381;6.310214629926439;1.3846867204969868;-0.979912307535434;0.00026929445652991327;0.03262975425716308;-0.07545630671969;0.0001998913485246472;0.0249821556031406;0.0;53.71012163333333;86.84822936666666
5.787994645168079;0.039476205375313315;5.787994645168079;-0.0418068726419904;0.03594401499646739;-0.0056082390129499;6.263544562369084;0.07029726864567956;0.004941705979042842;6.310214629926439;0.13818949182364548;-0.979912307535434;0.0001690455227444712;0.026001835423676734;-0.0994187825022942;6.065190462450656e-07;0.0015295197308045905;0.0;53.71026516666666;86.84831316666667
5.713900250482735;0.3149865735851869;6.292733512729208;-0.0774956663607627;0.02659651291185157;-0.0254919955134087;6.172025138102794;0.29913103208538483;0.08947937435646752;6.729796831839797;0.5577716937370036;-0.979912307535434;0.00017389767511437812;0.026001835423676734;-0.0994187825022942;2.7120065924675198e-05;0.009686958295095402;0.0;53.7104031;86.8483999
6.292733512729208;0.7349559558425434;7.173442862846064;-0.0254919955134087;0.026003501513796486;-0.0254919955134087;6.729796831839797;0.7164432765822525;0.513290968559914;7.593951211266545;1.4219260731637515;-0.9870500662791885;0.00010718058002813506;0.018864076679922293;-0.1009483022330988;0.00014175216566377058;0.023452635872336106;0.0;53.71052936666666;86.84845789999999
7.173442862846064;0.7396450205460539;7.762402303943759;-0.0520036708473539;0.019807351598291622;-0.0254919955134087;7.593951211266545;0.7249487706139726;0.5255507200147103;8.170129974390722;1.4403331425509247;-0.9870500662791885;5.094759988401101e-05;0.013255837666972359;-0.1091057407973896;0.00019027368936285643;0.02753135515448149;0.0;53.710652366666665;86.84851263333333
7.762402303943759;1.304791646277004;7.762402303943759;-0.0642398286937901;0.007720890990517237;-0.0520036708473539;8.170129974390722;1.201457433737037;1.4434999650819866;8.170129974390722;2.3083649617588904;-0.9870500662791885;0.00020413698184828784;0.028551034975017653;-0.0938105434893443;0.00048660156623943677;0.0428265524625268;0.0;53.7108245;86.84862503333333
5.266266660427119;1.2878063548393615;7.762402303943759;-0.0662791883348628;0.009474429737103614;-0.0642398286937901;5.861765012631832;1.1866851410880566;1.4082216240791805;8.170129974390722;2.3083649617588904;-0.99214846538187;0.00014175216566375066;0.023452635872336147;-0.0938105434893443;0.0005004648587248924;0.0428265524625268;0.0;53.7109831;86.84878363333333
5.964501998997846;0.40195878411929986;5.964501998997846;-0.0815743856429081;0.01684787564174392;-0.0479249515652085;6.5381888988941945;0.4129473853852033;0.17052554309647563;6.610360524951345;0.7485955123195129;-0.99214846538187;0.0001757172322531216;0.023452635872336147;-0.0938105434893443;4.2976206704913145e-05;0.012236157846436196;0.0;53.711132066666664;86.8489838
5.960439617123407;0.4385719660499948;5.964501998997846;-0.0479249515652085;0.021054186691069045;-0.0428265524625267;6.610360524951345;0.31365727622374795;0.09838088692810051;6.610360524951345;0.5757487662489513;-0.99214846538187;0.00012719570855402576;0.022432956051799957;-0.0912613439380034;6.420437332326474e-05;0.014785357397777088;0.0;53.711214899999995;86.84916903333334
5.202850027009335;0.6843691013649935;5.960439617123407;-0.0428265524625267;0.002697819222049779;-0.0428265524625267;6.034611758702393;0.5274679957877939;0.27822248658039217;6.610360524951345;1.0534150276126173;-1.0013255837666972;5.8572410751032465e-05;0.013255837666972692;-0.0805547058223717;0.00016384678806246656;0.02549199551340879;0.0;53.7113105;86.84942676666667
4.594412979780857;0.42412586195642016;5.202850027009335;-0.0469052717446721;0.0051322758813571265;-0.0367084735393086;5.556945497338727;0.3434497191390274;0.11795770957667681;6.034611758702393;0.6663250438172845;-0.9962271846640156;8.664557803385337e-06;0.005098399102681617;-0.0764759865402263;5.8312474016950176e-05;0.014785357397777102;0.0;53.71141583333334;86.8497369
4.386770672689409;0.33964178634664904;4.594412979780857;-0.0367084735393086;0.015020821721888594;-0.0173345569491179;5.368286714885109;0.2976031228974031;0.0885676187582868;5.556945497338727;0.5832146069239439;-0.9941878250229428;1.3516710173290183e-05;0.007137758743754441;-0.0683185479759355;3.8817218959281646e-05;0.012236157846436196;0.0;53.711514799999996;86.8500748
3.930472969805981;0.24372165958229583;4.386770672689409;-0.0173345569491179;0.01937391659019063;-0.0173345569491179;4.9737308904147834;0.19853477160070737;0.039416055534545046;5.368286714885109;0.39455582447032533;-0.9941878250229428;9.704304739789573e-06;0.006118078923218029;-0.0683185479759355;1.975519179178291e-05;0.008157438564290798;0.0;53.7115963;86.85039523333334
4.307097566088703;0.2585878301824362;4.425735480297009;-0.0560823901294993;0.019807351598291608;-0.0173345569491179;5.209640947763527;0.13617033467199924;0.01854236004468428;5.209640947763527;0.23591005734874315;-0.9941878250229428;1.2476963236882823e-05;0.006118078923218029;-0.0683185479759355;2.3221014913146517e-05;0.009177118384827196;0.0;53.71166466666667;86.85070253333333
4.425735480297009;0.066525346886835;4.425735480297009;-0.0438462322830631;0.006146338098645391;-0.0438462322830631;5.209528669249583;0.1091032501843762;0.011903519200794584;5.209640947763527;0.18902848683081874;-1.0003059039461608;4.990785294762063e-05;0.01223615784643628;-0.07545630671969;1.039746936419601e-06;0.0020393596410726994;0.0;53.711738833333335;86.85101563333335
4.3142566792567845;0.624727979025645;5.44774117998443;-0.0489446313857448;0.007234219317423719;-0.0438462322830631;5.020612460932708;0.5334018795317249;0.28451756508797676;6.024348132691021;1.0037356717583128;-1.0003059039461608;4.055013051994082e-05;0.01223615784643628;-0.0764759865402263;0.00011887773306277702;0.019373916590190693;0.0;53.71181023333333;86.85130036666665
5.44774117998443;0.5724231712869553;5.44774117998443;-0.058121749770572;0.004597990978711846;-0.0489446313857448;6.024348132691021;0.5033982303760075;0.25340977834569595;6.024348132691021;1.0037356717583128;-1.00336494340777;2.1141521040310398e-05;0.009177118384827043;-0.0764759865402263;9.600330046177765e-05;0.019373916590190693;0.0;53.71188216666667;86.85156856666667
5.020334948066185;0.5710605218521903;6.151274834735219;-0.0530233506678902;0.004120986932117032;-0.0530233506678902;5.5904167448132;0.513763011980656;0.2639524324794357;6.61400190318324;1.0235851583700404;-1.00336494340777;1.3516710173309688e-05;0.007137758743754441;-0.0887121443866625;0.00010709393445013993;0.020393596410727105;0.0;53.7119465;86.85180356666667
6.151274834735219;0.5733715209899674;6.151274834735219;-0.061180789232181;0.006686487737638315;-0.0530233506678902;6.61400190318324;0.5164273592885081;0.2666972174217018;6.61400190318324;1.0235851583700404;-1.0003059039461608;2.911291421944372e-05;0.010196798205363677;-0.0887121443866625;0.000105361022889458;0.020393596410727105;0.0;53.71200796666667;86.8520357
5.750109282099168;0.2916211364424078;6.151274834735219;-0.0662791883348628;0.01233489501486962;-0.0428265524625267;6.221778216016901;0.2744497866564545;0.07532268539577339;6.61400190318324;0.5286603221642441;-1.0003059039461608;3.4658231213619505e-05;0.010196798205363677;-0.0978892627714897;3.3618484277232847e-05;0.01121647802589991;0.0;53.712068433333336;86.85227536666666
5.584047392298187;0.38447783572041133;5.750109282099168;-0.0428265524625267;0.021445622588419613;-0.023452635872336;6.085341581018996;0.3086996245698062;0.09529545820953932;6.221778216016901;0.5896827535839924;-0.9870500662791885;5.857241075100699e-05;0.013255837666972359;-0.0866727847455898;5.649291687823316e-05;0.014275517487508993;0.0;53.71213133333333;86.852526
5.016857447771459;0.5339015076614273;5.584047392298187;-0.023452635872336;0.014575834704728922;-0.0142755174875088;5.6320954624329085;0.4116956167224773;0.1694932808285009;6.085341581018996;0.821942981247215;-0.9870500662791885;0.0001002705951799149;0.019628836545324435;-0.0795350260018354;8.560583109768654e-05;0.018354236769654295;0.0;53.71219786666666;86.85276320000001
4.516951217246828;0.6421350990097487;5.791395804729749;-0.0142755174875088;0.005974778502174079;-0.0142755174875088;5.263398599771781;0.5821719465977759;0.33892417540544373;6.404208997839259;1.1408103980674777;-0.9870500662791885;0.00020706127010694032;0.028041195064749558;-0.0795350260018354;0.00014452482416086628;0.02345263587233609;0.0;53.71226909999999;86.8530051
5.791395804729749;0.7422037868345865;5.813296131333994;-0.0254919955134087;0.025066984898531368;-0.0142755174875088;6.404208997839259;0.6589322115741181;0.4341916594499583;6.40519570030199;1.1417971005302086;-1.0066789028245129;4.347441877861576e-05;0.013000917711838644;-0.0795350260018354;0.00019166001861140858;0.024472315692872393;0.0;53.71234189999999;86.8532315
5.813296131333994;0.624419022558745;5.813296131333994;-0.0622004690527174;0.018354236769654288;-0.0254919955134087;6.40519570030199;0.5791895148333878;0.33546049409293516;6.40519570030199;1.0036786542001277;-1.011522381972061;1.6722596560593107e-05;0.008157438564290631;-0.0836137452839808;0.0001320478609239566;0.020393596410726994;0.0;53.712418899999996;86.8534621
4.720986809856107;0.701953498299528;5.813296131333994;-0.0438462322830631;0.017846824503347986;-0.0265116753339451;5.401517046101862;0.6654849031706347;0.44287015634802906;6.40519570030199;1.2588613468401668;-1.009483022330988;2.9112914219462498e-05;0.010196798205363455;-0.0795350260018354;0.00017190482681963694;0.024472315692872393;0.0;53.712494166666666;86.8536739
4.503360480399432;0.6881126829747978;5.789023796573445;-0.0265116753339451;0.008672275464581687;-0.0265116753339451;5.146334353461823;0.5931911695254255;0.35187576360294215;6.2773142764766305;1.1309799230148077;-0.9850107066381156;0.0002176536920216069;0.026511675333945273;-0.0795350260018354;0.00011645165687782146;0.020393596410726994;0.0;53.7125725;86.85388876666667
5.789023796573445;0.6514199061476613;5.789023796573445;-0.0356887937187723;0.02039200309876617;-0.0265116753339451;6.2773142764766305;0.5669380037471327;0.3214187000927838;6.2773142764766305;1.1309799230148077;-0.9850107066381156;0.0001567418506636245;0.02447231569287245;-0.0795350260018354;0.00010709393445013974;0.020393596410726994;0.0;53.712647733333334;86.85410906666668
5.328801175665837;0.5552751643835417;5.789023796573445;-0.0655144284694605;0.014912998941158334;-0.0356887937187723;5.781962824943765;0.5907287944327325;0.34896050857194955;6.2773142764766305;1.176573852750276;-0.9819516671765064;3.0412597889900586e-05;0.010706638115631995;-0.0805547058223717;9.60033004617771e-05;0.019373916590190693;0.0;53.71270526666666;86.85435433333333
4.683619461500354;1.1660516927054174;5.328801175665837;-0.0504741511165494;0.013908914923731634;-0.037728153359845;5.1007404237263545;1.146051873020728;1.3134348956543191;5.781962824943765;2.235936164044439;-0.9819516671765064;0.00017788337170394686;0.026511675333945717;-0.0540430304884266;0.0003923311773383549;0.0387478331803813;0.0;53.712701966666664;86.8545985
3.0653767175334443;1.0766729808726425;5.104799653940176;-0.037728153359845;0.009624142710830794;-0.0316100744366268;3.546026660899326;0.9504857208941997;0.9034231056237665;5.270705110540062;1.7246784496407361;-0.9819516671765064;0.0005087828342161551;0.04486591210359958;-0.0540430304884266;0.0003753486440436746;0.037728153359845;0.0;53.712618600000006;86.85477966666667
5.104799653940176;1.0225188697918552;5.104799653940176;-0.0316100744366268;0.010465180869678473;-0.0316100744366268;5.270705110540062;0.8847453406227316;0.7827743177536333;5.270705110540062;1.7246784496407361;-0.9870500662791885;0.0003961435827718392;0.03976751300091752;-0.0540430304884266;0.0003628716808067665;0.037728153359845;30.0;53.71246936666666;86.85479256666667
3.9539391023056503;0.663350706241186;5.104799653940176;-0.0520036708473539;0.012749396236369216;-0.0285510349750178;4.0656763217269525;0.713844801472695;0.5095744005895914;5.270705110540062;1.2655772989393732;-0.9870500662791885;0.0005271516967593587;0.03976751300091752;-0.0683185479759355;0.00018334204312013772;0.02345263587233609;0.0;53.71232046666666;86.85466073333333
3.957755459966061;0.5833052275749042;3.957755459966061;-0.0285510349750178;0.01725439671866626;-0.0183542367696543;4.005127811600689;0.6201902706496538;0.3846359718084908;4.0656763217269525;1.1031947199003933;-0.9870500662791885;0.00018334204312009215;0.023452635872336036;-0.0520036708473539;8.8725071906915e-05;0.01631487712858161;0.0;53.712197;86.85440926666666
2.945538396631083;0.8666620591479337;3.957755459966061;-0.0183542367696543;0.028714444458710436;0.0254919955134087;2.962481601826559;0.890450180487541;0.7929015239302942;4.005127811600689;1.7716715494110824;-0.9870500662791885;0.00015700178739774584;0.023452635872336036;-0.0392576730906495;0.00021219502060548974;0.029060874885286005;0.0;53.712081000000005;86.85407993333335
2.2330937547276597;0.3584990719268032;2.945538396631083;0.0254919955134087;0.02294468418033048;0.0254919955134087;2.2334562621896064;0.36603784832354247;0.1339837064053287;2.962481601826559;0.7290253396369528;-1.006423982869379;4.245633323667602e-06;0.0040787192821454266;-0.0392576730906495;4.1156649566202425e-05;0.012745997756704396;0.0;53.711953;86.85371300000001
2.519446712690517;0.18998321629383064;2.519446712690517;0.0152951973080452;0.012292676197290983;0.0254919955134087;2.5401531915784794;0.17552052926278125;0.03080745619268685;2.5401531915784794;0.30669692938887305;-1.0003059039461608;1.637601424843192e-05;0.007647598654022758;-0.037728153359845;1.2043735346749041e-05;0.0066279188334862;0.0;53.71179026666667;86.85328573333334
2.1599779430015986;0.19088808245756475;2.519446712690517;0.0010196798205363;0.009637637659330109;0.0193739165901906;2.2389023479117736;0.18146228538271342;0.032928561016317325;2.564803637854641;0.3259012899428675;-1.0003059039461608;1.949525505765462e-05;0.007647598654022758;-0.037728153359845;1.2043735346748967e-05;0.0066279188334862;0.0;53.711614966666666;86.85282883333332
2.4510740483191857;0.3895971748295337;2.9314694188283057;0.0193739165901906;0.02148598705588398;0.0438462322830631;2.564803637854641;0.40454649948528193;0.16365787024579523;3.0431913377898447;0.8042889898780712;-1.0003059039461608;6.793013317871512e-05;0.014275517487509104;-0.037728153359845;5.23339291325995e-05;0.014275517487508896;0.0;53.71142096666667;86.85231056666667
2.9314694188283057;0.2795186375471646;2.938874686310024;0.0438462322830631;0.01781767094535346;0.0540430304884266;3.0431913377898447;0.29189195268186163;0.08520091204043015;3.09375884227507;0.5289552044204289;-1.0003059039461608;5.649291687822316e-05;0.014275517487509104;-0.0428265524625267;2.8073167283055077e-05;0.009177118384827196;0.0;53.71123266666667;86.85180653333333
2.938874686310024;0.6751674555616987;2.938874686310024;0.0540430304884266;0.00513227588135701;0.0540430304884266;3.09375884227507;0.5542710383315033;0.3072163839330827;3.09375884227507;0.9843100018400199;-0.9911287855613338;0.00016254710439193853;0.023452635872336147;-0.0305903946160905;0.0001528427996521409;0.021413276231263396;0.0;53.711036400000005;86.85132866666667
1.7657653009813687;0.590157342887534;2.938874686310024;0.0479249515652085;0.0030590394616084727;0.0540430304884266;2.10944884043505;0.49397986789989057;0.24401610989039335;3.09375884227507;0.9843100018400199;-0.9911287855613338;0.0001719048268196186;0.024472315692872337;-0.0305903946160905;0.00011541190994141545;0.021413276231263396;30.0;53.71082363333333;86.85092816666668
2.239546567553386;0.4046149549267923;2.5708005187133613;0.0509839910268175;0.0017661372566206486;0.0509839910268175;2.5281280298285878;0.39064746338172207;0.1526054406465739;2.8900564319742097;0.7806075915391597;-0.9911287855613338;0.0002498858470503027;0.029570714795554176;-0.0305903946160905;5.9265575375327206e-05;0.015295197308045298;0.0;53.71057046666667;86.85061526666665
2.5708005187133613;1.0378955301359534;4.179824074733681;0.0509839910268175;0.04120986932117233;0.0509839910268175;2.8900564319742097;0.9922140145715498;0.9844886507121916;4.398832396112259;1.8707043662836713;-1.0043846232283062;6.966304473941169e-05;0.016314877128581706;-0.0397675130009177;0.00032128180335040576;0.0336494340776996;0.0;53.7102933;86.85043196666668
4.179824074733681;1.6049181160259702;4.179824074733681;-0.020393596410727;0.03894967812188984;0.0509839910268175;4.398832396112259;1.4059424810291283;1.9766742599623408;4.398832396112259;2.809313551868698;-1.0043846232283062;0.00010848026369868808;0.01937391659019072;-0.0173345569491179;0.0007863952662373881;0.05608239012949941;0.0;53.709997166666675;86.85034916666666
0.9699913462942756;1.7093973593420302;4.179824074733681;-0.011726317936168;0.007429214844632698;-0.011726317936168;1.589518844243561;1.583123052219536;2.5062785984689;4.398832396112259;2.809313551868698;-0.9758335882532884;0.0005812185374526337;0.047924951565208596;-0.0173345569491179;0.0009049264169880198;0.05608239012949941;0.0;53.709689133333335;86.8503654
1.5556685884449917;1.6216301738940657;1.5556685884449917;-0.0265116753339451;0.008393024183315006;-0.011726317936168;1.7294014028284743;0.09916736405673976;0.009834166093961962;1.7294014028284743;0.1917080671892919;-0.9758335882532884;0.0006283537319031849;0.047924951565208596;0.0265116753339451;0.00080303121721993;0.0530233506678902;0.0;53.70935370000001;86.85041396666668
-1.4997394686212826;2.209638372448914;1.5556685884449917;-0.0122361578464361;0.007161995685294528;-0.0122361578464361;1.5376933356391824;0.6449278612210483;0.4159319461791557;2.7381884201043802;1.2004950844651978;-0.9758335882532884;0.00039545041814751807;0.03670847353930873;0.0469052717446721;0.001436237101493039;0.0734169470786172;0.0;53.7089729;86.8505025
-2.737151425830329;0.7535313702774232;-1.3734371827792822;-0.0183542367696543;0.01273579687651336;0.0061180789232181;2.7381884201043802;0.7395337800884381;0.5469102118918943;2.7381884201043802;1.3484716395502925;-0.9809319873559702;0.00044119928334955506;0.03976751300091774;0.0469052717446721;0.0001538825465885537;0.0224329560517997;30.0;53.7085748;86.8505908
-1.3734371827792822;0.9686303214020097;-0.8636791415559791;0.0061180789232181;0.013844133003239929;0.0061180789232181;1.3897167805540878;0.949580741867786;0.9017035853261748;2.7381884201043802;1.8323933798570882;-0.9809319873559702;0.0004585283989563754;0.03976751300091774;0.0469052717446721;0.0002644423041600491;0.0316100744366269;0.0;53.708202766666666;86.85070516666667
-0.8636791415559791;1.0804841761957629;0.7000809498016687;0.0050983991026817;0.009139274436455916;0.0061180789232181;0.9057950402472922;0.28072720074086766;0.0788077612358034;1.3897167805540878;0.4885132898358443;-1.0013255837666972;9.808279433459009e-05;0.01937391659019072;0.0244723156928724;0.0003649511746795879;0.0367084735393086;0.0;53.707885733333335;86.85081480000001
0.7000809498016687;1.223442774487054;0.7000809498016687;-0.0101967982053635;0.020059463212915137;0.0295707147955541;0.9012034907182435;0.5671087631037676;0.3216123491890852;1.8857524079170251;0.9845489171987817;-1.0013255837666972;0.00012191032829396756;0.02192311614153164;0.0305903946160905;0.0004710053621933105;0.0428265524625267;0.0;53.70759856666666;86.85093723333334
-1.7116541353949706;1.2062288494078397;0.7000809498016687;0.0295707147955541;0.0203680884627695;0.0295707147955541;1.8857524079170251;0.5333640832520885;0.28447724530334084;1.8857524079170251;0.9845489171987817;-1.0013255837666972;0.00020075780430499972;0.02651167533394516;0.0305903946160905;0.0004588749812685384;0.0428265524625267;30.0;53.707316166666665;86.85107296666666
-0.4546542101513161;1.387113555328359;1.0586243958655854;0.0173345569491179;0.022625253037819957;0.0295707147955541;1.0379089572189444;0.4315714445961242;0.18625391179078546;1.8857524079170251;0.8478434506980808;-0.9931681452024064;0.00035464035089353307;0.034669113898236015;0.0305903946160905;0.000600280564620168;0.0489446313857448;0.0;53.70702943333333;86.85120436666666
1.0586243958655854;0.7835145518231512;1.0586243958655854;-0.0142755174875089;0.01825008498509051;0.0173345569491179;1.6019479466850757;0.300811233818501;0.09048739839140887;1.6019479466850757;0.5640389894661313;-0.9819516671765066;0.000572207397337085;0.04588559192413577;0.0081574385642908;0.00018819419549004983;0.0265116753339451;0.0;53.70674076666666;86.8513253
0.6543713215673199;0.5951723727500143;1.0586243958655854;-0.0142755174875089;0.03885501964567683;-0.0142755174875089;1.5011940276848847;0.05372299387863776;0.0028861600712841505;1.6019479466850757;0.10075391900019093;-0.9819516671765066;0.0006283537319031788;0.047924951565208596;0.0020393596410727;0.00010709393445014451;0.020393596410727;0.0;53.7064322;86.85140073333332
-0.113102599614181;0.4223637986559199;0.6543713215673199;-0.0815743856429081;0.03885501964567683;-0.0142755174875089;1.5838969221049939;0.12427363935438648;0.015443937438384119;1.7455281976968504;0.24433417001196567;-0.9819516671765066;0.0005812185374526493;0.047924951565208596;0.0020393596410727;5.441342300541967e-05;0.0132558376669725;0.0;53.70610076666667;86.8513765
0.5762670988743985;0.3997645926315148;0.5762670988743985;-0.0815743856429081;0.01295167321522555;-0.0591414295911083;1.7455281976968504;0.14612353163639336;0.021352086497892053;1.875574499464728;0.2916775773597342;-0.9788926277148976;0.0006623187984925497;0.05098399102681761;0.0020393596410727;4.9907852947647626e-05;0.0122361578464362;30.0;53.70580346666666;86.85116453333332
-0.1191487764709169;0.45749714995987917;0.5762670988743985;-0.0591414295911083;0.0530070071263165;0.0193739165901906;1.875574499464728;0.130453648517283;0.01701815441147081;2.0064350711863366;0.26090687348948616;-0.9788926277148976;0.00045783523433209065;0.04078719282145393;0.0050983991026817;6.550405699378301e-05;0.0152951973080452;0.0;53.70556896666667;86.85062283333333
-0.286424816124302;0.6632238125879789;0.936779578105235;0.0193739165901906;0.041823449515219824;0.0193739165901906;2.0064350711863366;0.22124521538697686;0.04894944533162978;2.307071676851425;0.4314971773866967;-0.9788926277148976;0.000416678584765888;0.04078719282145393;0.0050983991026817;0.00013412735479677833;0.0214132762312632;0.0;53.705408999999996;86.84993379999999
0.936779578105235;1.29782727458475;2.307825902897823;0.0050983991026817;0.007516177012166585;0.0193739165901906;2.307071676851425;0.6161634585075894;0.37965740760003375;3.1917342657752212;1.1852991945888847;-0.99775670439482;0.00012381653101070528;0.02192311614153153;0.0050983991026817;0.0005271516967593965;0.0458855919241357;0.0;53.7052376;86.849148
2.307825902897823;1.0297922120322123;2.307825902897823;0.0081574385642908;0.028593490069063626;0.0081574385642908;3.1917342657752212;0.5241758661927144;0.2747603386988824;3.1917342657752212;0.929476133206649;-0.99775670439482;0.0032118649321456368;0.10451718160497603;-0.0056082390129499;0.00032518085436194155;0.0351789538085041;0.0;53.705043233333335;86.84847576666665
0.2912918534907711;1.0508078637595666;2.307825902897823;-0.0428265524625267;0.0484571477155203;0.0081574385642908;2.262258132568572;0.5199355392283832;0.27033296495270964;3.1917342657752212;0.929476133206649;-0.9982665443050882;0.0031917631580417314;0.10400734169470782;-0.0056082390129499;0.0003390441468473952;0.0351789538085041;30.0;53.70481756666666;86.84780636666666
0.7869339467840594;1.0569038371346269;2.31868907141152;-0.0887121443866625;0.024583590193211286;-0.0428265524625267;2.3231961456707135;0.4794402598300827;0.2298629627459372;3.1214634102923253;0.8592052777237531;-0.9982665443050882;0.003037447383563028;0.10400734169470782;-0.0056082390129499;0.00034970155294558836;0.0356887937187723;0.0;53.704608199999996;86.84718740000001
2.31868907141152;1.1790167458810392;3.1054016481354214;-0.0504741511165493;0.01946983317594498;-0.0504741511165493;3.1214634102923253;0.6745006651390714;0.45495114727304964;3.6640996397281733;1.3409034940574598;-0.9564596716630978;0.0010054352875075033;0.062200469052717366;-0.0137656775772407;0.00038912529095109735;0.038237993270113194;0.0;53.704359866666664;86.84645266666666
3.1054016481354214;0.39498509233100826;3.1054016481354214;-0.0632201488732537;0.011009866650858431;-0.0504741511165493;3.6640996397281733;0.3242989275516819;0.10516979441117102;3.6640996397281733;0.5790011092289333;-0.9564596716630978;0.001112875804269748;0.062200469052717366;-0.0412970327317222;2.971943326570293e-05;0.010706638115631696;0.0;53.704128999999995;86.84572686666667
2.649979582492097;0.23551158759819668;3.1054016481354214;-0.0723972672580809;0.0318286050334372;-0.0132558376669725;3.08509853049924;0.30760851784975235;0.09462300025372142;3.6640996397281733;0.5790011092289333;-0.9564596716630978;0.0004751643499388549;0.041806872641990456;-0.0448659121035994;1.6982533294692014e-05;0.0071377587437544965;0.0;53.70393093333333;86.84504240000001
2.9818068017256185;0.5690343543908966;3.7586648038277337;-0.0132558376669725;0.030041643443777338;-0.0132558376669725;3.194495538799573;0.4098537187755773;0.16798007079417;3.843334122025564;0.7582355915263239;-0.9666564698684612;0.0003589942911896846;0.03390435403283365;-0.0448659121035994;0.00011289918817842593;0.0209034363209952;0.0;53.703818899999995;86.84453783333333
3.7586648038277337;0.4073016973712789;3.7586648038277337;-0.0336494340776995;0.028936877269695346;0.023452635872336;3.843334122025564;0.3285392220779123;0.10793802044355977;3.843334122025564;0.6488385832259911;-0.9982665443050882;0.00023335820304030356;0.027531355154481574;-0.0520036708473539;5.6926144768405126e-05;0.013765677577240704;0.0;53.70376006666667;86.84406940000001
3.5824921371274008;0.17814403696119924;3.938772965844765;0.023452635872336;0.030454133829036438;0.023452635872336;3.6087504081012525;0.17152919674826544;0.02942226533710516;3.942824775618195;0.3340743675169424;-0.99214846538187;0.00030666036205714083;0.033649434077699825;-0.0642398286937901;4.24563332368015e-06;0.004078719282145413;0.0;53.70371183333333;86.84362863333332
3.938772965844765;0.18242255763838192;3.938772965844765;0.0132558376669725;0.0051322758813572966;0.023452635872336;3.942824775618195;0.17351318296387258;0.030106824662254318;3.942824775618195;0.3340743675169424;-0.99214846538187;0.00034623572982420614;0.033649434077699825;-0.0642398286937901;5.545316994191469e-06;0.004078719282145413;0.0;53.70367123333333;86.8432211
3.692574143318289;0.4351289055532578;4.538550513810312;0.0193739165901906;0.00561595854724788;0.0193739165901906;3.6944474928132363;0.43454713701006636;0.1888312142836454;4.539902511423726;0.8454550186104899;-0.9890894259202612;9.357722427652915e-06;0.006118078923218029;-0.0642398286937901;5.406684069327994e-05;0.01427551748750891;0.0;53.70362406666667;86.84287526666667
4.538550513810312;0.44589298944721534;4.538550513810312;0.0081574385642908;0.007715277837473953;0.0193739165901906;4.539902511423726;0.44225671404718137;0.19559100111981037;4.539902511423726;0.8454550186104899;-0.9890894259202612;0.00021739375528750894;0.02804119506474967;-0.0642398286937901;5.3113739334904955e-05;0.01427551748750891;0.0;53.703589666666666;86.8424654
3.8712169591762655;0.4031175272496215;4.538550513810312;0.0045885591924135;0.010021089009758661;0.023452635872336;3.8920586722150374;0.3866878418705246;0.14952748705048383;4.539902511423726;0.6897172601309487;-0.9890894259202612;0.0003530807304889002;0.035688793718772205;-0.0683185479759355;3.301196523099661e-05;0.010196798205363497;0.0;53.703573733333336;86.84203986666667
3.813079362510355;0.7996735392966745;5.226307950478971;0.023452635872336;0.009569972621801445;0.023452635872336;3.8501852512927774;0.826999909898329;0.6839288509718443;5.303068718927771;1.4528834676349938;-0.9809319873559702;0.0005485531545337994;0.04384623228306317;-0.0683185479759355;0.00014929033095274137;0.021413276231263392;0.0;53.70356666666667;86.84160613333331
5.226307950478971;0.9187178188901247;5.226307950478971;0.0112164780258998;0.006555624051522969;0.023452635872336;5.303068718927771;0.9114952697400787;0.8308236267585387;5.303068718927771;1.6800234567863859;-0.9809319873559702;0.00048486865467873603;0.04384623228306317;-0.061180789232181;0.00022077293283086414;0.028551034975017896;0.0;53.70357093333333;86.84120933333334
3.5027295416657025;1.3134939281876736;5.226307950478971;0.0214132762312633;0.010196798205363471;0.0316100744366268;3.6230452621413853;1.294259607873599;1.6751079325731224;5.303068718927771;2.545433871501762;-0.9697155093300704;0.0002228524267036289;0.029570714795553954;-0.0448659121035994;0.0005157144804588978;0.0448659121035995;0.0;53.7035741;86.84081143333333
2.6476154291490466;0.44063384765472896;3.5027295416657025;0.0316100744366268;0.005887124188738869;0.0316100744366268;2.7576348474260093;0.44409219419623386;0.1972178769460255;3.6230452621413853;0.865410414715376;-0.9697155093300704;0.0004266428262398148;0.03976751300091763;-0.0448659121035994;6.793013317873548e-05;0.016314877128581602;0.0;53.70358276666667;86.84039343333332
2.89062044930866;0.2332627179109869;2.89062044930866;0.0214132762312633;0.01019679820536347;0.0316100744366268;3.0172728961003723;0.22428282926316703;0.05030278750229093;3.0172728961003723;0.44659879841899475;-0.9697155093300704;0.000555571446354545;0.041806872641990456;-0.0428265524625267;1.8022280231101983e-05;0.008157438564290798;0.0;53.70360063333334;86.83999316666666
2.424232586053923;0.9971652511655207;4.336675571619541;0.0112164780258998;0.011231917094495864;0.0214132762312633;2.5706740976813776;0.9237443139033997;0.8533035574688628;4.346494932280622;1.7758208345992448;-1.0084633425104517;2.4260761849511396e-06;0.0030590394616092365;-0.0428265524625267;0.0003081116754892249;0.0336494340776996;0.0;53.7036175;86.83952363333333
4.336675571619541;1.2918637263028279;4.336675571619541;-0.0010196798205363;0.006230346616302271;0.0112164780258998;4.346494932280622;1.267474745501264;1.606492230483494;4.346494932280622;2.4545379939760124;-0.9962271846640156;6.550405699376157e-05;0.015295197308045294;-0.0326297542571632;0.0005264585321351251;0.04384623228306311;0.0;53.70363773333333;86.83898066666666
1.875908621819316;1.2792357705357393;4.336675571619541;0.0071377587437544;0.0047096993509909485;0.0071377587437544;1.89195693830461;1.2553630734041645;1.57593644606675;4.346494932280622;2.4545379939760124;-0.9809319873559702;0.00019027368936283816;0.027531355154481463;-0.0326297542571632;0.0005264585321351251;0.04384623228306311;0.0;53.7036516;86.83838866666666
2.4998252930667597;0.7013361745118749;2.4998252930667597;0.0071377587437544;0.02472592159270339;0.0071377587437544;2.6617964158074456;0.5516403528926196;0.3043070789394939;2.6617964158074456;1.0693403849750205;-0.9809319873559702;0.00019027368936283816;0.027531355154481463;-0.0193739165901906;0.0001382863425424169;0.023452635872336102;0.0;53.70366986666667;86.83773279999998
1.0999040538743956;0.7346202480981235;2.4998252930667597;-0.0356887937187723;0.02205904726499835;0.0071377587437544;1.5924560308324252;0.5776443729494365;0.3336730216001476;2.6617964158074456;1.0693403849750205;-0.9503415927398796;0.0008453142593005218;0.05812174977057205;-0.0193739165901906;0.0001570017873977801;0.023452635872336102;0.0;53.7036982;86.8367798
1.4136443739123328;0.7018373233659889;2.4416379799422314;-0.0050983991026817;0.03317226011342771;-0.0050983991026817;1.7484411026767013;0.535552724501361;0.2868167207208307;2.5881640211214525;0.9957079902890273;-0.9503415927398796;0.0015620464807985096;0.07545630671969017;-0.0193739165901906;0.0001719048268196438;0.0244723156928725;0.0;53.7037272;86.8357848
2.4416379799422314;0.6348727125162917;2.4416379799422314;-0.0713775874375446;0.033515269260948895;-0.0050983991026817;2.5881640211214525;0.5934112981758796;0.35213696880278267;2.5881640211214525;1.1461946965090581;-0.9503415927398796;0.001486578182330815;0.07545630671969017;-0.0224329560517997;0.00014591115340941715;0.0214132762312634;0.0;53.703758300000004;86.8348175
1.282186342903519;0.7209131433850443;2.4416379799422314;-0.0295707147955541;0.04386203842354876;0.0163148771285816;1.4419693246123944;0.7222716866955864;0.5216763894020873;2.5881640211214525;1.3344825703840208;-0.9911287855613338;0.0003151299673099657;0.034669113898236015;-0.0193739165901906;0.00017779672612596147;0.0244723156928725;0.0;53.70378476666667;86.83412716666668
1.1196849678075156;1.0661565782054734;1.282186342903519;0.0163148771285816;0.03394681410461598;0.0163148771285816;1.2536814507374316;0.22228605899255455;0.049411092022441434;1.4419693246123944;0.44291898403961183;-0.9911287855613338;4.011690262976377e-05;0.011216478025899868;0.0112164780258998;0.0003462357298242255;0.0336494340776995;0.0;53.70383293333333;86.83344146666667
-0.6403314423441577;0.9417139588002741;1.1196849678075156;-0.0499643112062812;0.035169100449636045;0.0163148771285816;0.9990503405727825;0.2036928190062367;0.041490764514707505;1.2536814507374316;0.4027144327968062;-0.9911287855613338;0.00035386054069119847;0.03670847353930862;0.0112164780258998;0.00026860129190568456;0.0305903946160904;0.0;53.7039031;86.83277776666667
-0.3410402230673555;1.6395623357851856;2.3372661706571045;0.0035688793718772;0.0285252278398983;0.0035688793718772;0.8509670179406255;0.8687887927337;0.75479396637968;2.424320320079832;1.5733533021392063;-1.0023452635872336;0.000551412458608923;0.04690527174467207;0.0112164780258998;0.0008903699598782921;0.0540430304884265;0.0;53.7040046;86.83200886666667
2.3372661706571045;1.396842322846914;2.3372661706571045;-0.0061180789232181;0.045442535814877186;0.0035688793718772;2.424320320079832;0.7915546054040198;0.6265586933363134;2.424320320079832;1.5733533021392063;-1.0013255837666972;0.0005763663850827415;0.047924951565208485;0.0061180789232181;0.0006408306951401211;0.0489446313857448;30.0;53.7040485;86.8313189
1.6862347440435208;2.37848445451762;2.3372661706571045;-0.0795350260018354;0.05562942984666888;-0.0061180789232181;1.7896161007033355;0.31845221824584763;0.10141181530570095;2.424320320079832;0.6347042193764962;-1.0013255837666972;0.0006574666461226432;0.047924951565208485;0.0367084735393086;0.0018157447332823404;0.0795350260018353;30.0;53.7040513;86.8306561
-2.0691420262024085;1.8943103503079697;1.6862347440435208;-0.1152238197206077;0.06575419639765165;0.0122361578464362;2.152776084675283;0.7750793320562224;0.6007479709807197;2.152776084675283;1.4866968574326336;-0.9646171102273886;0.0005711676504006794;0.04486591210359947;0.0367084735393086;0.0011177279566397366;0.06627918833486271;30.0;53.70401196666666;86.8301389
0.2422445200588065;2.3392177956482563;2.609183623682052;0.0122361578464362;0.09536232635661554;0.0713775874375446;0.6660792272426496;1.061955643664344;1.127749789110551;2.7230290825365397;2.0569498552938903;-0.9646171102273886;0.00060339980542936;0.04486591210359947;0.0367084735393086;0.0017055315580229852;0.0825940654634444;30.0;53.70399836666667;86.82952796666666
2.609183623682052;1.1918671045871236;2.609183623682052;0.0713775874375446;0.053631022817204964;0.1193025390027531;2.7230290825365397;1.0471382881533244;1.0964985945166748;2.7230290825365397;2.0569498552938903;-0.9646171102273886;0.0003975299120203635;0.03976751300091763;-0.0040787192821454;0.0004439719418466771;0.0418068726419904;30.0;53.703973133333335;86.82892246666667
1.1810897787286752;1.223976170176001;2.609183623682052;0.1193025390027531;0.026083348686923864;0.1193025390027531;1.353652771561672;0.9284360623065383;0.8619935217912702;2.7230290825365397;1.7707760684021718;-0.9819516671765066;0.00020379039953615278;0.02651167533394505;-0.003059039461609;0.00046407371595058627;0.0428265524625268;30.0;53.703842;86.82836466666667
0.1732877028954434;0.8794911367522625;1.9256939313647732;0.0774956663607627;0.07791715062611318;0.1193025390027531;0.9522530141343679;0.7236729830238722;0.5237025863586695;2.3572229768113386;1.4049699626769707;-0.9819516671765066;0.00018438179005651653;0.02651167533394505;-0.003059039461609;0.00023532938994059668;0.030590394616090602;30.0;53.703540833333335;86.8280635
1.9256939313647732;1.6072414023325317;1.9256939313647732;-0.0316100744366268;0.06963002200542073;0.0774956663607627;2.3572229768113386;0.7144883559676668;0.5104936108133794;2.3572229768113386;1.4049699626769707;-0.9992862241256244;2.530050878593716e-05;0.009177118384827265;0.0224329560517997;0.0007884747601102087;0.0560823901294993;30.0;53.703139099999994;86.8280031
-1.2842784696529703;1.7924866676077202;1.9256939313647732;-0.0520036708473539;0.03226659674737315;-0.0316100744366268;1.8806259885618533;0.25377655999424575;0.06440254240251302;2.3572229768113386;0.4765969882494854;-0.9992862241256244;0.0005687415742157419;0.04180687264199068;0.0224329560517997;0.0009943446535191991;0.0560823901294993;0.0;53.70271506666666;86.82815933333335
-1.0617116155012845;0.16719217975056708;-0.9568754657589392;-0.0948302233098807;0.023162672971551966;-0.0520036708473539;1.9677652609989533;0.10433331754630257;0.010885441150217608;2.0883948447847542;0.20776885622290098;-0.9727745487916796;0.0011863512544427043;0.0683185479759355;0.0224329560517997;9.357722427699478e-06;0.006118078923218102;60.0;53.702338700000006;86.82835469999999
-0.9568754657589392;0.49889347541978174;-0.1499675630583009;-0.0887121443866625;0.06247844893714703;0.0163148771285816;2.0883948447847542;0.09138897214467429;0.008351944229660051;2.147001078475067;0.1792358174761135;-0.9727745487916796;0.0015329335665790517;0.0683185479759355;0.0193739165901906;8.032045083761658e-05;0.016824717038849798;60.0;53.701960799999995;86.82850586666666
-0.1499675630583009;0.7053591128930975;-0.1499675630583009;0.0163148771285816;0.0529481286059377;0.0163148771285816;2.147001078475067;0.42990346534660673;0.18481698951702108;2.8605808262731696;0.7721859814884153;-0.9727745487916796;0.001975865761489286;0.07749566636076233;0.0285510349750178;0.00016921881390059057;0.026001835423676997;60.0;53.70159213333333;86.82858946666666
-1.555553821962628;0.8770712118565288;0.0560886809211315;-0.0479249515652085;0.057250580135693334;0.0163148771285816;2.8605808262731696;0.3569811968678404;0.12743557491719582;2.8605808262731696;0.7135797477981027;-0.9737942286122158;0.0016701801621850387;0.07647598654022614;0.0285510349750178;0.0002605432531485167;0.0295707147955541;0.0;53.70123253333333;86.82863093333333
0.0560886809211315;0.8395614463192409;0.0560886809211315;-0.0978892627714897;0.025369338849035795;-0.0479249515652085;2.483550339712484;0.19663340312188735;0.03866469522329466;2.8605808262731696;0.3770304865606855;-1.0069338227796472;0.0004930999845919639;0.04333639237279474;0.0285510349750178;0.000233249896067779;0.0295707147955541;90.0;53.700859799999996;86.82863366666668
-1.1578337817551196;1.0790514375259284;0.0560886809211315;-0.0652595085143265;0.02011984444709385;-0.061180789232181;2.5752146933594484;0.3998292553368227;0.15986343342319814;3.2173422064688073;0.7337918667563232;-0.945243193637198;0.00218875394671905;0.09177118384827165;0.0346691138982359;0.0003226681325989567;0.0356887937187722;90.0;53.700489299999994;86.8286301
-2.096139584116317;2.2374760137982634;2.162285463916397;-0.061180789232181;0.002122632812751865;-0.061180789232181;3.2173422064688073;0.5601522964094978;0.31377059517283395;3.6913042219489265;1.116089528589478;-0.945243193637198;0.0028365162881018764;0.10604670133578031;0.0346691138982359;0.0015606601515499923;0.07443662689915359;90.0;53.7001144;86.82863066666668
2.162285463916397;3.359229540082704;2.162285463916397;-0.0642398286937901;0.016261682082737695;-0.0346691138982359;3.6913042219489265;1.145963105553042;1.313231439288772;5.3962846772090645;2.178942470740257;-0.945243193637198;0.0028239526792869334;0.10604670133578031;0.078515346181299;0.003575689714310723;0.1182828591822167;90.0;53.699763999999995;86.82866426666668
-4.467219427447722;3.549237645015896;2.162285463916397;-0.0346691138982359;0.03163199543401644;-0.0346691138982359;5.3962846772090645;0.8568913814047563;0.7342628395257514;5.3962846772090645;1.704980455260138;-0.7953502600183542;0.018566761043456288;0.25593963495462413;0.078515346181299;0.0037503671996274423;0.1182828591822167;90.0;53.699366;86.82871
-3.349854579329744;2.3995558036529836;0.1333964462955825;-0.0978892627714897;0.052876076934696266;0.0071377587437544;4.393562116298212;1.461688080697043;2.136532045251805;5.3962846772090645;2.8794922135908867;-0.7953502600183542;0.011115241332524789;0.20903436320995206;0.078515346181299;0.0016473057295840813;0.0805547058223717;90.0;53.69898436666667;86.82874650000001
0.1333964462955825;1.8402028865683213;0.1333964462955825;0.0071377587437544;0.06879879822239705;0.0316100744366268;2.5167924636181778;1.135447937408751;1.289242018565787;4.393562116298212;2.045646226724698;-0.7953502600183542;0.0033448658944278432;0.11216478025899856;0.0469052717446721;0.0006574666461226693;0.0489446313857448;90.0;53.69862036666667;86.82878356666667
-0.5790246599178335;1.543470958137619;2.378387523476131;0.0316100744366268;0.04045551042176909;0.0316100744366268;2.347915889573514;0.43822805765872097;0.19204383051933527;3.177164231987317;0.8292483424138029;-0.875904965840726;0.0002778723687552672;0.03161007443662678;0.0091771183848271;0.0005722073973371241;0.0458855919241357;90.0;53.6983275;86.82878083333333
2.378387523476131;2.093546625915814;3.466605136875433;-0.0474151116549403;0.04409550336103381;0.0316100744366268;3.177164231987317;0.7858894487202203;0.6176222256097718;3.918882167071768;1.570966277498254;-0.8825328846742122;0.00045254985407199244;0.04231671255225855;0.0091771183848271;0.001123273273633916;0.06525950851432641;90.0;53.69802416666667;86.82874203333334
3.466605136875433;2.4070173136531094;3.466605136875433;-0.0418068726419904;0.002987389251087038;-0.0418068726419904;3.918882167071768;0.8240826074415314;0.6791121438876331;3.918882167071768;1.6455068837306448;-0.8825328846742122;0.002085819000014545;0.09126134393800356;0.0193739165901906;0.00153570622507617;0.0754563067196899;90.0;53.69773276666666;86.82866396666668
-1.1386653095639114;2.3820276912347325;3.466605136875433;-0.0428265524625267;0.05563565969492701;0.0540430304884266;2.273375283341123;0.8279149908931239;0.6854432321455615;3.918882167071768;1.6455068837306448;-0.9248495972264708;0.008501317534392478;0.1784439685938617;0.0193739165901906;0.001623044967734529;0.0754563067196899;90.0;53.69741136666667;86.82857296666667
2.2202751970807446;1.6868498511892314;2.2202751970807446;0.0540430304884266;0.04875662087289492;0.0540430304884266;3.2560037330501292;0.7154035079676169;0.511802179212372;3.2560037330501292;1.3920014818999291;-0.9737942286122158;0.004679900960777099;0.12949933720811668;0.0193739165901906;0.0009714702209181955;0.0622004690527173;90.0;53.69711553333334;86.82850753333332
0.8137999363640771;0.7066148336724842;2.2202751970807446;-0.0040787192821454;0.03103469422157908;0.0540430304884266;1.8640022511502001;0.749305219273621;0.5614583116306893;3.2560037330501292;1.3920014818999291;-1.0767818904863873;0.0010771778261198005;0.06525950851432682;-0.0152951973080452;0.0001937395124842324;0.0275313551544815;90.0;53.6968239;86.8284719
1.6365535708474683;0.7632976726136784;1.6365535708474683;0.0061180789232181;0.04942117156849768;0.0061180789232181;2.0792495826651303;0.5933479165401379;0.35206175006252244;2.0792495826651303;1.1182851767958484;-1.044152136229224;0.00248430201339336;0.09788926277149002;-0.0020393596410727;0.00023532938994059438;0.030590394616090498;90.0;53.6965706;86.82850020000001
0.1115442496976323;0.7952748522979117;1.6365535708474683;-0.084123585194249;0.050559909896475;0.0061180789232181;0.9609644058692819;0.5603282874004577;0.31396778966113;2.0792495826651303;1.1182851767958484;-1.012542061792597;0.004558597151529397;0.12949933720811702;-0.0020393596410727;0.00024260761849545745;0.030590394616090498;90.0;53.69632383333334;86.82856916666667
1.265387893632302;1.2336933472775435;1.265387893632302;-0.078515346181299;0.037341495515077684;-0.0168247170388497;1.4570033770773507;0.2570982753714344;0.06609952319896592;1.4570033770773507;0.49603897120806884;-1.012542061792597;0.00035594003456398276;0.0336494340776996;0.0219231161415315;0.0004929266934359353;0.0443560721933312;90.0;53.696066300000005;86.82865296666667
-1.200311696989765;1.4119455024583523;1.265387893632302;-0.0168247170388497;0.03450000442687299;-0.0168247170388497;1.3262765761517525;0.07572621411039562;0.005734459503493482;1.4570033770773507;0.13159221707872382;-1.012542061792597;0.0056551835871287955;0.14377485469562568;0.023452635872336;0.0006792146862092222;0.0458855919241357;90.0;53.69577520000001;86.82874586666667
-1.1595250092119715;1.8927180284196943;2.098175138532639;-0.0744366268991536;0.029557526339626283;-0.0168247170388497;1.325411159998627;0.5081707780960486;0.2582375397107435;2.206021155570974;0.8806099955723472;-0.91669215866218;0.014386285194467685;0.23962475782604276;0.023452635872336;0.001058549026842456;0.057102069950035604;90.0;53.6954778;86.82879833333334
2.098175138532639;1.7601889060780007;2.098175138532639;-0.0571020699500356;0.0332348887282407;-0.0101967982053635;2.206021155570974;0.44047765711636616;0.19402056641872306;2.206021155570974;0.8806099955723472;-0.91669215866218;0.01465661939793403;0.23962475782604276;0.023452635872336;0.0009985036412648314;0.057102069950035604;90.0;53.69517026666667;86.82878946666666
1.6248930054491155;0.34689674182939784;2.098175138532639;-0.0101967982053635;0.0510383449772501;0.0448659121035994;1.7443567095296075;0.3360669939760789;0.11294102444011786;2.206021155570974;0.6538836711524512;-0.91669215866218;0.0033885352657570408;0.10910574079738977;-0.0254919955134087;1.69825332946947e-05;0.008157438564290902;90.0;53.69489813333333;86.82872213333333
1.422199273285442;1.3011216920350241;3.7703081229023567;0.0448659121035994;0.028912912977990875;0.0448659121035994;1.552137484418523;1.2599583643297092;1.5874950798443963;3.8242006963544615;2.2720632119359383;-0.974813908432752;0.000662318798492527;0.05098399102681783;-0.0254919955134087;0.00046407371595058377;0.03874783318038139;90.0;53.69461726666666;86.82868873333332
3.7703081229023567;2.5833099942464175;3.7703081229023567;0.0020393596410727;0.04488135913869426;0.0448659121035994;3.8242006963544615;1.3109137958692445;1.7184949802003113;3.8242006963544615;2.2720632119359383;-0.9238299174059346;0.0025993673410225626;0.10196798205363522;0.0224329560517997;0.0018850611957096106;0.08667278474558979;90.0;53.6942947;86.82880136666667
-1.3893780212052362;3.754424086169969;3.7703081229023567;-0.0448659121035994;0.044380483096411516;0.0438462322830631;1.555128265293907;1.2559487693283808;1.5774073111774745;3.8242006963544615;2.269072431060555;-0.9238299174059346;0.0024465245413704097;0.09890894259202576;0.0632201488732537;0.004236968765866869;0.1274599775670438;90.0;53.69380040000001;86.82898973333333
-3.533974580173068;1.0898699925773718;-1.3893780212052362;0.0438462322830631;0.09961076756130097;0.1539716529009891;3.622780047344844;1.0554273542704642;1.113926900142352;3.622780047344844;2.0676517820509375;-0.9238299174059346;0.002529011131658865;0.09890894259202576;0.0632201488732537;0.0004283757378005451;0.040787192821453995;90.0;53.6933444;86.82913106666666
-2.7992840636469767;0.4334990090094784;-2.7992840636469767;0.1539716529009891;0.10910732907215402;0.1539716529009891;2.9569117375203677;0.42290220520198424;0.1788462751647012;3.741513215772215;0.7846014782518473;-0.9890894259202612;0.0003143501571076111;0.03364943407769916;0.0632201488732537;6.342456312097274e-05;0.014275517487508896;90.0;53.69300813333333;86.82922146666665
-3.5652978008893084;2.37386154710998;0.8754884050430023;-0.0642398286937901;0.11837512180346306;0.1539716529009891;3.741513215772215;1.0655443350143399;1.135384729881152;3.741513215772215;2.108242049278243;-0.9890894259202612;3.2232155028627426e-05;0.011216478025899645;0.0622004690527174;0.0017180085212598931;0.0774956663607626;90.0;53.692923;86.82927286666666
0.8754884050430023;2.657248482328205;1.183429120109525;-0.0346691138982359;0.030081994897081066;-0.0346691138982359;1.633271166493972;1.1151306796302987;1.243516432652732;3.741513215772215;2.108242049278243;-0.9962271846640156;3.223215502863269e-05;0.01121647802590009;0.0622004690527174;0.0021572149563146804;0.0831039053737126;90.0;53.692909166666674;86.82931876666667
1.183429120109525;1.039408216251053;1.183429120109525;-0.0948302233098807;0.030709126840778294;-0.0346691138982359;2.0572843478240768;0.2857066875226191;0.0816283112951475;2.177007391694774;0.543736225200802;-1.0003059039461608;1.975519179172475e-05;0.008157438564290853;0.0132558376669725;0.0003355783237260321;0.0341592739879677;90.0;53.69293553333333;86.82926833333333
-0.7509871666880568;1.3109936407506464;1.7490739377918545;-0.07545630671969;0.009727125537034382;-0.07545630671969;2.177007391694774;0.5279830908887416;0.27876614426442925;3.02574271510288;0.9684583672788034;-0.9982665443050882;3.1538990404359756e-05;0.010196798205363455;0.0132558376669725;0.0005305308743027272;0.043846232283063;90.0;53.69296023333334;86.82917356666667
1.7490739377918545;1.71937745239034;1.7490739377918545;-0.0836137452839808;0.0262224962060922;-0.0346691138982359;3.02574271510288;0.6016254363686164;0.3619531656857281;3.340019595893205;1.1630122041984308;-0.9982665443050882;0.00011471874531708504;0.021413276231263323;0.0275313551544814;0.0009174033802249261;0.0581217497705719;90.0;53.69295746666666;86.82907693333334
-1.5457175605650233;2.558797237706056;3.492930412769401;-0.0346691138982359;0.030528017251938364;-0.0275313551544814;3.340019595893205;1.0393923600014872;1.080336478029461;4.962468738546137;1.9367260234432564;-0.9982665443050882;0.00014591115340935809;0.021413276231263323;0.0275313551544814;0.0020715224796389628;0.0897318242071988;90.0;53.692913233333336;86.82902416666667
3.492930412769401;2.558797237706056;3.492930412769401;-0.0275313551544814;0.030528017251938364;-0.0275313551544814;4.962468738546137;1.0393923600014872;1.080336478029461;4.962468738546137;1.9367260234432564;-0.9982665443050882;0.00014591115340935809;0.021413276231263323;0.0275313551544814;0.0020715224796389628;0.0897318242071988;0.0;53.692913233333336;86.82902416666667
8.679942782779486;0.9098474973815145;8.679942782779486;0.1269501376567757;0.10402358532536278;0.1269501376567757;9.883292376231411;1.2099271074127007;1.4639236052520648;9.883292376231411;2.4170928395714606;-0.9534006322014889;0.0005570444211811422;0.04690527174467196;-0.1203222188232895;0.0002758795204605329;0.030590394616090505;0.0;53.71482336666667;86.8419999
7.044582063451396;0.9098474973815145;8.679942782779486;0.0525135107576221;0.10402358532536278;0.1269501376567757;7.466199536659951;1.2099271074127007;1.4639236052520648;9.883292376231411;2.4170928395714606;-0.9534006322014889;0.0005570444211811422;0.04690527174467196;-0.1203222188232895;0.0002758795204605329;0.030590394616090505;30.0;53.71482336666667;86.8419999
8.553394750338853;1.7645368097058012;10.561846286941757;-0.078515346181299;0.07212808358677425;0.0525135107576221;8.574658647432633;1.5905124529199683;2.5297298628934946;10.602613901173877;3.136414364513926;-0.9493219129193432;0.0006520079747065072;0.05098399102681761;-0.1203222188232895;0.0008165479273932355;0.05710206995003561;0.0;53.714768433333326;86.84183403333334
10.561846286941757;8.37452850845286;10.561846286941757;-0.0652595085143265;0.0466867878636504;0.0081574385642908;10.602613901173877;2.680765445321137;7.1865033728278345;10.602613901173877;5.312239861204512;-0.9493219129193432;0.0006498418352556553;0.05098399102681761;0.0825940654634444;0.020472963760206235;0.2600183542367695;60.0;53.714713499999995;86.84166816666668
-4.8428230521497;7.702591501868371;10.561846286941757;0.0081574385642908;0.05053676936778557;0.0081574385642908;5.290374039969365;3.407824100499789;11.613265099947196;10.602613901173877;6.354075587801781;-0.9493219129193432;0.001230020625771906;0.06933822779647192;0.0825940654634444;0.01691287024994166;0.2600183542367695;60.0;53.71470586666667;86.84153253333334
2.968458617842227;3.912587331574692;2.968458617842227;-0.0887121443866625;0.0487566208728949;0.0081574385642908;4.248538313372095;0.7996634486598234;0.6394616311225221;5.290374039969365;1.571783521913805;-0.974813908432752;0.0005264585321351214;0.04384623228306317;0.0825940654634444;0.004608505004477018;0.1356174161313346;60.0;53.71473576666667;86.84142589999999
-0.5335389518408915;1.8288362313683457;2.968458617842227;-0.0305903946160905;0.04551398114468729;0.0010196798205363;3.7185905180555596;0.4463389768902997;0.1992184822914795;4.605675296147347;0.8870847780917877;-0.9850107066381156;0.0003289066142174034;0.03364943407769949;0.0091771183848271;0.0010504909880852677;0.0622004690527173;60.0;53.71479753333333;86.84132553333332
2.131754998659373;1.4388809754844498;2.131754998659373;0.0010196798205363;0.017312049399765023;0.0010196798205363;4.605675296147347;0.4483957002368803;0.20105870399092224;4.605675296147347;0.8870847780917877;-0.9850107066381156;0.0006911717759779157;0.052513510757621895;0.0091771183848271;0.0006443831638395037;0.0469052717446721;60.0;53.71488973333334;86.84116173333332
-0.1407278680650507;1.1636395584473078;2.131754998659373;-0.0270215152442132;0.07679312916256247;0.0010196798205363;4.276091493136569;0.1790226598406897;0.0320491127364353;4.605675296147347;0.3295838030107783;-1.0135617416131335;0.00015708843297579904;0.02396247578260402;0.0025491995513408;0.00042378352216471837;0.0402773529111858;60.0;53.71497696666666;86.84094176666667
0.5607293874763639;1.2692222816117193;2.3227581734674017;-0.1437748546956255;0.062155179895209425;-0.0270215152442132;4.319729666659721;0.256107374777544;0.06559098741544536;4.739888797240337;0.4637973041037684;-1.0043846232283062;0.00031461009384177365;0.033139594167431285;0.0025491995513408;0.0004960459342451455;0.0433363923727948;60.0;53.71505496666666;86.84070403333334
2.3227581734674017;1.603878251154384;3.763104857853504;-0.0484347914754767;0.05579506226528218;-0.0458855919241358;4.739888797240337;0.5372375740134503;0.2886242109318575;5.386239241663521;1.0665095750038;-0.9911287855613338;0.00043288130785831597;0.040787192821454044;-0.0101967982053635;0.0007610947574514214;0.05506271030896301;60.0;53.715110200000005;86.8405118
3.763104857853504;2.182195901053096;3.763104857853504;-0.0458855919241358;0.026375696124191418;-0.0458855919241358;5.386239241663521;0.9505327481557135;0.9035125053164532;5.386239241663521;1.871468102513894;-0.9911287855613338;4.4015953641339715e-05;0.01325583766697247;0.0091771183848271;0.0014393563423022522;0.0744366268991536;60.0;53.71517816666667;86.8403323
-0.5249793469175742;3.103459602868026;5.505402281229436;-0.092790863668808;0.03407928003888732;-0.0458855919241358;3.514771139149627;1.4115261274876636;1.99240600858032;6.280921367590254;2.7661502284406274;-0.8922198429693077;0.0034751808437912123;0.10502702151524412;0.0091771183848271;0.002531090625531747;0.0958499031304169;60.0;53.71526683333334;86.84017349999999
5.505402281229436;4.372506307544291;5.505402281229436;-0.1121647802589986;0.011652193818308001;-0.0912613439380034;6.280921367590254;1.4778952476513516;2.1841743630304498;6.280921367590254;2.7661502284406274;-0.8922198429693077;0.004155175340202723;0.1172631793616804;0.0530233506678902;0.005104117710831994;0.13969613541348;60.0;53.7154179;86.84003443333332
-2.9945225549023946;5.186743576636105;5.505402281229436;-0.0912613439380034;0.0316525325812667;-0.0499643112062812;3.9957194472253055;1.2108175855415728;1.466079225456724;6.280921367590254;2.285201920364949;-0.8922198429693077;0.00432153485002817;0.1172631793616804;0.0683185479759355;0.007295211088157989;0.15499133272152532;60.0;53.715604500000005;86.83997356666667
-3.894354805015943;1.0669975995859518;-1.7686767416731062;-0.0499643112062812;0.059203661780441605;0.0254919955134087;4.444327025781983;0.9255441109219933;0.856631901262383;4.444327025781983;1.7796041249477055;-1.0023452635872336;0.0008619502102830789;0.05404303048842651;0.0683185479759355;0.0003205886387261221;0.03568879371877231;60.0;53.71581543333334;86.8399797
-1.7686767416731062;1.07456428880685;-1.7686767416731062;0.0254919955134087;0.04543395482548365;0.0316100744366268;2.6647229008342777;0.8907853393677934;0.7934985208325949;4.444327025781983;1.7796041249477055;-0.93912511471398;0.0034446816003231573;0.11726317936168018;0.0683185479759355;0.000318509144853304;0.03568879371877231;60.0;53.7160026;86.84005593333335
-3.1057142609483432;0.9791577988937422;-1.7686767416731062;0.0316100744366268;0.03956217539023542;0.0316100744366268;3.6269986230030606;0.6719041514213621;0.45145518869726065;3.95819360132943;1.2934707004951522;-0.93912511471398;0.004155175340202686;0.11726317936168018;0.061180789232181;0.0002093357165303535;0.028551034975017806;60.0;53.716243999999996;86.84016933333334
-3.676347626532272;0.7218066676574468;-2.242641737945497;-0.0397675130009177;0.04818818829665145;0.0520036708473539;3.95819360132943;0.6954977767564176;0.48371715747311966;3.95819360132943;1.3355906033172218;-0.93912511471398;0.0006488020883192719;0.048944631385744675;0.061180789232181;0.00012615596161763;0.0224329560517997;60.0;53.716486566666674;86.84030949999999
-2.242641737945497;0.7665947836789125;-2.242641737945497;0.0520036708473539;0.04982886396602679;0.0520036708473539;2.622602998012208;0.6892918180164771;0.47512321038446015;3.95819360132943;1.3355906033172218;-0.951361272560416;0.0018465905590624814;0.08565310492505362;0.0622004690527174;0.00017571723225312812;0.0234526358723361;60.0;53.7167423;86.84052256666666
-3.429992563068208;2.9684996837334197;2.2014025350787367;0.0397675130009177;0.02404549733778585;0.0520036708473539;3.5862326053241538;0.677071880842149;0.4584263318271251;3.5862326053241538;1.3057337805069693;-0.968185989599266;0.001254714615511622;0.0688283878862036;0.0622004690527174;0.0027008293129005202;0.0994187825022941;60.0;53.71693286666667;86.84074726666665
2.2014025350787367;3.66661401926795;3.4535935089741203;0.0056082390129499;0.025978498942539112;0.0397675130009177;2.2804988248171845;0.7218913834306251;0.5211271694713817;3.5862326053241538;1.3057337805069693;-0.968185989599266;0.004230470347514276;0.13000917711838456;0.0622004690527174;0.004539275187627784;0.12847965738758022;60.0;53.71712133333333;86.8409784
3.4535935089741203;0.7304616197378135;3.4792156429337977;-0.0112164780258998;0.04335837988907782;0.0056082390129499;3.466916068126808;0.6981152155918043;0.4873648542407915;3.5112065886718278;1.2307077638546433;-0.968185989599266;0.004230470347514276;0.13000917711838456;-0.0372183134495767;0.00025499793615431794;0.02906087488528611;60.0;53.717298166666666;86.84115523333332
3.4792156429337977;0.8816784352929339;4.993355203666031;-0.0764759865402263;0.047656624843032;-0.0112164780258998;3.5112065886718278;0.8774984696428856;0.7700035642256062;5.008449183760538;1.54153311563373;-0.9982665443050882;0.0025383688540865992;0.0999286224125624;-0.0632201488732537;0.00017779672612594543;0.024472315692872504;60.0;53.7174906;86.84133059999999
4.993355203666031;1.017196204394575;5.412975865885972;-0.1040073416947078;0.05731108594431075;0.0061180789232181;5.008449183760538;1.0042455191416086;1.0085090627159992;5.419235341228002;1.908028752556174;-0.9982665443050882;0.00038782560728058623;0.03874783318038144;-0.0632201488732537;0.00028835648369744107;0.0326297542571633;0.0;53.71766903333333;86.84149196666668
5.412975865885972;0.2632219877339076;5.478476848307285;0.0061180789232181;0.058791711991876924;0.0061180789232181;5.419235341228002;0.2612973869736007;0.06827632443923165;5.493610064327335;0.48516088056679685;-0.9982665443050882;5.441342300543032e-05;0.013255837666972692;-0.0876924645661262;2.21812679767242e-05;0.008157438564290798;0.0;53.71784653333333;86.8416524
5.478476848307285;0.4083230100092057;5.478476848307285;-0.0132558376669725;0.026830047750743904;0.0397675130009177;5.493610064327335;0.36852167347650505;0.1358082238219238;5.493610064327335;0.6722274956267711;-0.9992862241256244;3.881721895929239e-05;0.012236157846436502;-0.0836137452839808;4.990785294763199e-05;0.012236157846436196;0.0;53.71801043333334;86.84176510000002
4.7407687289477485;0.4709960875871128;5.616921508850959;0.0397675130009177;0.031218415426273852;0.0397675130009177;4.821382568700564;0.4870015447985888;0.23717050463621192;5.767901230895484;0.9465186621949204;-0.9952075048434792;3.881721895929752e-05;0.012236157846436502;-0.0836137452839808;5.9612157687449725e-05;0.014275517487508896;0.0;53.7181862;86.84185553333333
5.616921508850959;1.0512899950972878;6.834109203894812;-0.0152951973080452;0.034038576196307256;0.0397675130009177;5.767901230895484;1.1164223561965687;1.246398877415498;7.0460052112882545;2.2246226425876907;-0.9952075048434792;4.9907852947661883e-05;0.012236157846436502;-0.0836137452839808;0.0003226681325989387;0.0356887937187723;0.0;53.718361566666665;86.84191143333332
6.834109203894812;0.6910593902966436;6.834109203894812;-0.0224329560517997;0.0048188188296654985;-0.0132558376669725;7.0460052112882545;0.6905257667234349;0.4768258345089876;7.0460052112882545;1.2781039803927703;-0.9952075048434792;5.8572410751066875e-05;0.01325583766697247;-0.0978892627714897;0.00013967267179094687;0.021413276231263406;0.0;53.71853313333333;86.8419806
5.658479353083096;0.8586869208789478;7.33047623954346;-0.0132558376669725;0.005029961111773798;-0.0132558376669725;5.953836056326438;0.8183918469030469;0.6697652150773801;7.55570022630979;1.6018641699833527;-0.9952075048434792;5.0947599884064676e-05;0.01325583766697247;-0.0999286224125624;0.00022562508520076116;0.029570714795554204;0.0;53.71869233333334;86.84202033333334
7.33047623954346;1.0533072338591223;7.33047623954346;-0.0214132762312633;0.005395638444100601;-0.0132558376669725;7.55570022630979;0.9866332336480321;0.9734451377387723;7.55570022630979;1.798859336302593;-1.006423982869379;2.911291421946883e-05;0.010196798205363233;-0.095849903130417;0.0003372245897086653;0.0336494340776996;0.0;53.7188363;86.84206189999999
5.384663309360625;0.9852008969706206;7.33047623954346;-0.023452635872336;0.012404940410519623;-0.0214132762312633;5.756840890007197;0.9087181802620086;0.8257687311386963;7.55570022630979;1.798859336302593;-1.006423982869379;2.911291421946883e-05;0.010196798205363233;-0.095849903130417;0.0002900893952581219;0.0336494340776996;0.0;53.718974933333335;86.84208960000001
6.62631026772592;0.7667553350733977;6.784894162563552;-0.0438462322830631;0.017424296411374697;-0.023452635872336;6.880736612527136;0.6773308296222024;0.458777052756701;6.973750553165666;1.2169096631584688;-1.0084633425104517;8.456608416128382e-05;0.01835423676965431;-0.095849903130417;0.00019789850022985288;0.026511675333945106;0.0;53.7191095;86.84213883333332
6.784894162563552;0.5848399815536283;6.784894162563552;-0.058121749770572;0.013268904045371217;-0.0316100744366268;6.973750553165666;0.6053843222085736;0.3664901775759341;6.973750553165666;1.0919646872370556;-1.0003059039461608;0.000184381790056553;0.02651167533394516;-0.0999286224125624;0.00013828634254240107;0.022432956051799707;0.0;53.7192506;86.8422202
5.701982878297088;0.9170633053392757;6.784894162563552;-0.0316100744366268;0.019807351598291747;-0.0193739165901906;5.88178586592861;0.9511410885312863;0.9046693702924802;6.973750553165666;1.8949515620397186;-1.0003059039461608;0.00019789850022987205;0.02651167533394516;-0.0887121443866625;0.0002935552183794851;0.0336494340776996;0.0;53.71939283333334;86.8423283
4.961450735462913;0.37357459919009617;5.701982878297088;-0.0193739165901906;0.006789362820923434;-0.0193739165901906;5.0787989911259475;0.40984999048982396;0.1679770147045088;5.88178586592861;0.802986874802663;-0.9768532680738248;0.000503584099534133;0.04486591210359958;-0.0887121443866625;3.847063664713228e-05;0.011216478025899895;0.0;53.719530999999996;86.84248353333334
5.2457921157128125;1.0749344928147198;6.9491064502187;-0.0305903946160905;0.014384354012099532;-0.0193739165901906;5.337673694538769;1.03790438543004;1.077245513294909;6.9919051618215775;1.91310617069563;-0.9768532680738248;0.0005618099279730395;0.04486591210359958;-0.0887121443866625;0.000322668132598938;0.0316100744366269;0.0;53.719656166666674;86.84265136666666
6.9491064502187;0.8545330766019471;6.9491064502187;-0.0479249515652085;0.009063112488340732;-0.0305903946160905;6.9919051618215775;0.8278053754237552;0.6852617395804643;6.9919051618215775;1.6542314672828082;-0.9768532680738248;2.1141521040333817e-05;0.009177118384827265;-0.0897318242071989;0.00023532938994057806;0.030590394616090505;0.0;53.71976393333333;86.84283593333333
6.218777537797091;0.37361005429374355;6.9491064502187;-0.0346691138982359;0.0281660595838343;0.0061180789232181;6.223303599368884;0.3943650989792022;0.15552383129287592;6.9919051618215775;0.7686015624526936;-0.9819516671765066;9.704304739833629e-06;0.006118078923218029;-0.1070663811563169;4.531563731182495e-05;0.013255837666972498;0.0;53.71985726666666;86.8430146
6.447127602334733;1.6627842611269694;9.206181882733784;0.0061180789232181;0.023848303382332032;0.0071377587437544;6.454273944852432;1.686552291914171;2.844458633360943;9.253126677143849;3.0298230777749646;-0.9819516671765066;8.733874265837478e-05;0.018354236769654197;-0.1070663811563169;0.0009334328121612193;0.055062710308962995;0.0;53.719935666666665;86.84319540000001
9.206181882733784;1.824104195243221;9.893725847665978;0.0071377587437544;0.014138293692120123;0.0311002345263587;9.253126677143849;1.875202475418584;3.516384323815985;10.015637060456054;3.561363115603622;-0.9758335882532884;0.0001497235588429193;0.02447231569287245;-0.1116549403487305;0.0010086411738948068;0.0586315896808402;0.0;53.72001283333333;86.84336643333334
9.893725847665978;0.5581696292856061;9.893725847665978;0.0311002345263587;0.017110681113771748;0.0402773529111858;10.015637060456054;0.5237398501823805;0.2743034306690624;10.015637060456054;1.0032228182356953;-0.9753237483430204;0.00020387704511422292;0.024982155603140432;-0.15091261343938;9.461697121322154e-05;0.019373916590190693;0.0;53.7200832;86.84353066666667
8.788296148515789;0.5690142428273347;9.893725847665978;0.0402773529111858;0.004626170962515781;0.0402773529111858;9.012414242220359;0.5071288733516149;0.2571796941868783;10.015637060456054;1.0032228182356953;-0.9753237483430204;8.664557805262424e-08;0.000509839910267984;-0.15091261343938;9.938247800509645e-05;0.019373916590190693;0.0;53.72014746666667;86.84368026666668
9.1068091390065;0.9588206311453865;9.1068091390065;0.0346691138982359;0.009969076085831799;0.0540430304884266;9.384808526741203;0.863940561619109;0.7463932940107416;9.384808526741203;1.6474198339383257;-0.9753237483430204;9.158437598204671e-05;0.01682471703884958;-0.1274599775670439;0.0002376688205474998;0.029060874885286025;0.0;53.7202039;86.84385616666667
7.309894830206503;1.04723927217843;9.1068091390065;0.0540430304884266;0.012530035410874605;0.058121749770572;7.737388692802877;0.9522790937632634;0.9068354724185821;9.384808526741203;1.6513646368347201;-0.9758335882532884;0.0003382643366450944;0.03670847353930873;-0.1274599775670439;0.0002631426204895212;0.029060874885286025;0.0;53.7202735;86.84404523333335
7.27644291999732;1.4114555651207912;9.737709969910677;0.058121749770572;0.008490531251009313;0.0703579076170082;7.733443889906483;1.347528061768658;1.8158318772539963;10.069400858711457;2.3359569688049744;-0.9778729478943612;0.0003036061054314574;0.034669113898235904;-0.1274599775670439;0.0005281914436957956;0.04078719282145413;30.0;53.7203696;86.84421813333334
9.737709969910677;1.5023937459903527;9.999786827356033;0.0703579076170082;0.02604345570101707;0.1080860609768532;10.069400858711457;1.4097653768573082;1.9874384177856281;10.26882649645997;2.5353826065534877;-0.9778729478943612;0.0003503947175698657;0.034669113898235904;-0.1294993372081166;0.0005919625891288837;0.0448659121035995;30.0;53.72047476666666;86.8443489
9.999786827356033;1.5780011649856853;9.999786827356033;0.1080860609768532;0.02271697741274193;0.1080860609768532;10.26882649645997;1.5169294261838129;2.301074884022352;10.26882649645997;2.7214291866996474;-0.9778729478943612;3.7777472022880466e-05;0.012236157846436169;-0.1244009381054349;0.0007427258949081934;0.0499643112062812;30.0;53.7205746;86.84442313333334
7.145010191557982;2.4661812680681585;9.999786827356033;0.0672988681553992;0.02158255377640134;0.1080860609768532;7.547397309760323;2.3418353168452226;5.484192651223564;10.26882649645997;4.66191821324442;-0.9829713469970428;1.97551917917899e-05;0.008157438564290964;-0.0887121443866625;0.0018510961291202384;0.0856531049250536;30.0;53.72072836666666;86.84446596666668
5.089032621312762;1.5107787957612635;7.145010191557982;0.0999286224125624;0.03998046552471401;0.0999286224125624;5.60690828321555;1.4790959832702608;2.1877249277262196;7.547397309760323;2.903907238923666;-0.9901091057407974;0.00017571723225314387;0.023452635872336147;-0.0744366268991536;0.000662318798492561;0.049964311206281295;30.0;53.72088866666667;86.84442146666667
4.199451360217511;1.4716554585315125;7.074014253922306;0.020393596410727;0.04912839526910621;0.0999286224125624;4.643490070836657;1.2892385370633033;1.6621360054491265;7.196497568709412;2.5530074978727546;-0.9911287855613338;0.00014799064728223549;0.022432956051799735;-0.0744366268991536;0.0006335524665852428;0.0489446313857449;0.0;53.721034599999996;86.8442602
7.074014253922306;1.734708541186352;7.319084523030715;0.0101967982053635;0.02122632812752268;0.020393596410727;7.196497568709412;1.5243608975980263;2.32367614612586;7.363130325870674;2.719640255034017;-0.99214846538187;0.000139672671790964;0.021413276231263545;-0.0744366268991536;0.0008706147680865052;0.05302335066789028;0.0;53.7210738;86.8440178
7.319084523030715;1.068752226688755;7.319084523030715;-0.020393596410727;0.015396827644072351;0.0101967982053635;7.363130325870674;1.1129001651186903;1.238546777521208;7.363130325870674;2.005506659417639;-0.99214846538187;1.80222802311061e-05;0.008157438564290853;-0.0938105434893443;0.00033722458970866445;0.03364943407769959;0.0;53.72105726666666;86.84377086666666
5.357623237551506;1.086995264159329;7.319084523030715;-0.0020393596410727;0.035925931169501685;-0.0020393596410727;5.357623666453035;1.1010419474243864;1.2122933699880856;7.363130325870674;2.005506659417639;-0.9880697460997246;3.8817218959287684e-05;0.012236157846436169;-0.0938105434893443;0.000355940034564027;0.03364943407769959;0.0;53.7209954;86.8435554
5.526455898960265;0.16324531761388672;5.684049383139061;-0.0713775874375446;0.036252449953362374;-0.0020393596410727;5.572761995518855;0.20492266107943924;0.041993297023878724;5.767296315899121;0.40967264944608583;-0.9819516671765066;8.73387426583777e-05;0.018354236769654197;-0.0938105434893443;4.158987745633078e-06;0.004078719282145399;0.0;53.72089993333333;86.84335753333333
5.684049383139061;1.0569091482302932;5.684049383139061;-0.0550627103089629;0.027157451283693037;-0.0183542367696543;5.767296315899121;0.9440814127428613;0.8912897138865569;5.767296315899121;1.7237623001476035;-0.9819516671765066;0.0008078833695898373;0.0520036708473538;-0.0683185479759355;0.00027276027965130345;0.02957071479555419;0.0;53.7207725;86.84312770000001
3.779726946038244;1.4123716012710599;5.684049383139061;-0.0183542367696543;0.019463156659828812;-0.0183542367696543;4.043534015751518;1.2171981660533704;1.481571375443688;5.767296315899121;2.3505707670770857;-0.9819516671765066;0.0007011360174518349;0.0520036708473538;-0.0520036708473539;0.0005410149892448374;0.0458855919241358;0.0;53.72062506666666;86.84287786666668
2.9250822364666766;0.5715009127807588;4.009691967693462;-0.0479249515652085;0.01871883323206495;-0.0132558376669725;3.4167255488220354;0.5109933205447235;0.2611141736413225;4.429183342654668;1.012457793832633;-0.9890894259202612;0.0005119020750253879;0.04486591210359925;-0.0520036708473539;9.461697121322112e-05;0.017334556949118007;0.0;53.72048373333333;86.84257439999999
4.009691967693462;0.5595437272873675;4.009691967693462;-0.0132558376669725;0.0209551852646729;-0.0101967982053635;4.429183342654668;0.565922936010225;0.3202687695024332;4.429183342654668;1.012457793832633;-0.9890894259202612;0.0001965121709813204;0.02753135515448113;-0.0520036708473539;8.214000797631283e-05;0.017334556949118007;0.0;53.720358266666665;86.8422356
3.706099997492142;0.4781962336008006;4.009691967693462;-0.0101967982053635;0.011581336485776406;0.0081574385642908;4.361136166361081;0.26224629736526855;0.06877312048179286;4.429183342654668;0.48440847665235065;-0.9890894259202612;0.000336878007396541;0.03670847353930862;-0.0550627103089629;5.406684069326895e-05;0.014275517487509007;0.0;53.720247300000004;86.84187716666668
3.0724732618799937;0.4050252170703735;3.706099997492142;0.0081574385642908;0.06365721006687455;0.0081574385642908;3.9447748660023176;0.3088425024783778;0.09538369133710681;4.361136166361081;0.6033179993175195;-1.0023452635872336;0.00015214963502786186;0.023452635872336147;-0.0520036708473539;4.81749413869509e-05;0.013255837666972609;0.0;53.720054833333336;86.8414031
2.952223534324766;0.14713788056383634;3.244950354150896;-0.1101254206179259;0.06344178741838398;0.0081574385642908;3.757818167043561;0.11892934747062663;0.014144189689789043;3.97864628529038;0.22082811824681903;-0.9850107066381156;0.0004190180153728594;0.040787192821454155;-0.0520036708473539;4.505570057770585e-06;0.004078719282145406;30.0;53.719836066666666;86.84092833333334
3.244950354150896;0.3977702278454664;3.73920907872628;-0.0907515040277353;0.030151043178199558;-0.0509839910268175;3.97864628529038;0.22714928066066792;0.05159679570465889;4.21205862677864;0.4542404597350793;-0.9850107066381156;7.936734947924531e-05;0.017334556949118007;-0.0520036708473539;4.6095447514132696e-05;0.013255837666972609;0.0;53.71962203333334;86.84041563333334
