acc_X;acc_X_std;acc_X_max;acc_Z;acc_Z_std;acc_Z_max;acc;acc_std;acc_var;acc_max;acc_range;fb_tilt_max;fb_tilt_var;fb_tilt_range;tilt_max;tilt_var;tilt_range;class;lat;lon
-0.0071377587437544;0.02308820602515949;0.003059039461609;-0.0183542367696543;0.026570437892924192;-0.0183542367696543;0.9587013187736384;0.04198447529285528;0.0017626961656163757;1.0371458709987869;0.07844455222514846;3.9100147853564784;2.2695287290457347;2.813026042042968;2.427923163152554;5.308748003799098;4.600818202148414;60.0;53.725094133333336;86.8445224
0.003059039461609;0.02308820602515949;0.003059039461609;-0.0662791883348628;0.026570437892924192;-0.0183542367696543;0.9719827455073644;0.04198447529285528;0.0017626961656163757;1.0371458709987869;0.07844455222514846;3.9100147853564784;2.2695287290457347;2.813026042042968;2.427923163152554;5.308748003799098;4.600818202148414;60.0;53.725094133333336;86.8445224
-0.0410421127765881;0.04448407998977823;0.0479249515652085;-0.0622004690527174;0.023636638660431294;-0.023452635872336;1.0371458709987869;0.033130308130278015;0.0010976173168071657;1.0371458709987869;0.06516312549142245;3.9100147853564784;1.896613785016718;2.5859726005449666;-0.0974257398291267;3.4995997216090076;3.7336796705341433;60.0;53.72508896666667;86.8443295
0.0479249515652085;0.06451657604502907;0.0479249515652085;-0.023452635872336;0.03049393945461664;-0.023452635872336;1.0149651379105276;0.023295104892408096;0.0005426619119482956;1.0371458709987869;0.04657271491054171;4.842067384636279;3.1361792768177557;3.5180251998247676;-2.17289503899586;2.161166025623155;2.9317824909511176;60.0;53.72503556666667;86.84411396666667
-0.0774956663607627;0.09380500158749398;0.0479249515652085;-0.0836137452839808;0.0301165388260475;-0.023452635872336;0.9905731560882451;0.026195849462764462;0.0006862225290758172;1.0149651379105276;0.05235120233274304;4.842067384636279;3.1161277012939688;3.5180251998247676;-3.83110541036327;1.2149716315624817;2.195126663399337;60.0;53.72494306666667;86.84391053333333
-0.1356174161313347;0.039924078618235714;-0.0591414295911083;-0.0560823901294993;0.06246735349238951;0.0356887937187723;0.9626139355777845;0.04807521795364618;0.002311226581290584;0.9905731560882451;0.09365012698009778;4.842067384636279;14.095803433101826;7.122482933580425;-5.1046775299469775;0.5889259061702299;1.5237121878788038;60.0;53.7248282;86.8437786
-0.0591414295911083;0.054724928133074675;-0.0591414295911083;0.0356887937187723;0.048958791557134916;0.0356887937187723;0.8969230291081474;0.07775982519432319;0.0060465904142517;1.0518475544567119;0.1549245253485645;3.339973300853696;8.790379274672537;5.620388849797841;-6.026232073762607;0.21732286721193156;0.9175390643895156;60.0;53.72471553333333;86.8437086
-0.1651881309268889;0.05732317944221796;-0.0591414295911083;-0.0397675130009177;0.039033009673241775;0.0356887937187723;1.0518475544567119;0.08520720460539559;0.007260267716665747;1.0518475544567119;0.1549245253485645;2.166714948872309;5.368764903201514;4.447130497816454;-6.628389717825781;0.04084118347542064;0.37660729293147277;60.0;53.7246082;86.84364393333333
-0.1498929336188436;0.008093457666150187;-0.1498929336188436;-0.0193739165901906;0.01123191709449598;-0.0193739165901906;1.0358637167308515;0.012088520971729739;0.00014613233928394972;1.0518475544567119;0.023701301935375785;2.166714948872309;0.3777879164622805;1.0950407869900933;-6.844688011656796;0.006544174770828611;0.16030899910045804;60.0;53.72450626666667;86.84355053333333
-0.1621290914652799;0.011231917094495787;-0.1498929336188436;-0.037728153359845;0.012334895014869673;-0.0193739165901906;1.028146252521336;0.011668200229998319;0.00013614689660733283;1.0358637167308515;0.022931520297707175;2.4231753708780315;0.49877373530713565;1.3515012089958158;-6.495464816866376;0.06787981193058361;0.5095321938908786;60.0;53.7244291;86.84341363333334
-0.1723258896706434;0.022944684180330497;-0.1284796573875803;-0.0428265524625267;0.03218593685098424;-0.037728153359845;1.0129321964331444;0.015089251321662374;0.0002276855054482897;1.028146252521336;0.03017815759832687;5.511472264405756;3.5430131916509295;3.40851329786545;-5.989948102401611;0.18468071680941145;0.8547399092551853;60.0;53.72440773333333;86.84325573333332
-0.1284796573875803;0.021940894046446315;-0.1284796573875803;-0.095849903130417;0.026526378177482546;-0.0428265524625267;0.9979680949230092;0.008392875809541267;7.044036435438296e-05;1.0129321964331444;0.014964101510135164;5.511472264405756;2.3896444817688116;3.088296893527725;-5.360758544278127;0.32316416228433564;1.1347062725882484;60.0;53.72444983333333;86.84311009999999
-0.1519322932599164;0.04882055469330175;-0.058121749770572;-0.0678087080656673;0.015264008625969145;-0.0678087080656673;1.0120363314148237;0.007989572084450591;6.383326209263217e-05;1.0120363314148237;0.014068236491814545;5.511472264405756;0.8079562922376158;1.6696481215709915;-4.6405168185116725;0.4559320722545881;1.3494312838899383;0.0;53.72456656666666;86.84304763333334
-0.058121749770572;0.0818797181600274;0.0112164780258998;-0.0713775874375446;0.0074292148446328974;-0.0571020699500356;0.9984399477227696;0.009456097670476652;8.941778315359395e-05;1.0120363314148237;0.018182703795804667;4.099521493691061;0.16934123752299013;0.8057665205838282;-4.242059897687249;0.3215004538620321;1.118698646590878;0.0;53.724711533333334;86.84309873333332
0.0112164780258998;0.044726648719203115;0.0254919955134087;-0.0571020699500356;0.011127287675382116;-0.049454471296013;0.9938536276190191;0.02456329322598959;0.0006033553741059462;1.038505852500601;0.04465222488158194;4.099521493691061;0.4740986336709474;1.3700187920259705;-3.614570704155645;0.26751267255234235;1.0259461143560276;0.0;53.72488393333333;86.84321993333333
0.0254919955134087;0.024606488967388117;0.0254919955134087;-0.049454471296013;0.009488137624287294;-0.049454471296013;1.038505852500601;0.024719160962242692;0.0006110369186772631;1.038505852500601;0.04465222488158194;3.926059217944956;0.3583227967532049;1.1965565162798657;-3.0379426399618863;0.3626901637944703;1.204117257725363;30.0;53.7250507;86.8433611
-0.0224329560517997;0.025437554457112307;0.0254919955134087;-0.0683185479759355;0.01242936304219878;-0.0448659121035994;0.9978019037923037;0.02672298112515445;0.0007141177202153609;1.038505852500601;0.05034771705724428;3.926059217944956;0.5333642741293159;1.3237313578638839;-2.1169038716067434;0.5706363797576725;1.4976668325489015;0.0;53.7252303;86.84348949999999
-0.0132558376669725;0.01346337807711366;0.0040787192821454;-0.0448659121035994;0.015609207713136897;-0.0387478331803813;0.9881581354433567;0.008100773164069913;6.562252585571527e-05;0.9978019037923037;0.016096451864236583;3.926059217944956;0.7728318851732379;1.6640119380556233;-1.4529232810759525;0.633578167576319;1.5850193588859338;0.0;53.7254187;86.8436011
0.0040787192821454;0.008672275464581486;0.0040787192821454;-0.0387478331803813;0.023746355969829106;-0.0387478331803813;0.9817054519280671;0.009644597434165302;9.301825966710793e-05;1.0006743136742644;0.018968861746197274;4.734488565628915;1.7958110098279176;2.4724412857395826;-0.9794302488261956;0.32648535311868965;1.137473622780548;0.0;53.72560743333333;86.8437301
-0.0050983991026817;0.028918905912655203;0.0040787192821454;-0.0825940654634444;0.02262525303782008;-0.0387478331803813;1.0006743136742644;0.025650666520429133;0.0006579566929422639;1.0324694999489428;0.05076404802087564;4.734488565628915;1.5840553684098193;2.4724412857395826;-0.359294530861093;0.3007979672636021;1.0936287502148594;0.0;53.72579846666667;86.84383580000001
-0.0499643112062812;0.02246383418899186;-0.0050983991026817;-0.0703579076170082;0.008093457666150555;-0.0703579076170082;1.0324694999489428;0.01641649382778468;0.0002695012695976925;1.0324694999489428;0.031795186274678366;4.867329639164231;0.2704928952208744;0.9598653434284397;-0.0540379407312985;0.22235013639914797;0.925392308094897;0.0;53.72597463333333;86.84395223333333
-0.0295707147955541;0.019885935184133754;-0.0101967982053635;-0.0856531049250535;0.007653261445360677;-0.0703579076170082;1.0094794173958932;0.013879931734416612;0.00019265250495206537;1.0324694999489428;0.024969075305321775;4.867329639164231;0.23258999438883385;0.9598653434284397;0.198681730026063;0.0780643875864844;0.557976260887156;0.0;53.72614913333333;86.8440414
-0.0101967982053635;0.02546308819505333;0.0209034363209951;-0.078515346181299;0.005021340777911905;-0.0759661466299581;1.007500424643621;0.003377945024941886;1.141051259152964e-05;1.0094794173958932;0.006583620841987603;4.867329639164231;0.0746073586520711;0.523196820764122;0.198681730026063;0.016130727710386546;0.2527196707573615;0.0;53.7263183;86.84415936666666
0.0209034363209951;0.018257205117353677;0.0209034363209951;-0.0759661466299581;0.008194530064403847;-0.0632201488732537;1.0028957965539056;0.01706625673337489;0.00029125711888946376;1.007500424643621;0.031591721802355144;4.469639748472197;0.16384491378839758;0.7553722268690679;0.198681730026063;0.03518523640763875;0.3642057770396627;30.0;53.726511833333326;86.84429316666667
-0.0112164780258998;0.01621098510817213;0.0209034363209951;-0.0632201488732537;0.015634166931248982;-0.0448659121035994;0.9759087028412659;0.016686662225224733;0.00027844469621874203;1.0064053867130054;0.03049668387173954;4.344132818400109;0.8234934076825002;1.7890196553168898;0.0944975376013339;0.0459732915176249;0.425326650675537;0.0;53.726753366666664;86.8444579
0.0010196798205363;0.010742993527941747;0.0010196798205363;-0.0448659121035994;0.009833436077284466;-0.0448659121035994;1.0064053867130054;0.015308972332645202;0.00023436463388169627;1.0064053867130054;0.03049668387173954;3.714267521603129;0.3814925968018596;1.1591543585199102;-0.1655240470135997;0.05693815119694619;0.47036393335521076;0.0;53.72703813333334;86.84463173333332
-0.020393596410727;0.017962965584750582;0.0152951973080452;-0.0479249515652085;0.003059039461608781;-0.0418068726419904;0.9935146084062835;0.009262905588341065;8.580141993852013e-05;1.0114828069306607;0.017968198524377255;2.7648948985518715;0.039261122748177724;0.396055916877176;-0.3308291130742031;0.037286658496909326;0.35762524322044725;0.0;53.72735076666667;86.84481636666665
0.0152951973080452;0.01819064216876831;0.0152951973080452;-0.0418068726419904;0.003860445495258451;-0.0418068726419904;1.0114828069306607;0.009867693195349225;9.737136899754138e-05;1.0114828069306607;0.017968198524377255;2.818332855209885;0.06029344114181048;0.44949387353518944;-0.4866356463674486;0.010961712459906374;0.20181870992720174;0.0;53.727652866666666;86.84499046666667
-0.0086672784745589;0.013984243619979145;0.0152951973080452;-0.0489446313857448;0.010903106578529146;-0.0418068726419904;0.9954296208579949;0.00812026189931004;6.593865331338629e-05;1.0114828069306607;0.016053186072665815;3.619858238424071;0.40158947717334387;1.2510192567493754;-0.1497787336186472;0.07406246630143955;0.5386756226760032;0.0;53.72795136666667;86.8451951
-0.0091771183848271;0.00956997262180117;0.0076475986540226;-0.0632201488732537;0.01376882437750524;-0.0489446313857448;1.0013261029518072;0.005646018819933319;3.187752851504123e-05;1.0013261029518072;0.011288277601571362;4.430255541411404;0.6495802458194825;1.6119226862015195;0.0072458039452453;0.06367469533778279;0.4938814503126939;0.0;53.72823066666667;86.84540613333333
0.0076475986540226;0.009181837911178832;0.0076475986540226;-0.0764759865402263;0.006940817054710003;-0.0632201488732537;0.9900378253502359;0.01421351754365997;0.00020202408096392974;1.0182762849968492;0.028238459646613312;4.430255541411404;0.16818362629639294;0.8103973029873335;0.2182668029665129;0.034107347404210064;0.3680455365851601;0.0;53.72849516666667;86.8456109
-0.0071377587437544;0.015040997448540296;0.0076475986540226;-0.0734169470786173;0.004672759962226837;-0.0672988681553992;1.0182762849968492;0.018625265680931057;0.00034690052168526826;1.0251961524128674;0.035158327062631556;4.430255541411404;0.11148269463698103;0.6663749858038215;0.4397436495701354;0.04677270701324988;0.4324978456248901;0.0;53.728716166666665;86.84576363333333
-0.0224329560517997;0.010213778730373808;-0.003059039461609;-0.0672988681553992;0.006634452022685563;-0.0601611094116447;1.0251961524128674;0.01754740480736012;0.00030791141547336504;1.0251961524128674;0.03325625600839821;4.134569616905668;0.10864688812390029;0.6574492639944838;0.7653784711652143;0.0757368680159689;0.5471116681987014;0.0;53.7289364;86.84590706666665
-0.003059039461609;0.00972712553703398;-0.003059039461609;-0.0601611094116447;0.010348619929736123;-0.0601611094116447;0.9919398964044692;0.01680284747302686;0.0002823356832018051;1.0251961524128674;0.03325625600839821;4.562139362709727;0.3161191314318009;1.0850190097985433;1.0030981864716904;0.07998617238801918;0.5633545369015549;0.0;53.72914803333333;86.84605896666666
-0.0112164780258998;0.007161995685294331;-0.003059039461609;-0.0805547058223717;0.016950419958249828;-0.0601611094116447;1.0127540878139867;0.010446123232087387;0.00010912149057995584;1.0127540878139867;0.020814191409517457;5.378631531490085;0.9099450792607251;1.9015111785789012;1.2775078340152262;0.06568130033390192;0.5121293628500119;0.0;53.7294206;86.84623766666668
-0.0173345569491179;0.03897525207222661;0.0530233506678902;-0.0938105434893443;0.008304810661004622;-0.0805547058223717;1.0007844465208175;0.009440740964559404;8.912758995991004e-05;1.0127540878139867;0.018631106083992433;5.532856163839533;0.2721226344831016;0.9707168011298055;1.5711789287193316;0.08070984937369882;0.5680807422476413;0.0;53.72965426666667;86.8464116
0.0530233506678902;0.04530791359998364;0.0672988681553992;-0.095849903130417;0.017690783698274273;-0.0938105434893443;0.9941229817299942;0.0037109248117995998;1.3770962958829894e-05;1.0007844465208175;0.0066614647908233016;7.202963193159082;1.0235381230622977;1.8243316616689969;1.955661079771462;0.11566017684532966;0.6781532457562358;30.0;53.729855433333334;86.84657863333332
0.0672988681553992;0.007234219317423522;0.0672988681553992;-0.1254206179259712;0.022363324359601734;-0.095849903130417;1.000287713773778;0.005761044581153733;3.318963466604079e-05;1.005635410807368;0.01151242907737371;7.984968599488755;1.56894089032948;2.452112435649222;2.217730550220669;0.10575598851418036;0.6465516215013374;30.0;53.72997393333333;86.84672273333332
0.058121749770572;0.006789362820922818;0.0672988681553992;-0.1396961354134801;0.010903106578529515;-0.1182828591822167;1.005635410807368;0.003830561901981559;1.4673204484912579e-05;1.0077124796527732;0.00742476587899521;7.984968599488755;0.3955253380835177;1.2441888918739448;2.3211531536729098;0.035493516388502636;0.3654920739014478;30.0;53.73008173333333;86.8468476
0.0540430304884266;0.00513227588135682;0.058121749770572;-0.1182828591822167;0.012079368916024118;-0.1182828591822167;1.0077124796527732;0.0014746183935071986;2.174499406469751e-06;1.0084871845904446;0.002851773783076661;7.984968599488755;0.48451734372379657;1.2441888918739448;2.3211531536729098;0.0027393779590342616;0.10342260345224075;30.0;53.730207766666666;86.84701629999999
0.0479249515652085;0.005615958547247516;0.0540430304884266;-0.1386764555929438;0.010348619929736442;-0.1182828591822167;1.0084871845904446;0.0041397401277804766;1.7137448325555915e-05;1.0084871845904446;0.007526135220211838;7.903750786597208;0.3432650831585607;1.1629710789823982;2.3211531536729098;0.0036636325726340005;0.12090354821145555;0.0;53.73032413333333;86.84720946666668
0.0428265524625267;0.00947442973710342;0.0479249515652085;-0.1254206179259712;0.00947442973710399;-0.1254206179259712;1.0009610493702328;0.009382988685232534;8.804047666720177e-05;1.0084871845904446;0.01865062605623624;8.351820436511229;0.33830156410377227;1.1537282604134615;2.2554433627947224;0.005185219664309845;0.1427962530424245;0.0;53.730420466666665;86.84742526666666
0.0295707147955541;0.009903675799145565;0.0489446313857448;-0.1437748546956255;0.01090310657852948;-0.1244009381054349;0.9898365585342084;0.00585907619960848;3.4328773912818556e-05;1.0009610493702328;0.011124490836024403;8.351820436511229;0.4603425406045668;1.195500491614828;2.200249605461454;0.01655749031051354;0.25336465828386134;0.0;53.7304739;86.84760670000001
0.0489446313857448;0.010415385912133658;0.0489446313857448;-0.1244009381054349;0.04261968908739958;-0.0622004690527174;0.9985879416833155;0.005973068722207574;3.567754996021442e-05;1.0012544528617233;0.011417894327514944;8.351820436511229;6.216093543337158;4.790167753752328;2.112647109752298;0.024777478070752066;0.31466678685661176;0.0;53.730528;86.84786559999999
0.0458855919241358;0.013334043877456726;0.0703579076170082;-0.0622004690527174;0.034533892570360165;-0.0622004690527174;1.0012544528617233;0.014101815910331373;0.00019886121196887506;1.0012544528617233;0.02564890743134518;7.156319944896401;3.8870013731387005;3.5946672621375;1.9468849471775929;0.0055610426227152825;0.14890462428190676;0.0;53.73058726666667;86.84817233333332
0.0703579076170082;0.0154417819810345;0.0703579076170082;-0.0672988681553992;0.008346439045449426;-0.0509839910268175;0.9756055454303781;0.016548955481656184;0.00027386792753383827;1.0065463989894319;0.030940853559053738;3.9554979543092017;0.28254708782453775;1.0520867662388396;1.8651054583082665;0.015241663205757653;0.23934315902680137;30.0;53.73067546666667;86.84854213333334
0.0418068726419904;0.027789782960969935;0.0703579076170082;-0.0509839910268175;0.015306522890721116;-0.0509839910268175;1.0065463989894319;0.015473690614037573;0.00023943510121895447;1.0065463989894319;0.030940853559053738;4.723924147200173;0.8352721353292296;1.820512959129811;1.8651054583082665;0.0611468704502344;0.494473861418234;30.0;53.730790266666666;86.84884466666666
0.014785357397777;0.022119845821309082;0.0418068726419904;-0.0815743856429081;0.03161555611089624;-0.0509839910268175;0.9905255274490145;0.008318697170890031;6.92007226209738e-05;1.0065463989894319;0.016020871540417425;6.593152000271623;3.4037445770468775;3.6897408122012605;1.625762299281465;0.06052081376190734;0.49190541872703397;30.0;53.73093246666667;86.84908073333334
-0.0020393596410727;0.013645561446684641;0.014785357397777;-0.1142041399000713;0.018987686804870067;-0.0815743856429081;0.9946499724604807;0.003420249037527324;1.1698103478706586e-05;0.9973138504029705;0.006788322953956039;6.604948693445872;1.1720675453744547;1.8810245462456985;1.3706315968900324;0.0934298185414585;0.6064885320063641;0.0;53.731083266666666;86.84921446666668
-0.0122361578464362;0.013372975475276619;-0.0020393596410727;-0.1147139798103395;0.0031012351026301235;-0.1091057407973896;0.9973138504029705;0.004597642752885456;2.1138318883160152e-05;1.0036037729090908;0.00895380044861005;6.604948693445872;0.04272367439308047;0.36376235944939506;1.1338568805544311;0.07605301023161984;0.5393181914356413;0.0;53.7312186;86.84928153333334
-0.0285510349750178;0.0178662337798869;-0.0122361578464362;-0.1091057407973896;0.006654013103039406;-0.1091057407973896;1.0036037729090908;0.0094960802848975;9.0175540777219e-05;1.0159782922685359;0.018664441865565373;6.917335164405167;0.11451426704226161;0.6761488304086907;0.7641430648836683;0.02379240134948041;0.30796798015257015;0.0;53.73133706666666;86.8492976
-0.0479249515652085;0.01937391659019056;-0.0091771183848271;-0.1223615784643621;0.01325583766697265;-0.1091057407973896;1.0159782922685359;0.011547404432917706;0.00013334254913736747;1.0266783384834535;0.023074565574362715;7.59057776943323;0.455215015353001;1.349391435436753;0.5945386891187898;0.019587875840700583;0.2799073636660968;0.0;53.73144323333333;86.8493099
-0.0091771183848271;0.028282715152733937;0.0071377587437544;-0.1356174161313347;0.00947442973710381;-0.1172631793616804;1.0266783384834535;0.010258259345586159;0.00010523188480130577;1.0266783384834535;0.020510082891407322;7.59057776943323;0.21831453078316848;0.8978715928754797;0.4561750847310982;0.01697684841158613;0.2602568879955879;0.0;53.7315568;86.84931253333333
0.0071377587437544;0.02216093717100426;0.0346691138982359;-0.1172631793616804;0.015873416170538963;-0.1040073416947078;1.0061682555920461;0.01180483549135366;0.000139354140977923;1.0266783384834535;0.020510082891407322;7.59057776943323;0.6888906164789916;1.6580850020643423;0.314631325452693;0.005084732039937006;0.12780063585132312;0.0;53.73168733333333;86.84931506666668
0.0346691138982359;0.01379397293613592;0.0346691138982359;-0.1040073416947078;0.020248626502982876;-0.0774956663607627;1.0062958690437094;0.009798594094493605;9.601244622864495e-05;1.0062958690437094;0.017035109704423235;6.69270617655775;1.248153133036897;2.199726466654022;0.1959181967355103;0.0004756599334087264;0.0414902379850646;0.0;53.7318405;86.84929756666668
0.0193739165901906;0.009833436077284307;0.037728153359845;-0.0774956663607627;0.018126224976681066;-0.0693382277964719;0.9892607593392861;0.00911823362647368;8.314218446695535e-05;1.0062958690437094;0.017035109704423235;5.932492767368887;1.0391448109063097;1.9700709095022448;0.1868306896013699;0.0026593421762073394;0.10099861658215639;0.0;53.7320061;86.84927543333333
0.037728153359845;0.015873416170538723;0.0509839910268175;-0.0693382277964719;0.00668648773763828;-0.0693382277964719;1.0034157188620503;0.007232111528297346;5.230343715773138e-05;1.0034157188620503;0.014154959522764132;4.74284757098753;0.15883164601016841;0.7804257131208878;0.1544279587504457;0.0013583298337505225;0.06859588573123221;0.0;53.73217763333333;86.84925070000001
0.0509839910268175;0.05193698234742936;0.0509839910268175;-0.0825940654634444;0.02024862650298287;-0.0693382277964719;0.9989147002695735;0.0025354128044348823;6.4283180888923555e-06;1.0034157188620503;0.004501018592476758;6.24378499391484;1.344415866627257;2.2813631360481974;0.2009501608446212;0.003313047163599394;0.1151180878254077;0.0;53.73234173333333;86.84920146666667
-0.0448659121035994;0.04805494715182276;0.0509839910268175;-0.1091057407973896;0.013268904045371139;-0.0825940654634444;1.00318772730104;0.003587189053197474;1.2867925303379791e-05;1.0060421762076666;0.007127475938093042;6.24378499391484;0.5635473687420521;1.5009374229273096;0.3454747322631853;0.010830672230630613;0.2019792964833516;0.0;53.7324978;86.84911006666668
0.0091771183848271;0.03416054222290795;0.0183542367696543;-0.0968695829509534;0.013268904045371127;-0.0968695829509534;1.0060421762076666;0.009686133041759817;9.382117330267128e-05;1.021208703921588;0.018020976620547913;6.939362916440364;0.499834243295546;1.4139180553024913;0.5028006677536835;0.02279208837380347;0.3018505069090623;0.0;53.73263763333333;86.84898536666667
0.0183542367696543;0.01626168208273753;0.0183542367696543;-0.1233812582848985;0.015927907975745233;-0.0968695829509534;1.021208703921588;0.010461161532218148;0.00010943590060316074;1.021208703921588;0.020064851481803148;7.196770889452452;0.8097923041003829;1.6713260283145797;0.5663896169184165;0.012933065115991876;0.22091488465523118;0.0;53.732755133333335;86.84886393333333
-0.0132558376669725;0.01602552630315235;0.0183542367696543;-0.1254206179259712;0.002566137940679237;-0.1233812582848985;1.0011438524397849;0.016585302186064074;0.0002750722486030617;1.021208703921588;0.032907478682240865;7.469621440793904;0.07031339843117515;0.53025852435354;0.5663896169184165;0.0011541887756851585;0.06358894916473301;0.0;53.73285013333333;86.84874560000002
-0.0020393596410727;0.00597477850217382;-0.0020393596410727;-0.1284796573875803;0.006940817054710137;-0.1152238197206077;0.9883012252393472;0.009110133952204745;8.299454062711366e-05;1.0059155642046889;0.017614338965341703;7.469621440793904;0.20899489584974515;0.8921693593549902;0.5663896169184165;0.010209190072763675;0.18027523163968429;0.0;53.73292963333333;86.84862030000001
-0.0040787192821454;0.006846550789736045;0.0086672784745589;-0.1152238197206077;0.013255837666972676;-0.1019679820536351;1.0059155642046889;0.009337993802635721;8.719812825806315e-05;1.0059155642046889;0.017614338965341703;7.469621440793904;0.6675257254617128;1.6316657827894874;0.5553291840358409;0.040403783020337716;0.4004176477433995;0.0;53.73299476666667;86.8484721
0.0086672784745589;0.00940559063391541;0.0142755174875089;-0.1019679820536351;0.010807323405448325;-0.0938105434893443;1.0024838651093173;0.005219995499159854;2.724835301124913e-05;1.0059155642046889;0.010254739406612035;6.5774520814389135;0.35074734742720987;1.171060149777169;0.3861143852787322;0.05647837493986977;0.47524577212721253;0.0;53.73304996666667;86.8483225
0.0142755174875089;0.004626170962514716;0.0178443968593861;-0.0938105434893443;0.005029961111773601;-0.0938105434893443;0.9956608247980768;0.008655886004982063;7.492436253124434e-05;1.0128512301871666;0.01719040538908978;5.837955658004416;0.061798728970725234;0.4315637263426719;0.1549115362924414;0.05965717136028854;0.488496294034503;0.0;53.73308923333334;86.84813989999999
0.0178443968593861;0.017604863891206978;0.0178443968593861;-0.1029876618741715;0.007698413822036144;-0.0938105434893443;1.0128512301871666;0.010584768408021458;0.0001120373222514491;1.0149555339613054;0.01929470916322862;6.171109103733199;0.14694145706955822;0.764717172071455;-0.0891313868484803;0.05981744964261132;0.48915210160375744;0.0;53.73311066666667;86.84793946666666
-0.0142755174875089;0.017054888022512024;0.0178443968593861;-0.1091057407973896;0.01046518086967866;-0.0887121443866625;1.0149555339613054;0.014398523037356397;0.0002073174656572829;1.0149555339613054;0.025924452267039322;6.171109103733199;0.27313666119813035;1.024989936875457;-0.3335847577420616;0.04563567010572547;0.42566258417163166;0.0;53.7331187;86.84770856666667
-0.0081574385642908;0.0038604454952580395;-0.0071377587437544;-0.0887121443866625;0.016025526303152605;-0.0887121443866625;0.9890310816942661;0.014884299577929075;0.00022154237392553965;1.0149555339613054;0.025924452267039322;6.985659795617867;0.8496678208674795;1.8395406287601244;-0.5782834884522378;0.04079011216598613;0.40322686962077303;0.0;53.73312113333333;86.8474806
-0.0071377587437544;0.010021089009758491;-0.0071377587437544;-0.1203222188232894;0.021004744305741375;-0.0887121443866625;0.989321717447446;0.004411071193700819;1.945754907589717e-05;0.989321717447446;0.007781370218731598;7.521368963817731;1.5521176059518307;2.375249796959989;-0.7592473419136933;0.01776752818820663;0.23861463755370016;0.0;53.7331311;86.84725163333333
-0.0249821556031406;0.010452754369111486;-0.0071377587437544;-0.1284796573875803;0.007653261445360704;-0.113184460079535;0.9815403472287144;0.01586800749268462;0.00025179366178789515;1.012076270064604;0.030535922835889573;7.521368963817731;0.3027483696299256;1.1003249284484689;-0.9201967932069948;0.0016764349859268363;0.07766518626039864;0.0;53.733145666666665;86.84702726666667
-0.0254919955134087;0.006333790541988059;-0.0142755174875089;-0.113184460079535;0.012830689703393473;-0.1029876618741715;1.012076270064604;0.016106962502201217;0.00025943424104731607;1.012076270064604;0.030535922835889573;7.521368963817731;0.7013019983617534;1.64372077723797;-0.9201967932069948;0.007160379132733515;0.16905250915922498;0.0;53.733162166666666;86.84681336666667
-0.0142755174875089;0.012250311879908772;-0.0142755174875089;-0.1029876618741715;0.015575866540756133;-0.0825940654634444;1.0056948594714954;0.008068638712695413;6.510293067600709e-05;1.0217217242855856;0.016026864814090214;6.421044035369262;0.8364761899792061;1.7843014030289863;-0.9201967932069948;0.011872077452192683;0.2036151676524014;0.0;53.73317823333334;86.84657343333333
-0.0387478331803813;0.0138441330032399;-0.0142755174875089;-0.0825940654634444;0.010348619929736224;-0.0825940654634444;1.0217217242855856;0.008013432506330067;6.421510053350738e-05;1.0217217242855856;0.016026864814090214;5.877648186579761;0.39441762734413754;1.2409055542394851;-1.0892493023662198;0.0008894402246149141;0.059381063833757075;0.0;53.733197499999996;86.84630256666667
-0.037728153359845;0.0015575866540742261;-0.037728153359845;-0.095849903130417;0.007376545465555558;-0.0825940654634444;1.0137104767503426;0.006910284637000381;4.77520337643635e-05;1.0274691019016335;0.013758625151290893;5.42562324601213;0.19959935651518596;0.7888806136718536;-1.1238119608593962;0.010784426843839345;0.1909906003544639;0.0;53.73321503333333;86.8460129
-0.040787192821454;0.018020755435656788;-0.0081574385642908;-0.0836137452839808;0.010264551762714786;-0.07545630671969;1.0274691019016335;0.015742694368379728;0.00024783242597621483;1.0274691019016335;0.0314052672642674;5.42562324601213;0.30790640582034656;1.0810485761412387;-1.1486303661999768;0.012719084547045081;0.2151745332020767;0.0;53.73324076666666;86.8455949
-0.0081574385642908;0.017778725169942423;-0.0081574385642908;-0.07545630671969;0.009727125537034306;-0.07545630671969;0.9960638346373661;0.02061724066535886;0.000425070612653327;1.0274691019016335;0.03884337106647129;5.504346141907472;0.358225994341844;1.1597714720365815;-1.31480256121386;0.011341430049105016;0.20400985491858137;0.0;53.73326483333333;86.84518376666666
-0.0122361578464362;0.021877618084706858;-0.0081574385642908;-0.0948302233098807;0.012165140660190574;-0.07545630671969;0.9886257308351623;0.00523843209428269;2.7441170806410923e-05;0.9960638346373661;0.010108846208435662;5.697924445762862;0.5356830071633758;1.3533497758919708;-1.3638048994020535;0.01479396201066295;0.23986566384135033;0.0;53.73328899999999;86.8447642
-0.0479249515652085;0.017866233779886925;-0.0122361578464362;-0.0978892627714897;0.0021226328127524332;-0.0948302233098807;0.9859549884289305;0.00665434568578723;4.4280316505955115e-05;0.9985815642076264;0.01262657577869597;5.697924445762862;0.01168111594692781;0.19357830385538932;-1.5188124161324414;0.0025467842567304475;0.08975426686636312;0.0;53.733295733333335;86.8444808
-0.0316100744366268;0.013372975475276718;-0.0214132762312633;-0.0989089425920261;0.0005887124188745559;-0.0978892627714897;0.9985815642076264;0.008555257128455314;7.319242453398547e-05;1.0022684993998225;0.016313510970892064;5.697924445762862;0.0025279221135016813;0.09304221983665606;-1.5883157114396438;0.00011164088526069551;0.02025097155916078;0.0;53.7332937;86.84420570000002
-0.0214132762312633;0.012830689703393176;-0.0061180789232181;-0.0978892627714897;0.0032778120257615988;-0.0978892627714897;1.0022684993998225;0.002459940360208149;6.051306575781e-06;1.0022684993998225;0.004664602366681425;5.984369639845026;0.040049983198604464;0.37948741391882024;-1.5883157114396438;0.0012344626621344948;0.0683990784235573;0.0;53.7332881;86.8439441
-0.0061180789232181;0.01478828722192091;0.0081574385642908;-0.1040073416947078;0.007161995685294699;-0.0978892627714897;0.9976038970331411;0.00679756266227793;4.6206858147595015e-05;1.0022684993998225;0.013391310542835821;6.512870566434237;0.20796112553782312;0.9079883405080311;-1.5883157114396438;0.002488079909588353;0.09709162362564694;0.0;53.733286033333336;86.84369456666667
0.0081574385642908;0.015829687668257177;0.0081574385642908;-0.1121647802589986;0.004120986932117254;-0.1040073416947078;0.9888771888569867;0.007717247735153976;5.9555912605739176e-05;1.0042655672590257;0.015388378402038994;6.512870566434237;0.07534037295104577;0.5285009265892109;-1.6461217735555016;0.00041313824795143983;0.039285561509789124;0.0;53.73328433333333;86.84346246666667
-0.023452635872336;0.018250084985090453;0.0081574385642908;-0.1070663811563169;0.01348909611025083;-0.0866727847455898;1.0042655672590257;0.0115266389140666;0.00013286340465527445;1.0114370624210822;0.0225598735640955;6.512870566434237;0.6924647849396985;1.5970108869754815;-1.5302341816049914;0.006508666144323461;0.15517315346029936;0.0;53.73328033333333;86.84324513333333
-0.023452635872336;0.011774248377477694;-0.023452635872336;-0.0866727847455898;0.014287651376216839;-0.0795350260018354;1.0114370624210822;0.0036042126322648367;1.2990348698577424e-05;1.0114370624210822;0.007171495162056507;6.120026958692048;0.6922172647337522;1.5966376436401495;-1.3907296364223094;0.016352765967345532;0.2553921371331922;0.0;53.73327256666667;86.84302403333334
-0.0438462322830631;0.011774248377477706;-0.023452635872336;-0.0795350260018354;0.00765326144536068;-0.0713775874375446;1.0084824162195392;0.004950953301405148;2.451193859269454e-05;1.0114370624210822;0.009661965129954986;4.915859679458755;0.17239829216531902;0.830009697542061;-1.1767970899296103;0.03169107172455457;0.35343709167538107;0.0;53.733264399999996;86.84275133333334
-0.0438462322830631;0.004120986932116802;-0.0367084735393086;-0.0713775874375446;0.00470969935099136;-0.0713775874375446;1.0017750972911272;0.0074931433679430925;5.614719753254955e-05;1.01673481108883;0.014959713797702667;4.523389315051898;0.07380467992467621;0.49775629482015127;-1.1767970899296103;0.012315499310044695;0.2139325464926991;0.0;53.73326153333333;86.8423218
-0.0367084735393086;0.012021847784798036;-0.020393596410727;-0.0713775874375446;0.006475836607613023;-0.0601611094116447;1.01673481108883;0.010769148407214716;0.00011597455741661525;1.0226743019598197;0.02089920466869244;4.085849981916694;0.1565129230169981;0.7133501710188446;-1.0597900254111374;0.007775410685044549;0.1727761982593048;0.0;53.733264999999996;86.8418474
-0.020393596410727;0.013372975475276673;-0.020393596410727;-0.0601611094116447;0.005677336966279454;-0.0601611094116447;1.0226743019598197;0.012551161723744092;0.00015753166061557877;1.0226743019598197;0.024091696528890316;4.025633020231747;0.11575123485317627;0.6531332093338973;-1.0060000524870265;0.014012867632787206;0.2265661711834157;0.0;53.73327663333333;86.8413641
-0.0469052717446721;0.01734455092916348;-0.0142755174875089;-0.0672988681553992;0.009798127395669601;-0.0601611094116447;0.9985826054309294;0.012405020339135975;0.00015388452961437722;1.0226743019598197;0.024091696528890316;4.490908154723262;0.31422179115442433;1.1184083438254122;-0.8410041859549939;0.012997373451042713;0.2187858394561435;0.0;53.733300299999996;86.84099523333333
-0.0142755174875089;0.0194542510740683;-0.0122361578464362;-0.0795350260018354;0.006367898438256934;-0.0672988681553992;1.0157613093930349;0.015634427873523107;0.00024443533493239626;1.0157613093930349;0.031216218808653773;4.490908154723262;0.10026012520004214;0.6265648118261051;-0.6362494003405067;0.034310617161226756;0.3697506521465198;0.0;53.7333434;86.84063726666666
-0.0122361578464362;0.002838668483138879;-0.0122361578464362;-0.0703579076170082;0.004672759962227073;-0.0703579076170082;0.9845450905843811;0.018511008003099117;0.0003426574172907995;1.017390746633753;0.03284565604937195;4.490908154723262;0.04673757666510926;0.3929239656423338;-0.6326485681296203;0.014224925283988454;0.2083556178253736;0.0;53.73341013333334;86.84031146666666
-0.0178443968593861;0.006922066501619721;-0.0040787192821454;-0.0734169470786173;0.003059039461609426;-0.0703579076170082;1.017390746633753;0.018424634705713157;0.0003394671640389698;1.017390746633753;0.03284565604937195;4.319240117580312;0.013892361838165269;0.22125592849938425;-0.5808072329005164;0.0009623873268804297;0.05544216743999031;0.0;53.73349363333333;86.84000243333332
-0.0040787192821454;0.014021369995807786;0.0101967982053635;-0.0764759865402263;0.001766137256622289;-0.0734169470786173;1.0154342122301607;0.014659902821103618;0.00021491275072420184;1.017390746633753;0.02631336601783163;4.425599314303062;0.021118324662476456;0.2874246942370364;-0.5751980691281874;0.0010032577653276713;0.05745049900143295;0.0;53.733590066666665;86.83971486666667
0.0101967982053635;0.013021727850508312;0.0219231161415315;-0.0764759865402263;0.0023548496754960454;-0.0723972672580809;0.9910773806159214;0.01375927243921831;0.00018931757805663258;1.0154342122301607;0.024356831614239294;4.425599314303062;0.028877784776751892;0.3327312846103121;-0.5475305714344096;0.0003173815575134878;0.03327666146610675;0.0;53.7336987;86.83943950000001
0.0219231161415315;0.006922066501619732;0.0224329560517997;-0.0723972672580809;0.005132275881357576;-0.0723972672580809;1.0143468423365969;0.015411292062054398;0.00023750792302194092;1.0202170502790182;0.02913966966309678;4.643596164708173;0.07692236887375693;0.5507281350154232;-0.5475305714344096;0.00024009160619914747;0.027667497693777743;0.0;53.733814200000005;86.83918806666667
0.0224329560517997;0.018104701646338872;0.0224329560517997;-0.0825940654634444;0.013919034179289205;-0.0723972672580809;1.0202170502790182;0.011387364799014586;0.0001296720770658365;1.0202170502790182;0.021992168940193957;5.745293059825651;0.7079243346031292;1.6524250301329015;-0.5475305714344096;0.0003171150708326092;0.034111881291540636;0.0;53.73393720000001;86.8389356
-0.0091771183848271;0.020621748155558832;0.0224329560517997;-0.0999286224125624;0.013463378077113931;-0.0734169470786173;0.9982248813388243;0.01113539984851402;0.00012399712978628606;1.0202170502790182;0.021992168940193957;5.745293059825651;0.6435209744140726;1.5609280913040235;-0.5633547812696318;8.391389556951442e-05;0.01828767145631849;0.0;53.734041999999995;86.838682
-0.0163148771285816;0.010903106578529054;-0.0091771183848271;-0.0734169470786173;0.021382907082197228;-0.0576119098603038;1.0061796226289532;0.005816490381927127;3.383156036305077e-05;1.0095531872539418;0.011328305915117576;5.745293059825651;1.5649562372538264;2.473832384819531;-0.5633547812696318;8.506447775653721e-05;0.01828767145631849;0.0;53.73411976666667;86.83839283333333
-0.0305903946160905;0.03545984529620321;0.0367084735393086;-0.0576119098603038;0.01948317934443298;-0.0346691138982359;1.0095531872539418;0.023478762253351874;0.0005512522769494208;1.0484277304515806;0.042248107822627334;4.184364968521628;1.32822187853385;2.2893787543343533;-0.5633547812696318;6.687090263531457e-05;0.015911065113990652;0.0;53.73416563333333;86.83805469999999
0.0367084735393086;0.04073617692553915;0.0367084735393086;-0.0346691138982359;0.014039896368120088;-0.0346691138982359;1.0484277304515806;0.029488910709009053;0.0008695958548039089;1.0484277304515806;0.057847751715486506;3.4818997984014604;0.7428768816175753;1.586913584214186;-0.5240194384289023;0.000938533177681606;0.055246407954720134;0.0;53.73419776666666;86.83765163333334
-0.0367084735393086;0.03762236253566274;0.0367084735393086;-0.0601611094116447;0.021070641704672065;-0.0346691138982359;0.990579978736094;0.028949828473816757;0.0008380925686634115;1.0484277304515806;0.057847751715486506;4.293010768399797;1.487786248670222;2.3980245542125225;-0.4481054106289847;0.004336360852657201;0.13116043575463776;0.0;53.73422166666666;86.83722326666667
-0.0142755174875089;0.011461007647657848;-0.0142755174875089;-0.0764759865402263;0.009139274436456266;-0.0601611094116447;1.0216265703279264;0.025936190457596146;0.0006726859754527014;1.0420913251774055;0.0515113464413115;4.293010768399797;0.2552010493738502;0.9272617183171281;-0.4481054106289847;0.0019994965918025184;0.07889947429082023;0.0;53.73424863333333;86.83678090000001
-0.0214132762312633;0.012585234071971282;-0.0142755174875089;-0.061180789232181;0.014287651376216872;-0.0479249515652085;1.0420913251774055;0.0396182829194036;0.0015696083414819069;1.0420913251774055;0.07652506466216225;4.293010768399797;0.5379615466092068;1.4480209846348866;-0.4481054106289847;0.0016180602650975094;0.07889947429082023;0.0;53.7343402;86.83624100000002
-0.0387478331803813;0.00947442973710346;-0.0214132762312633;-0.0479249515652085;0.00947442973710381;-0.0428265524625267;0.9655662605152433;0.04729862034829463;0.002237159486852111;1.0420913251774055;0.08642283049663735;3.365749050082669;0.16388571614119804;0.797282313662274;-0.4033632132970038;0.003847379175109919;0.1236416716228011;0.0;53.73449586666667;86.83573106666667
-0.023452635872336;0.00830481066100422;-0.023452635872336;-0.0428265524625267;0.008346439045449851;-0.0316100744366268;0.9556684946807682;0.02583354491385884;0.000667372042816362;1.0045336821108353;0.04886518743006707;2.8449897837649103;0.29120872385805396;1.0417422510757999;-0.4033632132970038;0.0012672092151093635;0.07057813585902467;0.0;53.73472043333334;86.83524736666668
-0.0367084735393086;0.008672275464581564;-0.020393596410727;-0.0316100744366268;0.019938152171663094;-0.0040787192821454;1.0045336821108353;0.033942761459245324;0.0011521110554792297;1.0209113598909294;0.0652428652101612;2.568466736420395;1.4229410442625163;2.339559476151693;-0.4033632132970038;0.009546691667073727;0.1867051494803788;0.0;53.73497939999999;86.83484926666667
-0.020393596410727;0.013372975475276667;-0.0101967982053635;-0.0040787192821454;0.014141357576367097;-0.0040787192821454;1.0209113598909294;0.008712523268166367;7.590806169834034e-05;1.0209113598909294;0.016377677780094135;1.8032475326891104;0.6538228904852289;1.5743402724204085;-0.4467561506345059;0.005516787488395288;0.1433122121428767;0.0;53.73524413333333;86.83443986666667
-0.0101967982053635;0.031034694221578982;0.037728153359845;-0.0122361578464362;0.009195981957424241;0.0061180789232181;1.0075695667032407;0.022742592696586225;0.0005172255225628171;1.0209113598909294;0.04432954744051154;0.6958303021406285;0.27935820481201024;1.0547786150980356;-0.2928243744477193;0.026182699620376986;0.2972439883296633;0.0;53.735493;86.83403166666666
0.037728153359845;0.024365867534105173;0.037728153359845;0.0061180789232181;0.017846824503348093;0.0061180789232181;0.9765818124504179;0.021254363930820103;0.00045174798610374663;1.0172761513401833;0.04069433888976548;1.6657383034900322;1.0254392254618514;2.0246866164474393;-0.1098172464757947;0.04942878414563376;0.4424560476223617;60.0;53.735680366666664;86.83365583333334
0.0214132762312633;0.008889362584971122;0.037728153359845;-0.0295707147955541;0.04953937173842122;0.0061180789232181;1.0172761513401833;0.03137056588775501;0.0009841124041179783;1.0382849403426349;0.06170312789221699;5.070835387434512;7.529432179825057;5.429783700391919;-0.088834277253704;0.01259064227317002;0.20399009719401529;60.0;53.73580063333333;86.83325556666667
0.023452635872336;0.004245265625504035;0.023452635872336;-0.0917711838482716;0.03380357796319123;-0.0295707147955541;1.0382849403426349;0.010829848216598043;0.00011728561239455182;1.0382849403426349;0.02100878900245151;5.070835387434512;3.4785514814285334;3.4050970839444794;-0.0826725185491317;0.00020251475363491196;0.027144727926663004;60.0;53.735842866666665;86.83287113333334
0.0152951973080452;0.0076532614453603;0.023452635872336;-0.0836137452839808;0.007161995685294936;-0.0774956663607627;1.0232165645014513;0.015957441203133062;0.0002546399297514487;1.0382849403426349;0.031898666703975564;5.070835387434512;0.10814002954580182;0.6544650964523235;-0.0358285240955046;0.0008403228257434975;0.05300575315819941;60.0;53.735822866666666;86.83252686666667
0.0081574385642908;0.014287651376216601;0.0152951973080452;-0.0774956663607627;0.017344550929163746;-0.0509839910268175;1.0063862736386593;0.017907156413023304;0.0003206662508004816;1.0232165645014513;0.03579314270122669;4.687240912505624;0.863286951992478;1.7275510998216919;0.1492110531816671;0.015033999302301019;0.23188357173079882;0.0;53.73578586666667;86.83220826666667
-0.0122361578464362;0.011774248377477644;0.0081574385642908;-0.0509839910268175;0.015020821721888802;-0.0509839910268175;0.9874234218002246;0.009733044181639056;9.473214904173788e-05;1.0063862736386593;0.018962851838434713;4.416370290982188;0.6981444069836285;1.456680478298256;0.1492110531816671;0.008646316609180194;0.1850395772771717;0.0;53.73574083333333;86.8318731
-0.0122361578464362;0.006475836607612511;-0.0010196798205363;-0.0520036708473539;0.00796395398787271;-0.037728153359845;1.0007132771516978;0.007762261316571582;6.025270074674358e-05;1.001017659570712;0.013594237770487516;2.9788088528693977;0.218398111860561;0.818830909867799;0.1492110531816671;0.008733550852225136;0.18603670601650882;0.0;53.7356867;86.83147763333334
-0.0010196798205363;0.009727125537034016;-0.0010196798205363;-0.037728153359845;0.015306522890721276;-0.0214132762312633;1.001017659570712;0.0005395914354428479;2.9115891720327304e-07;1.00176212340018;0.001048846248482116;2.9788088528693977;0.7702419496161751;1.7539833426332607;0.0405910795003242;0.013716643257951579;0.2301631047869747;0.0;53.73562846666666;86.83102686666666
-0.020393596410727;0.017866233779886935;-0.0010196798205363;-0.0214132762312633;0.019454251074068504;-0.0214132762312633;1.00176212340018;0.021952004733668335;0.000481890511826997;1.0394064124426028;0.0383887528718907;3.3181488587264267;1.0996454306454435;2.09332334849029;-0.0368256528348417;0.06430338054137845;0.49519480804275945;0.0;53.73557413333333;86.8305032
-0.0367084735393086;0.01118553595860376;-0.0152951973080452;-0.0601611094116447;0.019409661854144035;-0.0214132762312633;1.0394064124426028;0.024210794954949204;0.0005861625923505938;1.0394064124426028;0.04519767113054529;3.3181488587264267;1.1084830913134323;2.09332334849029;-0.1895720252866505;0.10903118666020939;0.6602440146357114;0.0;53.73552169999999;86.82987050000001
-0.0152951973080452;0.03550380077174684;0.0326297542571632;-0.0428265524625267;0.03437294142305561;0.0061180789232181;0.9942087413120575;0.026236278102984553;0.0006883422886971467;1.0394064124426028;0.045683565569601736;3.3181488587264267;3.6930452820614574;3.6709054816843047;-0.5320204608776011;0.1096170283023355;0.6619937668087865;0.0;53.735462266666666;86.82919666666668
0.0326297542571632;0.02426609462438588;0.0326297542571632;0.0061180789232181;0.02950618186222178;0.0101967982053635;0.993722846873001;0.00808558047539518;6.537661162409175e-05;0.9942087413120575;0.014241260147092705;2.468837869657038;2.902505406962339;3.0650250451069123;-0.8498160399223619;0.09581524747366016;0.6177350978987478;0.0;53.73539616666667;86.82850763333333
0.0020393596410727;0.04395675591032778;0.0326297542571632;0.0101967982053635;0.003115173308151083;0.0122361578464362;0.9799674811649648;0.01018134261149242;0.0001036597373725913;0.993722846873001;0.019880438246496768;-0.3527566229578782;0.03489788282269436;0.3671736699773022;-1.1940142276863877;0.06216395450114881;0.4978432847065368;30.0;53.73532213333334;86.82787893333334
-0.0540430304884266;0.02859349006906364;0.0020393596410727;0.0122361578464362;0.004818818829665092;0.0122361578464362;0.9738424086265043;0.040472572445964014;0.0016380291203938056;1.046804515538053;0.0729621069115487;-0.1674336491392516;0.08406574780909425;0.5524966437959288;-1.4675511378211097;0.013761435311796025;0.2243063745718148;0.0;53.73523643333334;86.82720443333334
-0.0356887937187723;0.0199033560680565;-0.0142755174875089;0.003059039461609;0.005029961111773425;0.0122361578464362;1.046804515538053;0.036926765613239876;0.0013635860186551549;1.046804515538053;0.0729621069115487;-0.1674336491392516;0.09102505418752249;0.5524966437959288;-1.4399188235780096;0.016566261909822425;0.2519386888149149;0.0;53.735154;86.826482
-0.0142755174875089;0.011029523632499016;-0.0142755174875089;0.0040787192821454;0.0144324623538031;0.0040787192821454;1.0004160773498518;0.024803621287732735;0.0006152196289852686;1.046804515538053;0.04638843818820115;1.2167772584739276;0.670667078631652;1.4503741122176244;-1.3923429080049;0.004171027663957012;0.1277854682613644;0.0;53.735079500000005;86.82575896666667
-0.0203935964107269;0.027252997906802672;-0.0142755174875089;-0.0214132762312633;0.02549199551340869;0.0295707147955541;1.0083871729536713;0.008315855631796354;6.915345488887912e-05;1.0170430883116475;0.01662701096179564;1.2167772584739276;2.0778008888767916;2.882897385969395;-1.3197230344394428;0.0036640235843035324;0.12019578913856677;0.0;53.7350041;86.8250521
-0.0642398286937901;0.022625253037820023;-0.0203935964107269;0.0295707147955541;0.025735555142498038;0.0295707147955541;1.0170430883116475;0.01465082848557584;0.00021464677531376046;1.0170430883116475;0.02857144490603558;1.2167772584739276;2.12252065474716;2.882897385969395;-1.3197230344394428;0.0013210022589303456;0.07261987356545707;0.0;53.73490326666666;86.824371
-0.0520036708473539;0.011730011846461432;-0.040787192821454;0.0101967982053635;0.01937391659019058;0.0295707147955541;0.9884716434056119;0.015329226286435673;0.00023498517854075044;1.0170430883116475;0.02857144490603558;0.5193842769846039;1.1942116859263021;2.1855044044800715;-1.3191024128899644;0.0005177630115748574;0.039718433750163484;0.0;53.73478693333334;86.82369999999999
-0.040787192821454;0.006789362820922847;-0.0397675130009177;-0.0091771183848271;0.012911471338990826;0.0152951973080452;1.0123859658403684;0.012690905893651114;0.00016105909240150855;1.0123859658403684;0.023914322434756552;0.5193842769846039;0.5472205178003259;1.4018911972300891;-1.3191024128899644;0.000502489800259984;0.039718433750163484;0.0;53.7346739;86.82310056666667
-0.0397675130009177;0.005029961111773021;-0.0316100744366268;0.0152951973080452;0.012911471338990836;0.0152951973080452;0.9930629262592425;0.013541508130271284;0.00018337244244220327;1.0191586309500773;0.026095704690834776;0.5193842769846039;0.5475939961923917;1.4018911972300891;-1.2111316107439247;0.005726751622174903;0.14583845915783678;0.0;53.73457976666666;86.82255416666668
-0.0316100744366268;0.023319254871070064;0.0040787192821454;-0.0040787192821454;0.010645769867350342;0.0152951973080452;1.0191586309500773;0.014172883867078672;0.00020087063710969887;1.0191586309500773;0.026095704690834776;0.2293009325664529;0.3681614415501224;1.1118078528119382;-1.2111316107439247;0.006634238482676967;0.14583845915783678;0.0;53.734502;86.8219644
0.0040787192821454;0.02409409414832556;0.0142755174875089;0.0132558376669725;0.009474429737103602;0.0132558376669725;1.0156957960196507;0.006493280936637152;4.2162697322095446e-05;1.0191586309500773;0.01257091342442318;0.2293009325664529;0.2866117779289618;0.9770889195736193;-1.2111316107439247;0.004657044817968438;0.13577679333169468;0.0;53.73443173333334;86.8213224
0.0142755174875089;0.005887124188738461;0.0142755174875089;0.0112164780258998;0.019454251074068372;0.0458855919241357;1.0065877175256541;0.006544959241128497;4.283649146803331e-05;1.019283725454395;0.012696007928740816;-0.638464130855911;1.1899838210757536;1.941719872094414;-1.1228384539241738;0.012895740307969385;0.2240699501514456;0.0;53.73435216666667;86.82070523333334
0.0142755174875088;0.001766137256620276;0.0142755174875089;0.0458855919241357;0.020630149764445087;0.0458855919241357;1.019283725454395;0.011497179327488711;0.0001321851324884338;1.019283725454395;0.022951134225569714;-0.5277530730882692;1.3325009536421388;2.0524309298620556;-0.9122127748596388;0.03183557509650626;0.35478095929614584;30.0;53.734218766666665;86.82016223333333
0.0112164780258998;0.0015575866540739863;0.0142755174875088;0.0091771183848271;0.01988593518413382;0.0458855919241357;0.9963325912288252;0.011780202054074023;0.00013877316043480983;1.019283725454395;0.022951134225569714;-0.5277530730882692;1.243089021112699;2.0524309298620556;-0.6002810392889233;0.06912180598795388;0.5225574146352505;30.0;53.73401506666667;86.81975373333334
0.0122361578464362;0.04150735686152252;0.0122361578464362;0.040787192821454;0.025273527677538175;0.0591414295911083;1.0124183166495602;0.018549081857951653;0.00034406843777299114;1.0333261429048373;0.03699355167601204;-0.5277530730882692;1.9497138397845089;2.7533088324573884;-0.6002810392889233;0.024354550342226326;0.3119317355707155;30.0;53.7337566;86.8194782
-0.0601611094116447;0.03834773461880793;0.0122361578464362;0.0591414295911083;0.041070866963914945;0.0591414295911083;1.0333261429048373;0.019971548501212726;0.0003988627495362923;1.0333261429048373;0.03992822990628886;1.117491811786513;5.338750865951323;4.39855371733217;-0.6002810392889233;0.05838859721329316;0.47210861100557455;30.0;53.73349436666667;86.8193525
-0.0458855919241358;0.014788287221920974;-0.0305903946160905;-0.0193739165901906;0.03925877662472857;0.0591414295911083;0.9933979129985484;0.030785267531526477;0.0009477326969876584;1.0539514407754298;0.06055352777688139;1.117491811786513;4.837089543285724;4.39855371733217;-0.7468876718162504;0.06886211213644194;0.5192936695937199;30.0;53.73323803333333;86.81930096666667
-0.0305903946160905;0.007653261445360274;-0.0305903946160905;0.0193739165901906;0.025822942677981697;0.0295707147955541;1.0539514407754298;0.030286659877415988;0.0009172817665302794;1.0539514407754298;0.06055352777688139;1.117491811786513;2.1296468087087317;2.774987169156342;-1.0723896502944978;0.00967855118967596;0.19379169111547245;30.0;53.7329689;86.81921956666667
-0.037728153359845;0.021782359498333834;0.003059039461609;0.0295707147955541;0.006555624051522885;0.0316100744366268;1.0223337798284589;0.02144683269415844;0.0004599666326112234;1.0539514407754298;0.040911470474395584;-1.0532801935268583;0.15368259690014682;0.7348209021891652;-1.198768353753653;0.024609400623350784;0.29907382168059393;30.0;53.732672733333324;86.81906846666668
0.003059039461609;0.02271697741274168;0.003059039461609;0.0316100744366268;0.006555624051522888;0.0316100744366268;1.0130399703010342;0.004708009461462694;2.216535308922225e-05;1.0223337798284589;0.009293809527424646;-1.0922231785597334;0.13680609510191394;0.6958779171562901;-1.198768353753653;0.08614485210612732;0.586973412755097;30.0;53.7323347;86.81883283333333
-0.0346691138982359;0.01951650483662072;0.003059039461609;0.0193739165901906;0.006230346616302276;0.0316100744366268;1.0163773378875036;0.008252501642770511;6.810378336392998e-05;1.0163773378875036;0.01566717775817228;-1.0922231785597334;0.1272584267517877;0.6958779171562901;-1.497842175434247;0.05001616553863232;0.4404019260917438;0.0;53.73196956666667;86.81856156666667
-0.0071377587437544;0.023095241466108012;-0.0071377587437544;0.0275313551544814;0.0041209869321170425;0.0275313551544814;1.0007101601293313;0.016929702852522766;0.0002866148386747175;1.0345389249425112;0.03382876481317987;-1.0922231785597334;0.06144658167040685;0.4842867622495317;-1.78574176650875;0.005820585384705502;0.15250233501724075;0.0;53.7316012;86.81828706666666
-0.0530233506678902;0.03849206911018008;0.023452635872336;0.0224329560517997;0.011185535958603849;0.0275313551544814;1.0345389249425112;0.02475040799575935;0.0006125826959565483;1.0345389249425112;0.04821069355152552;-0.355401313471258;0.39826880407138987;1.2211086273380072;-1.857630077741589;0.0019803431359527177;0.08061402378440174;0.0;53.73126076666667;86.81804050000001
0.023452635872336;0.046351523739066154;0.023452635872336;0.0061180789232181;0.03682630292860702;0.0224329560517997;0.9863282313909857;0.024458684912417275;0.0005982272676449085;1.0345389249425112;0.04821069355152552;2.738020399583258;4.366790513520093;3.9805202409003266;-1.857630077741589;0.00015795421716348533;0.024558740923068534;0.0;53.73095303333333;86.8178181
-0.0601611094116447;0.0547312609373697;0.023452635872336;-0.0479249515652085;0.04239955722706594;0.0356887937187723;1.0032587211371318;0.010025674880144223;0.00010051415680235487;1.0040973119313483;0.017769080540362636;2.738020399583258;5.86609820066734;4.774922618618486;-1.8652711473563413;0.0360164185098153;0.33684062538620596;0.0;53.73065513333333;86.81758846666666
-0.0795350260018354;0.012165140660190399;-0.0571020699500356;0.0356887937187723;0.04312896091068949;0.0356887937187723;1.0040973119313483;0.009624732979639087;9.26354849293523e-05;1.0203327164384106;0.017073995301278844;2.738020399583258;6.0589015304453895;4.774922618618486;-1.8821888186646576;0.10008729008056201;0.6327181246202258;30.0;53.7303713;86.81733023333334
-0.0571020699500356;0.029856485171812934;-0.0571020699500356;0.0122361578464362;0.014504325681215345;0.0356887937187723;1.0203327164384106;0.04807171081832605;0.0023108893810007657;1.0203327164384106;0.09018460711396548;-0.5653064037592592;0.6670550688873588;1.471595815275969;-2.202111772742547;0.04848743136407262;0.42487790122805125;30.0;53.7301093;86.8170085
-0.116243499541144;0.03385480329635517;-0.0571020699500356;0.0091771183848271;0.022129636396666312;0.0489446313857448;0.9301481093244451;0.04919421986126632;0.0024200712677586093;1.0203327164384106;0.09018460711396548;-0.5653064037592592;1.851938127651176;2.4156250875941625;-2.5149069432848834;0.024097218771313062;0.3067797796824032;30.0;53.729827666666665;86.81641966666666
-0.058121749770572;0.06433686776525885;0.0122361578464362;0.0489446313857448;0.023259728915979175;0.0489446313857448;0.9411777312040994;0.0061202062607736436;3.745692467441291e-05;0.9411777312040994;0.011029621879654283;-0.4970888492851102;2.0015620781849446;2.4838426420683115;-2.6269896739705985;0.07664703754278981;0.5462481869646898;30.0;53.729593300000005;86.81576716666667
0.0122361578464362;0.039767513000917604;0.0122361578464362;0.0081574385642908;0.022716977412741788;0.0489446313857448;0.9402598056139169;0.024460520953502644;0.0005983170853167419;0.9830781748662389;0.042818369252322075;-0.4970888492851102;1.9349773016206344;2.4838426420683115;-2.8216867229672866;0.12929790547603381;0.7191010372561917;30.0;53.729390966666664;86.8150955
0.0091771183848271;0.050358145099890776;0.0122361578464362;0.0112164780258998;0.01391903417928907;0.0112164780258998;0.9830781748662389;0.04424960483260385;0.001958027527841598;1.0287437472240124;0.08848394161009554;0.7950990293523423;0.6322336079533979;1.4488321834475404;-3.1732378609352883;0.09280434127670921;0.6045995300574765;30.0;53.7292631;86.81460070000001
-0.0764759865402263;0.04457528906779718;0.0091771183848271;-0.0142755174875089;0.026776709249496454;0.0392576730906495;1.0287437472240124;0.022943530729975375;0.0005264056023573244;1.0287437472240124;0.045665572357773465;0.7950990293523423;2.286104591019143;3.023106534391592;-3.5407877602234783;0.05124065999379904;0.4525571257912029;30.0;53.7291362;86.81409833333332
-0.0122361578464361;0.038320611379800626;-0.0081574385642908;0.0392576730906495;0.02677023675502203;0.0392576730906495;1.0098107601424784;0.039134323555761484;0.0015314952801670284;1.0287437472240124;0.07523610917465262;0.7950990293523423;2.284839756732528;3.023106534391592;-3.65551802230716;0.029255416368108345;0.33782686370752124;30.0;53.728997933333325;86.81351633333333
-0.0081574385642908;0.02099855582213849;-0.0081574385642908;0.011726317936168;0.01396564342072104;0.0392576730906495;0.9535076380493598;0.04313777317889173;0.001860867474833511;1.0382725478435966;0.08476490979423679;-0.7046461267874657;0.6071523530187337;1.523361378251784;-3.65551802230716;0.029043839369556734;0.33782686370752124;30.0;53.72886193333333;86.81295366666666
-0.046395431834404;0.07162540073060858;-0.0081574385642908;0.0214132762312633;0.009686958295095246;0.0214132762312633;1.0382725478435966;0.043053996529314686;0.001853646617146241;1.0382725478435966;0.08476490979423679;-0.1158034331512022;0.2851003714897131;1.065945375013311;-3.65551802230716;0.06611267477840853;0.49580908207505514;30.0;53.7287364;86.81239293333333
-0.1468338941572346;0.0618239143359403;-0.046395431834404;0.0020393596410727;0.010903106578529166;0.0214132762312633;1.0090096357022296;0.015602257695937177;0.00024343044521043085;1.0382725478435966;0.029262912141367003;-0.1158034331512022;0.36057503835073307;1.065945375013311;-3.7852361007773463;0.052037646237846874;0.4188334818252959;30.0;53.728684066666666;86.81192246666666
-0.1590700520036708;0.006230346616302439;-0.1468338941572346;0.003059039461609;0.015020821721888615;0.003059039461609;1.0330247379398418;0.012999311811459666;0.00016898210757155478;1.0330247379398418;0.024015102237612274;1.305164447599314;0.6995298486986297;1.4748315429111833;-3.715000233225079;0.07205862266718807;0.4890693493775631;30.0;53.7287363;86.81153096666667
-0.1549913327215254;0.06184843554245232;-0.0499643112062812;-0.023452635872336;0.024007631809129893;0.003059039461609;1.0296428735242675;0.01436437210641802;0.0002063351860116401;1.0330247379398418;0.026397769375680724;2.5545503506275726;1.8595756512353923;2.724217445939442;-3.340360188980956;0.18758965131368194;0.863709393621686;0.0;53.72889436666666;86.8112709
-0.0499643112062812;0.06730144305518228;-0.0295707147955541;-0.0448659121035994;0.011185535958603993;-0.023452635872336;1.0066269685641611;0.014989924647773826;0.00022469784094593728;1.0347720665923004;0.028145098028139248;2.5545503506275726;0.43078893868758594;1.2493859030282586;-2.892160377405815;0.16971727702863404;0.822839855819264;0.0;53.72912513333333;86.81110913333333
-0.0295707147955541;0.022463834188991977;-0.0295707147955541;-0.0285510349750178;0.016827291790879412;-0.0112164780258998;1.0347720665923004;0.015810197901996993;0.0002499623577003101;1.0347720665923004;0.028145098028139248;2.5545503506275726;0.9189103271485973;1.9171189366123027;-2.308031100380041;0.267965571757689;1.0323290886009153;0.0;53.7293905;86.8109905
-0.0744366268991536;0.027157451283692867;-0.0254919955134087;-0.0112164780258998;0.02759422656577918;0.0254919955134087;1.008218445274911;0.01508063861790486;0.00022742566112384337;1.0347720665923004;0.026553621317389364;1.5810838837077488;2.401717821870357;3.0286393836593324;-2.223230646060674;0.13264418580146448;0.6689297313451412;0.0;53.729682;86.81085533333334
-0.0254919955134087;0.02768826600648016;-0.0254919955134087;0.0254919955134087;0.02352640968107426;0.0254919955134087;1.009107524923813;0.017459180368132685;0.0003048229791269898;1.009107524923813;0.030674923388251618;1.0748640095757802;1.816852981519353;2.5224195095273636;-2.0481623146633567;0.017561970583457587;0.25986878571668415;60.0;53.729986700000005;86.81071630000001
-0.0275313551544814;0.01592790797574513;0.0010196798205363;-0.0183542367696543;0.03416054222290801;0.0489446313857448;0.9784326015355614;0.015686079938628694;0.0002460531038410496;1.009107524923813;0.030674923388251618;1.0748640095757802;3.879823534781965;3.8818051962259235;-1.698951387945258;0.07124432208124451;0.5242792581154159;60.0;53.73030566666666;86.81056593333334
0.0010196798205363;0.015927907975745156;0.0010196798205363;0.0489446313857448;0.03377793616479336;0.0489446313857448;0.9994662126191388;0.01240933214557832;0.00015399152429928346;1.000358393732028;0.02192579219646651;1.0748640095757802;3.7936117006822268;3.8818051962259235;-1.1996032862322583;0.18189153712591138;0.8485590284310984;60.0;53.7306228;86.81041373333333
-0.0010196798205363;0.004818818829665213;0.0081574385642908;0.0101967982053635;0.035239245513837704;0.0489446313857448;1.000358393732028;0.023337011283032515;0.0005446160956243869;1.0403258070637578;0.04085959444461895;1.1794160968785916;3.990352786060374;3.986357283528735;-0.960684470041157;0.14191146158099827;0.738266917904101;60.0;53.73092066666667;86.8102508
0.0081574385642908;0.06403989771626291;0.0081574385642908;-0.0214132762312633;0.021004744305741223;0.0183542367696543;1.0403258070637578;0.06235146566989909;0.0038877052711846043;1.0403258070637578;0.12228263245314785;1.1794160968785916;1.4717813560414839;2.3249944337128152;-0.3985666902629409;0.16911970452581315;0.8010365959693174;60.0;53.73119336666667;86.81004563333333
-0.1070663811563169;0.06429914775076341;0.0081574385642908;0.0183542367696543;0.04602134840989805;0.0183542367696543;0.9180431746106099;0.06386297542372804;0.0040784796299716914;1.0403258070637578;0.12228263245314785;4.163833415590438;7.083699834301319;5.309411752424662;0.1953668219185974;0.3341980008127846;1.1560512919597543;60.0;53.73143013333333;86.80977893333333
0.0;0.13499241234164633;0.1611094116447435;-0.0734169470786173;0.05863232857460501;0.0183542367696543;1.0111322175193989;0.06041225848077736;0.003649640974748256;1.031294108740168;0.113250934129558;5.048426354197313;11.223008656056495;6.194004691031537;0.4874090872858551;0.2038331300093525;0.885975777548796;60.0;53.73162863333334;86.80944836666667
0.1611094116447435;0.0805633102558317;0.1611094116447435;-0.0907515040277353;0.011369925348341687;-0.0734169470786173;1.031294108740168;0.019315856698109122;0.00037310231998188706;1.031294108740168;0.03861917552653482;5.481824559293838;0.4512398876824403;1.3179911437034004;0.6725046182909733;0.05786825284762733;0.4771377963723759;60.0;53.7317554;86.80908873333334
0.078515346181299;0.06694517068642909;0.1611094116447435;-0.0948302233098807;0.011949557004348793;-0.0723972672580809;0.9926749332136331;0.019806888295515905;0.000392312823951045;1.031294108740168;0.03861917552653482;5.481824559293838;0.4736690003800181;1.348128065410882;0.6725046182909733;0.010661876516936817;0.18509553100511822;60.0;53.731813466666665;86.80873720000001
0.0285510349750178;0.03662813304387494;0.078515346181299;-0.0723972672580809;0.011354673932558654;-0.0723972672580809;1.0043452845562126;0.011308364963278602;0.00012787911814270706;1.0043452845562126;0.022612825360201705;5.481824559293838;0.476416852469555;1.348128065410882;0.6725046182909733;0.021959848204215635;0.2950416225483086;60.0;53.731822566666665;86.80840496666667
0.0071377587437544;0.0360655433543945;0.0285510349750178;-0.0866727847455898;0.012292676197291305;-0.0622004690527174;0.9817324591960109;0.016903642430171555;0.00028573312740709614;1.0148033952833253;0.03307093608731437;5.064983381030407;0.6094492235399324;1.5509435039211854;0.6293227097685263;0.015860845703052802;0.25185971402586166;0.0;53.73181473333333;86.80809846666666
-0.0418068726419904;0.045919568672163416;0.0071377587437544;-0.0622004690527174;0.023964283657350035;-0.0387478331803813;1.0148033952833253;0.019541051581763395;0.00038185269692113773;1.0163038076034054;0.03457134840739451;5.064983381030407;2.0776771628374227;2.879981712556115;0.6871628821637595;0.027115470123484108;0.30969988642109486;0.0;53.73180156666666;86.80779516666666
-0.0846334251045171;0.030545041893424246;-0.0254919955134087;-0.0387478331803813;0.055128761051955806;0.0428265524625267;1.0163038076034054;0.025442766759051307;0.0006473343803554862;1.0163038076034054;0.044799209704034726;3.5140398771092216;10.075709478777979;6.040611692464107;0.8778831221554675;0.016916995681821926;0.24856041238694115;0.0;53.73178686666666;86.80745619999999
-0.0254919955134087;0.03970209510335829;-0.0091771183848271;0.0428265524625267;0.06874588284611122;0.0978892627714897;0.9715045978993707;0.02331778529152449;0.0005437191109016359;1.0163038076034054;0.044799209704034726;2.185001668474292;15.335042453362362;7.773898390814544;0.8778831221554675;0.009646545874630562;0.19072023999170795;0.0;53.73177406666667;86.80707646666667
-0.0091771183848271;0.02715745128369265;0.0275313551544814;0.0978892627714897;0.02793128684144228;0.0978892627714897;1.005126076040882;0.023955948063624388;0.000573887447627069;1.017876451606862;0.046371853707491195;-2.526571815354885;2.446880845938225;3.0623249069853666;0.8778831221554675;0.06124335382861794;0.4533332806536921;30.0;53.731775166666665;86.80665090000001
0.0275313551544814;0.0183636758223581;0.0275313551544814;0.0622004690527174;0.018532756711485937;0.0978892627714897;1.017876451606862;0.0072467603650581336;5.2515535788577494e-05;1.017876451606862;0.01275037556597991;-3.503417427269198;1.1565439489582496;2.0854792950710537;0.8232535824051944;0.17484226066339437;0.8359862060263088;30.0;53.731774300000005;86.80618923333334
0.0081574385642908;0.00969142954310381;0.0275313551544814;0.0887121443866625;0.019589621362164657;0.0887121443866625;1.0174693078552584;0.0168383303639432;0.00028352936944529155;1.017876451606862;0.029366284092090078;-2.92684290008405;1.1473077899223787;2.075070611040718;0.4245498415017754;0.1119834158400556;0.6574330759135185;30.0;53.7317626;86.8057338
0.0183542367696543;0.018382539387498474;0.0183542367696543;0.0504741511165493;0.01972625891929566;0.0887121443866625;0.9885101675147718;0.02436313754782179;0.000593562471174084;1.0369266432094915;0.04841647569471963;-2.92684290008405;1.1893276556991361;2.075070611040718;-0.0127326236211144;0.04545507013957928;0.42632756522158793;30.0;53.731743200000004;86.80526213333333
-0.0173345569491179;0.019781087695117536;0.0183542367696543;0.061180789232181;0.006181480398176325;0.061180789232181;1.0369266432094915;0.024947568302253854;0.0006223811641956212;1.0369266432094915;0.04841647569471963;-2.92684290008405;0.09157122604747057;0.572770767152647;-0.2328832344117432;0.2578316746462111;0.9642582174728279;30.0;53.731730166666665;86.8048395
-0.0142755174875089;0.04447409645357767;0.061180789232181;0.061180789232181;0.015895235309595263;0.0887121443866625;1.00227679851434;0.017433779024220684;0.0003039366510653571;1.0369266432094915;0.03464984469515153;-3.382532490235054;0.8218639940795688;1.625483784897098;-0.4390601888427023;0.35984474890046636;1.1843473095449768;30.0;53.731718699999995;86.80439283333332
0.061180789232181;0.045433954825483576;0.061180789232181;0.0887121443866625;0.016197617426252;0.0897318242071989;1.0162325740637748;0.008200144054999747;6.724236252274769e-05;1.016714869542744;0.014438071028403998;-3.499613667236697;0.7872523988879587;1.563706323101072;-1.197141451884571;0.04570940438975674;0.42626604650310806;30.0;53.73169239999999;86.8039996
-0.020393596410727;0.04297600657779401;0.061180789232181;0.0897318242071989;0.013844133003240241;0.0897318242071989;1.016714869542744;0.00025303279738291684;6.402559655142424e-08;1.016714869542744;0.0004822954789691636;-3.680546341877121;0.61288298124816;1.382773648460648;-1.2975183752869142;0.02669812448681569;0.325889123100765;30.0;53.731617400000005;86.80352353333335
0.0438462322830631;0.034972689052018405;0.0438462322830631;0.0652595085143265;0.012250311879909185;0.0897318242071989;1.0166064625010016;0.00586268698909617;3.4371098732117513e-05;1.016714869542744;0.010208241246392635;-3.680546341877121;0.4814925023629329;1.382773648460648;-1.2882177540772637;0.007183621395098082;0.1512313053456542;30.0;53.73152053333334;86.8030768
-0.0122361578464362;0.06072876075997993;0.0438462322830631;0.078515346181299;0.02080579986105565;0.078515346181299;1.0065066282963513;0.0066688120700898095;4.447305442617553e-05;1.0166064625010016;0.012594065500751261;-2.153532186752169;1.391049587266143;2.3205297457771663;-1.02128402416576;0.024607589076418572;0.27623435112115424;30.0;53.73140446666667;86.80262793333333
-0.0774956663607627;0.034493725191171776;-0.0122361578464362;0.037728153359845;0.02271697741274192;0.078515346181299;1.0040123970002504;0.00585525206191171;3.4283976708521336e-05;1.0065066282963513;0.01115600245771775;-2.153532186752169;1.6568091481115725;2.3205297457771663;-1.02128402416576;0.020931582859249467;0.26693372991150377;30.0;53.73130556666666;86.80226449999999
-0.0254919955134087;0.07060377748716491;-0.0254919955134087;0.040787192821454;0.01391903417928927;0.040787192821454;0.9953506258386335;0.01582353571115619;0.00025038428240223526;1.0260421475548724;0.0306915217162389;-0.8541390962789728;0.6599291798908007;1.4943685152907968;-1.02128402416576;0.15028226864981956;0.7562696733415832;30.0;53.73120323333334;86.8018891
-0.1651881309268889;0.06986357206596432;-0.0254919955134087;0.0152951973080452;0.032347055512668144;0.040787192821454;1.0260421475548724;0.03241797214180452;0.001050924917786814;1.0260421475548724;0.0648058217599905;1.3980645245632268;3.557060196745897;3.7465721361329964;-1.251469741753671;0.08362466669651152;0.5260839557536721;30.0;53.7311368;86.8014728
-0.092790863668808;0.07496091666106154;-0.0152951973080452;-0.023452635872336;0.02661605241215714;0.0152951973080452;0.9612363257948819;0.03243071337469635;0.0010517511699917087;1.0260421475548724;0.0648058217599905;2.0535418434212342;2.326113352061323;2.907680939700207;-1.6460621789936545;0.004361328093828613;0.13149151851368868;0.0;53.73113443333333;86.80103523333332
-0.0152951973080452;0.06282419415009419;0.0316100744366268;-0.0356887937187723;0.025471593753027;0.0132558376669725;0.9959646634065773;0.024707985775889858;0.0006104845611015756;1.0090457012571308;0.04780937546224884;2.0535418434212342;2.1550993208685356;2.8062583942611905;-1.4664300966247947;0.017291462748340477;0.25616995452273095;0.0;53.73124996666667;86.80042543333333
0.0316100744366268;0.03241127871721914;0.0316100744366268;0.0132558376669725;0.025039317136348882;0.0132558376669725;1.0090457012571308;0.01371733691640591;0.00018816533207819238;1.0090457012571308;0.027424982835058676;2.0535418434212342;2.0659779098421525;2.8062583942611905;-1.4664300966247947;0.008583424489653112;0.17963208236885975;30.0;53.731363466666664;86.79979653333334
-0.0305903946160905;0.03562075019888212;0.0316100744366268;-0.020393596410727;0.024606488967388273;0.0275313551544814;0.9816207184220721;0.023137470679010237;0.0005353425494220584;1.0276121563161944;0.0459914378941223;1.190430329339425;1.9695598567869792;2.725658592497564;-1.4621842913190073;0.0009258882063272441;0.05469803434115983;0.0;53.731437199999995;86.79911933333334
-0.0295707147955541;0.01796296558475054;0.0010196798205363;0.0275313551544814;0.038644833846136824;0.0275313551544814;1.0276121563161944;0.026085739244987808;0.0006804657919574971;1.0276121563161944;0.0459914378941223;2.734435550571891;4.6738659947207735;4.2696638137300305;-1.4621842913190073;0.0008669281375241946;0.05469803434115983;0.0;53.73143123333333;86.79854163333334
0.0010196798205363;0.017103083682279963;0.0010196798205363;-0.0489446313857448;0.03864483384613683;0.0275313551544814;1.0259468875799418;0.008847387478267292;7.827626519060086e-05;1.0276121563161944;0.016088746441610846;2.734435550571891;4.655372912422132;4.2696638137300305;-1.4621842913190073;0.0006194873950744878;0.04671197093626356;0.0;53.73142656666666;86.79792256666667
-0.0010196798205363;0.0011774248377458402;0.0010196798205363;-0.0010196798205363;0.02608334868692388;-0.0010196798205363;1.0115234098745836;0.007577629220894741;5.742046460935784e-05;1.0259468875799418;0.014423477705358234;2.734435550571891;2.121977364420242;2.6766777572317197;-1.4379176978357204;0.001262037360127571;0.07097856441955042;0.0;53.731429166666665;86.79728516666667
0.0010196798205363;0.007429214844632555;0.0010196798205363;-0.0071377587437544;0.0036882727327780225;-0.0005098399102682;1.0227642754304376;0.013812927058165099;0.00019079695391418955;1.0227642754304376;0.02747502195066054;0.3998641533056768;0.04252075878912534;0.37051421683132574;-1.4379176978357204;0.003349746590763679;0.1146774904043879;30.0;53.7314237;86.79665676666667
-0.0127459977567044;0.010851328976135553;0.0086672784745589;-0.0005098399102682;0.01782496380504036;0.0265116753339451;0.995289253479777;0.017054842294259426;0.0002908676456820601;1.0227642754304376;0.031243090475999824;0.3998641533056768;1.0514076229288236;1.932043380439472;-1.3381320951697226;0.011517085265670819;0.2144630930703857;30.0;53.73141556666667;86.79602570000002
0.0086672784745589;0.050597597711483915;0.0086672784745589;0.0265116753339451;0.016386416518801107;0.0265116753339451;0.9915211849544378;0.0064816389340233305;4.2011643271047094e-05;1.0041470149005347;0.012625829946096956;0.1745464747850902;0.895394664187794;1.7067257019188855;-1.2630866053730692;0.022573577230276504;0.2895085828670392;30.0;53.73138826666667;86.79540960000001
-0.0876924645661262;0.05732091210571068;0.0142755174875089;-0.003059039461609;0.017374498377529073;0.0275313551544814;1.0041470149005347;0.029457332867355312;0.0008677344596581715;1.047670278478852;0.05614909352441433;0.1745464747850902;0.956211331319468;1.7067257019188855;-1.2630866053730692;0.0015744919891846573;0.07504548979665349;30.0;53.73135216666666;86.79485296666667
0.0142755174875089;0.07922284449877529;0.0683185479759355;0.0275313551544814;0.02426609462438601;0.0275313551544814;1.047670278478852;0.03145464031723398;0.0009893943974865612;1.047670278478852;0.06109962027457638;1.184456707409157;1.8468692900609667;2.690285494473141;-1.1779180162130805;0.0053126992903781926;0.14504322018722937;30.0;53.73129206666666;86.79443446666666
0.0683185479759355;0.06558002677111333;0.0683185479759355;-0.020393596410727;0.0515350391277705;0.0275313551544814;0.9865706582042757;0.03463987125697692;0.001199920680699936;1.047670278478852;0.06109962027457638;4.376383193863196;8.671074754210455;5.88221198092718;-1.1779180162130805;0.027369457235779476;0.33006814941361373;0.0;53.731206066666665;86.79418633333334
-0.0622004690527174;0.07945873130240534;0.0683185479759355;-0.07545630671969;0.029293989227307377;-0.020393596410727;0.9888381533050128;0.0236427845491191;0.000558981261236065;1.0286077996625382;0.04203714145826254;4.376383193863196;2.7919865924906073;3.1919264864540393;-1.1779180162130805;0.07343982849433661;0.537338718835902;0.0;53.7310675;86.79403070000001
-0.07545630671969;0.010348619929735545;-0.0622004690527174;-0.0652595085143265;0.005887124188738888;-0.0652595085143265;1.0286077996625382;0.019896241383576565;0.00039586042119354466;1.0286077996625382;0.039769646357525446;4.376383193863196;0.16411152888792613;0.7388379570076187;-1.5079861656266942;0.01150976248608029;0.20727056942228828;0.0;53.730897266666666;86.7938946
-0.0825940654634444;0.029358988577317988;-0.0285510349750178;-0.07545630671969;0.011231917094496014;-0.0530233506678902;1.0075556354759139;0.011453921213986822;0.00013119231117621734;1.0286077996625382;0.021052164186624367;4.294928521528365;0.41376370679406893;1.2863849821674767;-1.339334040121706;0.04117030414052775;0.3759226949272765;0.0;53.73071686666666;86.7936886
-0.0285510349750178;0.028005638224553035;-0.0285510349750178;-0.0530233506678902;0.030402878588509402;-0.0530233506678902;1.010259843060956;0.006975559544672234;4.8658430961267893e-05;1.0207606181966318;0.013204982720717906;6.3661886675592445;2.8697809536326737;3.357645128198356;-1.3044449061832557;0.03833575687684876;0.35522309186444945;0.0;53.73054823333334;86.79343463333333
-0.0428265524625267;0.014788287221920812;-0.0285510349750178;-0.113184460079535;0.03310951303307364;-0.0530233506678902;1.0207606181966318;0.006518852404869489;4.2495436676472724e-05;1.0207606181966318;0.011942666790332401;6.3661886675592445;3.404982579960201;3.357645128198356;-1.2501047488997328;0.002021995128731059;0.0892292912219732;0.0;53.73038773333334;86.793112
-0.058121749770572;0.007653261445359931;-0.0428265524625267;-0.0591414295911083;0.030093513945903386;-0.0591414295911083;1.0088179514062994;0.028795617398876323;0.0008291875813824689;1.0207606181966318;0.05476264693147903;6.3661886675592445;2.6695086234302154;3.0053262899495743;-0.9715493592892608;0.03189423381938747;0.3328955468939949;0.0;53.7302306;86.79276713333333
-0.0509839910268175;0.036381284337536846;0.0081574385642908;-0.0632201488732537;0.011369925348341506;-0.0591414295911083;0.9659979712651527;0.021416647152944238;0.00045867277527371456;1.0088179514062994;0.04281998014114663;4.675115773193442;0.4553229457128529;1.3142533955837714;-0.7292103102342946;0.06794205600171918;0.5208944386654382;0.0;53.73009366666667;86.79239126666666
0.0081574385642908;0.03780157236065918;0.0193739165901906;-0.0805547058223717;0.01888473455435114;-0.0632201488732537;0.9883327863760156;0.013856522267556527;0.00019200320935128988;0.9913737092477223;0.025375737982569535;5.844369070213224;1.0991199330343888;2.091940432915594;-0.4758779596215486;0.06143260516870165;0.4956713996677122;0.0;53.72998343333333;86.7920677
0.0193739165901906;0.00579814489963978;0.0193739165901906;-0.1009483022330988;0.010613164063761223;-0.0805547058223717;0.9913737092477223;0.01116426361425832;0.00012464078204865224;1.009010150933519;0.020677364557503353;5.844369070213224;0.3539781656982605;1.1692532970197824;-0.2130719408582731;0.06660718328452137;0.5161383693760215;30.0;53.72989586666667;86.7917924
0.0112164780258998;0.011905971848772387;0.0346691138982359;-0.095849903130417;0.014067640179854424;-0.0744366268991536;1.009010150933519;0.009589769513492852;9.196367932191694e-05;1.009010150933519;0.0176364416857967;5.844369070213224;0.6989140762095936;1.604061173928283;0.1485838357961;0.09830240637028514;0.6244617954176486;30.0;53.72981816666667;86.79156110000001
0.0346691138982359;0.011905971848772392;0.0346691138982359;-0.0744366268991536;0.010742993527941993;-0.0744366268991536;1.0067194090422067;0.009068262003129197;8.223337575739675e-05;1.0234456818700606;0.016726272827853883;5.45097406827643;0.3749030977066212;1.2106661719914893;0.2605409622914462;0.061273080165044305;0.47361290314971927;30.0;53.729728333333334;86.79130913333334
0.0265116753339451;0.006686487737637992;0.0346691138982359;-0.0836137452839808;0.009177118384827206;-0.0652595085143264;1.0234456818700606;0.008375997147115875;7.015732820849327e-05;1.0234456818700606;0.016726272827853883;4.686189239999629;0.2525488567082681;1.003029731273116;0.5608463416008511;0.0454463487845752;0.4122625058047511;0.0;53.729623333333336;86.79105053333335
0.0214132762312633;0.0029435620943684417;0.0265116753339451;-0.0652595085143264;0.012735796876513557;-0.0591414295911083;1.0158861825580345;0.019225156021987013;0.0003696066240697435;1.0234456818700606;0.036428797878324426;4.686189239999629;0.4387621015115678;1.2510045741525118;0.9178147611781688;0.1082697700200744;0.6572737988867227;0.0;53.72949213333334;86.79077426666667
0.0214132762312633;0.0008830686283072865;0.0214132762312633;-0.0591414295911083;0.017054888022512208;-0.0331395941674314;0.9870168839917361;0.014436490461205804;0.00020841225683648616;1.0158861825580345;0.028869298566298385;3.6831595087265128;0.9361899651489475;1.7860497708782004;0.954722280305222;0.04732114543894193;0.3938759387043709;0.0;53.72933166666667;86.7905114
0.0198837565004588;0.004336137732290171;0.0214132762312633;-0.0331395941674314;0.016865865903828048;-0.0275313551544814;1.0010521954142537;0.014012291342402809;0.00019634430866437673;1.0150414540634591;0.028024570071722987;3.435184665847117;1.003526852341324;1.8809388507779523;0.9770390923350044;0.0008946210780027223;0.059224331156835563;0.0;53.72913326666667;86.79021913333334
0.0132558376669725;0.016958085785109326;0.0198837565004588;-0.0275313551544814;0.011388960897159638;-0.0112164780258998;1.0150414540634591;0.0072988405857973655;5.327307389688283e-05;1.0150414540634591;0.013989258649205416;1.8971097378483124;0.42572316541612887;1.2618459855522959;0.9770390923350044;0.022836434159321243;0.27218670410478263;0.0;53.72886603333333;86.78990923333333
-0.0122361578464362;0.019248285421661532;0.0254919955134087;-0.0112164780258998;0.0322504809068203;0.0346691138982359;1.0116585699575624;0.017787748705075688;0.0003164040039949218;1.044019688946031;0.032361118988468496;1.5542458150691647;3.2066235278060518;3.4572359437572118;0.9770390923350044;0.02622987689156253;0.2881638266891152;0.0;53.72855093333334;86.78960266666668
0.0254919955134087;0.021782359498333785;0.0254919955134087;0.0346691138982359;0.023614634026962726;0.0346691138982359;1.044019688946031;0.026876722615099408;0.0007223582185289959;1.044019688946031;0.05335102006371806;0.6352637522960164;1.7325624826821737;2.5382538809840636;0.7048523882302218;0.0032031745558220534;0.10503531462800386;30.0;53.7281752;86.78933786666666
0.0254919955134087;0.02119364707945986;0.0254919955134087;0.0214132762312633;0.011278107489913545;0.0346691138982359;0.9906686688823129;0.027149034105067867;0.0007370700528381382;1.044019688946031;0.05335102006371806;-0.6951194131182296;0.36595846785074754;1.2078707155698174;0.6888752656458892;0.021732635274213333;0.2879410608986454;30.0;53.7278125;86.78918850000001
-0.0112164780258998;0.01858877524744247;0.0254919955134087;0.0122361578464362;0.01346337807711402;0.0387478331803813;1.0085999435482345;0.009723478995983895;9.454604378533998e-05;1.0085999435482345;0.017931274665921593;-0.6951194131182296;0.5865472458285758;1.5119375437377691;0.5998170736022179;0.028773653890575648;0.3374648892147209;30.0;53.727438199999995;86.78911286666668
0.0020393596410727;0.009903675799145424;0.0081574385642908;0.0387478331803813;0.03827989048720603;0.0876924645661262;1.0061527548802167;0.008794242024563446;7.733869278659777e-05;1.0224602654522943;0.016307510572077577;-0.6951194131182296;4.582794877289057;4.224962614432503;0.4009342047472438;0.03558772097899573;0.3731979542628501;30.0;53.72704996666666;86.78909156666667
0.0081574385642908;0.006634452022684976;0.0081574385642908;0.0876924645661262;0.030179766670640946;0.0876924645661262;1.0224602654522943;0.009475226122994956;8.977991008188603e-05;1.0224602654522943;0.01651369275301695;-1.8588215838896935;2.808848068854496;3.0612604436610384;0.262352184387497;0.03166079223942731;0.34903819671769165;30.0;53.726620733333334;86.78907193333333
-0.0050983991026817;0.010807323405447872;0.0081574385642908;0.0326297542571632;0.031500240628388396;0.0876924645661262;1.0059465726992773;0.008585138457311079;7.370460233120165e-05;1.0224602654522943;0.01651369275301695;-1.8588215838896935;3.0734199252084813;3.0612604436610384;0.0277362504843937;0.02418535763785376;0.3076841484030472;30.0;53.7262072;86.78905093333333
-0.0132558376669725;0.027968487239958657;-0.0050983991026817;0.0336494340776996;0.027968487239958838;0.0336494340776996;1.010130671755149;0.043027317837059736;0.0018513500802513588;1.082475979965595;0.07652940726631763;0.8096063397761647;2.4189632184795378;2.718594316933659;-0.0866860123301946;0.041019839080323806;0.4049277152800351;30.0;53.72584353333334;86.78904566666667
-0.0571020699500356;0.021925092176159875;-0.0132558376669725;-0.0152951973080452;0.027968487239958865;0.0336494340776996;1.082475979965595;0.039141433373648414;0.0015320518065437578;1.082475979965595;0.07234530821044594;0.8096063397761647;2.4563490290094183;2.718594316933659;-0.2799478979186535;0.026148796580637908;0.31759828535697676;30.0;53.72552753333334;86.78907953333334
-0.0356887937187723;0.041723889486250734;0.023452635872336;-0.0142755174875089;0.009139274436456341;-0.0142755174875089;1.020404045859131;0.03159370233778717;0.0009981620274086983;1.082475979965595;0.062071934106463944;1.6511080121120518;0.23830948165984056;0.8495102635528355;-0.4916137276102297;0.026752465310490848;0.3209981887237241;30.0;53.72522573333333;86.78917026666666
0.023452635872336;0.02994342067127142;0.023452635872336;-0.0305903946160905;0.016314877128581734;-0.0142755174875089;1.061676825377079;0.023168895911066634;0.0005367977377378402;1.061676825377079;0.041272779517947944;2.6284944005332034;0.8357505361910625;1.826896651973987;-0.5975461832756302;0.018999419704949075;0.2568925229394542;30.0;53.72494606666667;86.78933433333333
0.0020393596410727;0.025600530311886582;0.023452635872336;-0.0469052717446721;0.00888936258497153;-0.0305903946160905;1.022797314548496;0.04302891601572626;0.0018514876134884239;1.061676825377079;0.08592848053940372;2.6284944005332034;0.2554613909010435;0.9773863884211516;-0.8126119163339538;0.008852774655241842;0.17980396641034024;30.0;53.72470113333333;86.78955873333332
-0.0275313551544814;0.029570714795553982;0.0316100744366268;-0.0326297542571632;0.008551541841140351;-0.0316100744366268;0.9757483448376753;0.02976067181558545;0.0008856975869149821;1.0308463723769155;0.0550980275392402;2.6284944005332034;0.21526666032532368;0.871289975936905;-0.8544387062150844;0.07239699256841692;0.5194469123891612;30.0;53.7244883;86.78984083333334
0.0316100744366268;0.030402878588509166;0.0316100744366268;-0.0316100744366268;0.015020821721888797;-0.0061180789232181;1.0308463723769155;0.027784757574233404;0.0007719927534589206;1.0308463723769155;0.0550980275392402;1.91637099686139;0.7459323395698456;1.5691458126531832;-0.992415882744294;0.0681345025271515;0.4993837591457667;30.0;53.7242949;86.79018503333334
-0.0101967982053635;0.026804199914540264;0.0316100744366268;-0.0061180789232181;0.013308026206078696;-0.0061180789232181;1.009553058515429;0.01914229968560894;0.00036642763725366407;1.0308463723769155;0.038200767338414376;1.7572044245962983;0.5556290716382382;1.4099792403880915;-1.3738856186042456;0.009922484714908315;0.19802414104167654;0.0;53.724107800000006;86.79056113333333
-0.0183542367696543;0.008157438564290336;-0.0101967982053635;-0.0254919955134087;0.01937391659019071;0.0132558376669725;0.9926456050385011;0.008490843249106648;7.209441908089994e-05;1.009553058515429;0.016907453476928014;1.4715668297588165;1.244701225646513;2.2313010079316116;-1.4917996418900608;0.0018119366245931468;0.08011011775586141;0.0;53.7239242;86.79096633333334
-0.0265116753339451;0.03321924264401773;-0.0183542367696543;0.0132558376669725;0.03329739954597324;0.040787192821454;0.9997257343334287;0.008949176726336992;8.008776407921168e-05;0.9997257343334287;0.017776184874305545;1.4715668297588165;3.7408079712810975;3.8521438390290954;-1.5069030144780842;0.02751977833394703;0.3142655547765014;0.0;53.72373893333333;86.79136986666667
-0.0795350260018354;0.03394170893666398;-0.0163148771285816;0.040787192821454;0.016197617426251924;0.040787192821454;0.9819495494591232;0.01231868528355989;0.000151750007115395;1.005611113385136;0.02366156392601282;-0.6971855162417481;0.9108084561717205;1.6833914930285307;-1.5069030144780842;0.044098029178884106;0.39842504487207586;0.0;53.72355133333334;86.79177106666667
-0.0163148771285816;0.03161555611089613;-0.0163148771285816;0.0122361578464362;0.01743423894936575;0.040787192821454;1.005611113385136;0.016060981701786336;0.0002579551332251155;1.005611113385136;0.03064469155423466;-0.539319000670051;1.041493301629013;1.841258008600228;-1.6892232445763908;0.01186561324097469;0.2161048147737692;0.0;53.72338353333333;86.79213233333333
-0.0469052717446721;0.016186915332300676;-0.0163148771285816;0.0091771183848271;0.008093457666150751;0.0244723156928724;0.9749664218309013;0.022041661207314343;0.00048583482877802606;1.017732922650459;0.042766500819557685;-0.539319000670051;0.19856613318649977;0.8385430405068341;-1.3114827809985048;0.0903402272354753;0.5938452783516552;60.0;53.723250766666666;86.79245183333335
-0.040787192821454;0.021413276231263188;-0.0071377587437544;0.0244723156928724;0.007698413822036342;0.0244723156928724;1.017732922650459;0.02868379134263218;0.0008227598857876608;1.017732922650459;0.054497438654415586;-0.539319000670051;0.17658091633951994;0.8385430405068341;-1.0675723558249888;0.09810499680293593;0.6216508887514021;60.0;53.72313713333333;86.79273926666667
-0.0071377587437544;0.019427509822838224;-0.0071377587437544;0.0152951973080452;0.010213778730374276;0.0356887937187723;0.9632354839960434;0.02750821444157583;0.0007567018617637212;1.017732922650459;0.054497438654415586;-0.9098367935612356;0.34602525856766597;1.168780002035541;-0.9239457286663848;0.03838431174456457;0.38753705233212;60.0;53.72297573333333;86.79314959999999
-0.040787192821454;0.020042178019517246;-0.0050983991026817;0.0356887937187723;0.01123191709449621;0.0356887937187723;0.98395523170649;0.0282442634046218;0.0007977384152696582;0.98395523170649;0.055870688909680055;-0.9098367935612356;0.4014389058370741;1.168780002035541;-0.6714741489657093;0.04021071601041285;0.39609820685927943;60.0;53.72279963333333;86.79359643333333
-0.0050983991026817;0.024900517191655258;-0.0050983991026817;0.0173345569491179;0.018354236769654465;0.0540430304884266;0.92808454279681;0.03222645658974841;0.001038544504330939;0.98395523170649;0.055870688909680055;-1.0702200757141274;1.0804969877964914;2.0786325455733885;-0.1145544425774919;0.17150261865275718;0.8093912860888929;60.0;53.72261893333333;86.79405573333334
-0.0530233506678902;0.024180247322432655;-0.0050983991026817;0.0540430304884266;0.032714617220396286;0.0825940654634444;0.9838494237832109;0.054214139280486615;0.0029391728979240015;1.036497891829537;0.10841334903272715;-1.0702200757141274;3.098959499134314;3.500280220666723;0.3136538920606377;0.24399986573888505;0.985128041026347;60.0;53.72247466666667;86.79438933333334
-0.023452635872336;0.06613785120090343;0.0734169470786173;0.0825940654634444;0.017103083682280258;0.0846334251045171;1.036497891829537;0.02689685634251283;0.0007234408811097727;1.036497891829537;0.05264846804632617;-3.148852621287516;0.7759251327440311;1.6119141849360852;0.9412952301804204;0.2820190931055211;1.0558496727579123;60.0;53.72233616666667;86.79466043333333
0.0734169470786173;0.05372787058672283;0.0734169470786173;0.0846334251045171;0.029453277021025757;0.0846334251045171;1.0197353915723013;0.00956830938134493;9.155254441713341e-05;1.036497891829537;0.0167625002572358;-1.804686023088661;2.737390589255704;2.95608078313494;1.4869834288209545;0.3447352435477145;1.1733295367603167;60.0;53.7222035;86.79485203333333
-0.0152951973080452;0.0444740964535777;0.0734169470786173;0.0326297542571632;0.026003501513796552;0.0846334251045171;1.0361117384542915;0.01344606289776009;0.0001807966074505205;1.0361117384542915;0.02666116100262017;-1.804686023088661;2.1865301150001706;2.95608078313494;1.5928634313216;0.12225455096719856;0.6515682011411795;60.0;53.7220673;86.79498036666666
0.023452635872336;0.019382859086207894;0.023452635872336;0.0591414295911083;0.013372975475276968;0.0591414295911083;1.0094505774516713;0.015052228063684822;0.00022656956968118092;1.0361117384542915;0.02666116100262017;-1.804686023088661;0.6163360839794861;1.5540676740767787;1.8222697200392128;0.029375786218560202;0.33528629121825837;60.0;53.721902;86.795054
0.003059039461609;0.0632311122217925;0.1213418986438258;0.0489446313857448;0.022371071917207993;0.0917711838482716;1.0106734918055484;0.008017221919422007;6.42758473052607e-05;1.0239078246847249;0.014457247233053527;-2.7757907240676434;1.5201080068262853;2.366436823291497;2.022444556398513;0.046206192239457086;0.42958112507691326;60.0;53.72172096666666;86.7951119
0.1213418986438258;0.06365721006687448;0.1213418986438258;0.0917711838482716;0.03735889413477173;0.0917711838482716;1.0239078246847249;0.030802085060781595;0.0009487684440916248;1.0239078246847249;0.05872229725419542;-1.0290771316925589;4.261506325719333;4.113150415666581;2.022444556398513;0.10345638472699033;0.629536830633284;60.0;53.72153933333333;86.79512653333332
0.1029876618741715;0.035357070012598725;0.1213418986438258;0.0173345569491179;0.03772815335984507;0.0917711838482716;0.9651855274305294;0.03424577976341568;0.0011727734316043712;1.0239078246847249;0.0598912837186073;-1.0290771316925589;4.3059106977639;4.113150415666581;2.022444556398513;0.12246090670414907;0.629536830633284;60.0;53.7213667;86.79510750000001
0.0530233506678902;0.04844284091045045;0.1029876618741715;0.0438462322830631;0.055188453131558575;0.1233812582848985;0.9640165409661176;0.03201875127768404;0.0010252004333821934;1.020049897154487;0.056033356188369354;-1.0290771316925589;9.39229811987296;5.918207946115254;1.520860624452045;0.004158857431708814;0.12795289868681592;60.0;53.72119366666667;86.79506246666666
0.0061180789232181;0.02598350138148435;0.0530233506678902;0.1233812582848985;0.03998046552471398;0.1233812582848985;1.020049897154487;0.03199416178479282;0.0010236263883114972;1.020049897154487;0.056033356188369354;-2.6068754218824965;4.7468536416552265;4.340409655925317;1.520860624452045;0.027042929768848627;0.31571504257693217;60.0;53.721021400000005;86.7950182
0.0489446313857448;0.02339344931520972;0.0489446313857448;0.0907515040277353;0.027214819511350474;0.1233812582848985;1.0187928231424832;0.023772888784605352;0.0005651502411652149;1.020049897154487;0.041789994064662106;-4.064484082970079;2.1297350857108563;2.8828009948377344;1.520860624452045;0.06961663123062795;0.5240444989515058;60.0;53.7208472;86.79496346666667
0.043846232283063;0.012911471338990644;0.0489446313857448;0.0693382277964718;0.011185535958604166;0.0907515040277353;0.9782599030898248;0.04360108172279841;0.0019010543273981458;1.0653917112136395;0.08713180812381471;-4.006396923166251;0.3861215968584456;1.1041408787427116;1.205145581875113;0.017738531123831534;0.2479170206094281;60.0;53.720652300000005;86.79488803333334
0.0244723156928724;0.03295212260117956;0.043846232283063;0.0744366268991536;0.0137782604661361;0.0953400632201488;1.0653917112136395;0.04356676506652333;0.0018980630183616375;1.0653917112136395;0.08713180812381471;-4.006396923166251;0.5779178233066768;1.3448030113024547;0.9968161255005392;0.028583574497274868;0.3106121826020003;60.0;53.72039040000001;86.79479679999999
-0.020393596410727;0.022588842578643326;0.0244723156928724;0.0953400632201488;0.03641342171034795;0.0953400632201488;1.0223002171967595;0.03714681019088874;0.0013798855073579156;1.0653917112136395;0.07395756704570311;-1.414418534931056;4.0041824820053495;3.936781399537649;0.9572285612656848;0.1629486516003053;0.7941132482811694;60.0;53.720129066666665;86.7947232
-0.0025491995513408;0.06056231471600913;-0.0025491995513408;0.0244723156928724;0.03809269608910429;0.0953400632201488;0.9914341441679364;0.052169845885867365;0.002721692819755152;1.0223002171967595;0.10174956222704801;-1.414418534931056;4.323833722830248;3.936781399537649;0.6862039428985389;0.27688151757299273;1.0523845432332963;60.0;53.71989156666666;86.79465636666667
-0.1152238197206077;0.05746584129387785;-0.0025491995513408;0.0356887937187723;0.008791351182065926;0.0356887937187723;0.9205506549697114;0.04593270490893818;0.0021098133802515935;1.00659959629092;0.08604894132120855;-1.0447834358488073;0.3623467009549681;1.1770713089241351;0.1631153129845154;0.14265202239052793;0.7313817611770722;60.0;53.719734433333336;86.79460163333334
-0.078515346181299;0.06561172836502306;0.0122361578464362;0.0183542367696543;0.03096761627379934;0.0356887937187723;1.00659959629092;0.05003496735063153;0.002503497957778763;1.0078151374574045;0.08726448248769303;1.3914240657869748;3.3960646033600326;3.613278810559917;-0.3661806003347574;0.11149386545522182;0.652271169701423;60.0;53.719599933333335;86.79451833333333
0.0122361578464362;0.04587803811851626;0.0122361578464362;-0.0244723156928724;0.023393449315209997;0.0183542367696543;1.0078151374574045;0.020767519401437357;0.0004312898620890771;1.0431623586141359;0.03656276232321587;1.3914240657869748;1.754628157902066;2.4362075016357823;-0.5682664481925568;0.15673821983809752;0.7891977411256637;60.0;53.71947746666667;86.79444706666668
-0.0448659121035994;0.04272932974356459;0.0122361578464362;0.0132558376669725;0.06041979389018273;0.0938105434893443;1.0431623586141359;0.026158458003230207;0.0006842649251067585;1.0588912216371797;0.05107608417977527;1.3914240657869748;10.894793967299627;6.4741031567248575;-1.0184517700361804;0.1443355473294688;0.7584116151756359;60.0;53.71935823333333;86.79437903333333
-0.0713775874375446;0.1091311504197648;0.1294993372081166;0.0938105434893443;0.049033065367054686;0.0938105434893443;1.0588912216371797;0.03640733180757296;0.0013254938093467136;1.0588912216371797;0.06943498924037228;-0.295230889405826;7.011568991689794;4.787448201532056;-1.3574641893182204;0.04547405897902611;0.41939919589359587;60.0;53.71924333333334;86.79433239999999
0.1294993372081166;0.10316208806142307;0.1294993372081166;0.0050983991026817;0.0697791867479377;0.0938105434893443;0.9894562323968075;0.04309740144889612;0.0018573860116473137;1.0588912216371797;0.07894695015418485;2.56447547165367;14.929425609666923;7.6471545625915525;-1.5548535923780096;0.01265514232585507;0.22200979283380673;60.0;53.71913096666666;86.79427976666666
-0.011726317936168;0.10842022705727232;0.1294993372081166;-0.0438462322830631;0.025822942677981957;0.0050983991026817;0.9799442714829949;0.010420191846264542;0.00010858039811295803;1.0007589923643427;0.020814720881347837;2.56447547165367;2.281209055920872;2.859706361059496;-1.4114767454751649;0.01274799499260442;0.22277215787389393;0.0;53.71899306666666;86.79423573333334
-0.0836137452839808;0.05196616909671503;0.0173345569491179;-0.0050983991026817;0.03187756796218596;-0.0050983991026817;1.0007589923643427;0.012319263719418489;0.00015176425858858065;1.0017688698444418;0.0218245983614469;3.910487941277749;3.345094859170895;3.6185914739835336;-1.4114767454751649;0.008416372084975126;0.17084197146737767;0.0;53.718843633333336;86.79417163333333
0.0173345569491179;0.05659911934894618;0.0173345569491179;-0.0683185479759355;0.03373173180765615;-0.0050983991026817;1.0017688698444418;0.01722541246128699;0.0002967148344614611;1.0310863993790127;0.03032740701466996;3.910487941277749;3.7492116485635707;3.6185914739835336;-1.4114767454751649;0.009143963189695589;0.17084197146737767;30.0;53.71866323333333;86.7940851
0.0112164780258998;0.06835912020011937;0.0173345569491179;-0.0163148771285816;0.027023118466810887;-0.0163148771285816;1.0310863993790127;0.0180819368569613;0.00032695644049913553;1.0310863993790127;0.032995372086785824;3.910487941277749;2.4452687205697274;3.0038591526382175;-1.4502222841835166;0.005373251073895436;0.13209643275902594;30.0;53.71845596666666;86.79401436666666
-0.1040073416947078;0.05824088846230307;0.0112164780258998;-0.0550627103089629;0.041323250742116;0.0275313551544814;0.9980910272922269;0.016774296430907273;0.0002813770207519484;1.0310863993790127;0.032995372086785824;3.162500541151764;5.586483969542345;4.725537005590778;-1.4502222841835166;0.009789891986447022;0.196085788721847;30.0;53.71823056666667;86.79397670000002
-0.0316100744366268;0.044684009446529;-0.0224329560517997;0.0275313551544814;0.04175710253786739;0.0275313551544814;1.0093341793033088;0.014164844059878414;0.0002006428072406728;1.0093341793033088;0.028140947030591335;3.162500541151764;5.7112643348835554;4.725537005590778;-1.4502222841835166;0.01213344579222829;0.196085788721847;0.0;53.71802493333333;86.79393320000001
-0.0224329560517997;0.010213778730373449;-0.0112164780258998;-0.003059039461609;0.01600388479928439;0.0275313551544814;0.9811932322727175;0.015038000227963881;0.00022614145085624173;1.0093341793033088;0.028140947030591335;0.1786297832930627;0.8287444775442482;1.7416662477320766;-1.1156176683763204;0.07255937617901304;0.5306904045290433;0.0;53.717885300000006;86.79381916666667
-0.0112164780258998;0.00567733696627821;-0.0112164780258998;0.0040787192821454;0.027023118466810866;0.0040787192821454;1.0044555324690858;0.015144088294764423;0.00022934341027962079;1.009622574923062;0.02842934265034458;2.604890912291492;2.351263472311464;2.837548342463922;-1.1156176683763204;0.03222900937132312;0.34568136748741063;30.0;53.71780638333333;86.79368905
-0.0152951973080452;0.004597990978710746;-0.0112164780258998;-0.0458855919241358;0.028995207253350586;0.0040787192821454;1.009622574923062;0.0029432809058211407;8.662902490571315e-06;1.009622574923062;0.005167042453976256;2.634223088694238;2.7119241469749333;2.866880518866668;-1.1156176683763204;0.003903485245740709;0.1205394726813287;30.0;53.717777516666665;86.79361751666666
-0.0203935964107269;0.0034704085273533033;-0.0152951973080452;-0.0463954318344039;0.0016389060128837213;-0.0433363923727949;1.0094813807996394;0.0026008244309993524;6.764287720883105e-06;1.009622574923062;0.004573697252387987;2.634223088694238;0.007543268221381961;0.16293787322700481;-1.1258448016268194;0.003224752847866495;0.11031233943082963;30.0;53.717772133333334;86.79359506666667
-0.0219231161415315;0.002336379981110936;-0.0173345569491179;-0.0433363923727949;0.0015575866540787052;-0.0433363923727949;1.005048877670674;0.0023295195857062456;5.426661500188998e-06;1.0094813807996394;0.0044325031289653705;2.634223088694238;0.00685791198060909;0.16293787322700481;-1.1258448016268194;0.0031894747154183056;0.11031233943082963;0.0;53.71776826666667;86.7935912
-0.0173345569491179;0.027031133153485192;-0.0173345569491179;-0.0443560721933312;0.002409409414834523;-0.0397675130009177;1.0060222810910333;0.0022766798534637304;5.1832711551676326e-06;1.0093877447201698;0.004338867049495709;2.5270214288871906;0.020177061702883553;0.2691175440021496;-1.1258448016268194;0.017063540564119458;0.2545100183109945;0.0;53.71776503333333;86.79355383333332
-0.0662791883348628;0.026222496206091923;-0.0173345569491179;-0.0397675130009177;0.012718777228556579;-0.020393596410727;1.0093877447201698;0.0048538201122619;2.3559569682198122e-05;1.0093877447201698;0.009568411871946236;2.5270214288871906;0.5172561146659993;1.3582622306178374;-0.8301126750434594;0.07881415437833209;0.5502421448943545;0.0;53.71776695;86.79345335000001
-0.0254919955134087;0.02678641505876187;-0.0254919955134087;-0.020393596410727;0.011491207983669864;-0.0193739165901906;0.9998193328482236;0.011086876904913931;0.0001229188395047139;1.0219266631906285;0.022107330342404974;2.257903884885041;0.4276188116479211;1.1716124725311028;-0.8301126750434594;0.07569263492364099;0.5502421448943545;0.0;53.7177876;86.79327773333334
-0.0759661466299581;0.032119914346894866;-0.0163148771285816;-0.0193739165901906;0.03679805828459873;-0.0193739165901906;1.0219266631906285;0.02119738200202412;0.0004493290037397361;1.0219266631906285;0.04238155163148072;4.896713354392942;4.7372930837075575;3.8104219420390035;-0.8301126750434594;0.15821898188089242;0.7836833691968422;30.0;53.71784763333333;86.7930391
-0.0163148771285816;0.036001822201270545;-0.0112164780258998;-0.0836137452839808;0.03708888238905537;-0.0193739165901906;0.9795451115591478;0.04730112634856247;0.0022373965538426705;1.0739823393197365;0.09443722776058872;4.896713354392942;4.3537768510466375;3.8104219420390035;-1.1034755502455371;0.17962289668414183;0.8412902966529239;0.0;53.71795986666666;86.79282706666667
-0.0112164780258998;0.0036765078774981547;-0.0112164780258998;-0.0836137452839808;0.015895235309595468;-0.0560823901294993;1.0739823393197365;0.05903102009594437;0.003484661333567788;1.0739823393197365;0.10857977024467846;4.896713354392942;0.6546336213909961;1.5663986978163837;-1.6137960442403017;0.09362062263715393;0.6112495367678366;90.0;53.71810853333333;86.79267706666667
-0.0183542367696543;0.07102956228056602;0.1080860609768532;-0.0560823901294993;0.01993815217166338;-0.0560823901294993;0.9654025690750581;0.05518480940957779;0.0030453631895714255;1.0739823393197365;0.10857977024467846;5.247670126961109;0.929415072822942;1.9173554703845506;-1.944765846898461;0.16873657675697717;0.8089389275031573;90.0;53.718302599999994;86.7926834
0.1080860609768532;0.07514562935818361;0.1080860609768532;-0.0948302233098807;0.020427557460748376;-0.0560823901294993;1.036836394494884;0.039611014226485934;0.001569032448050871;1.036836394494884;0.0714338254198259;5.247670126961109;1.0142497966515425;1.9173554703845506;-2.225045581008138;0.23342334276047333;0.9648005962476818;90.0;53.71850366666666;86.79270526666666
-0.0254919955134087;0.08883707463473103;0.1080860609768532;-0.0866727847455898;0.01641019367740537;-0.0632201488732538;1.0307843395053438;0.018571209539362678;0.0003448898237549154;1.036836394494884;0.03476242527503692;5.247670126961109;0.7155961883479757;1.6305170516003047;-2.7537047744016183;0.16346281687840086;0.8077519358008347;0.0;53.718655899999995;86.79269536666668
-0.0601611094116447;0.027838068358578077;-0.0254919955134087;-0.0632201488732538;0.024997758075112408;-0.0367084735393086;1.002073969219847;0.0144608781686011;0.00020911699740712393;1.0307843395053438;0.028710370285496722;4.823370900032751;1.9142015911668884;2.7598155899079004;-3.18984617725582;0.18680898605384555;0.861716626796488;0.0;53.71871659999999;86.79259393333332
-0.0805547058223717;0.02194089404644619;-0.0601611094116447;-0.0367084735393086;0.01660962132200927;-0.0326297542571632;1.0194518966231174;0.00869339022653831;7.55750336308718e-05;1.0194518966231174;0.017377927403270377;3.617153075360804;0.9297951947647892;1.7663119306293107;-3.561456710202453;0.21844096442733352;0.9343787361752742;0.0;53.718714033333335;86.79253163333334
-0.1040073416947078;0.012749396236368907;-0.0805547058223717;-0.0326297542571632;0.005132275881358313;-0.0326297542571632;1.0102824849351537;0.024466601477318245;0.0005986145878499114;1.0194518966231174;0.04621144221043516;2.522062545839105;0.11766906177772174;0.6712214011076119;-4.051562804052308;0.1693994823738496;0.8222736484324553;0.0;53.71870733333333;86.79250786666667
-0.0836137452839808;0.013111248103045677;-0.0836137452839808;-0.0428265524625267;0.00919598195742458;-0.0244723156928724;0.9732404544126823;0.036867333691724645;0.0013592002935369752;1.0469748454237315;0.07373439101104928;2.522062545839105;0.3518163288063147;1.1826911922665029;-4.495835446377727;0.11261455875460728;0.6692921913018193;0.0;53.71870666666666;86.79251573333333
-0.1080860609768532;0.028914411328105915;-0.0836137452839808;-0.0244723156928724;0.009177118384827673;-0.0244723156928724;1.0469748454237315;0.03729546822717374;0.001390951950284126;1.0469748454237315;0.07373439101104928;2.522062545839105;0.35022198650898967;1.1826911922665029;-4.873836452484763;0.05746618339636172;0.4754343647834345;60.0;53.718701966666664;86.79251956666667
-0.1412256551442847;0.04427982368227492;-0.1080860609768532;-0.0336494340776996;0.024280372998451583;0.0122361578464362;1.0198690810389281;0.013566502376487608;0.00018404998673124393;1.0469748454237315;0.027105764384803388;1.890752999346474;1.8304204688060808;2.569867171153554;-5.1651276376795465;0.015840662487319714;0.2407001688772965;60.0;53.7186926;86.7925614
-0.1957785255429795;0.06130034317816108;-0.0734169470786173;0.0122361578464362;0.05001977320332736;0.0662791883348628;1.0323692937531967;0.009246321950866217;8.549446961907044e-05;1.0323692937531967;0.018052306170331267;1.890752999346474;7.965530741624741;5.6373385836031105;-5.31436042085161;0.002130618577175774;0.09146738570523283;60.0;53.7186857;86.79261423333334
-0.0734169470786173;0.06815093223822549;-0.0734169470786173;0.0662791883348628;0.02703594082504923;0.0662791883348628;1.0143169875828655;0.013673301593799368;0.00018695917647499634;1.0323692937531967;0.026815565972452493;-0.6791141718070801;2.3565127377437407;3.0674714124495557;-5.0544304754586165;0.03323499057710916;0.3513973310982266;60.0;53.7186878;86.79267606666667
-0.0825940654634444;0.02428037299845114;-0.0367084735393086;0.040787192821454;0.037829067749694655;0.1152238197206077;1.0055537277807443;0.0045862338569723615;2.1033540990839586e-05;1.0143169875828655;0.008763259802121226;-2.324664741018581;4.661107154655018;4.241814043710849;-4.605599785683987;0.12855903375978747;0.7087606351676232;60.0;53.71869803333334;86.7926863
-0.0367084735393086;0.02842328921131073;-0.0305903946160905;0.1152238197206077;0.06644630971171347;0.1733455694911797;1.0075891732894606;0.013992210197296096;0.00019578194620531686;1.030742477815747;0.02518875003500276;-2.324664741018581;13.63744172697281;7.357087442243125;-3.9474301668338505;0.31001431975935917;1.107000308624766;60.0;53.71870743333333;86.79267863333332
-0.0305903946160905;0.019085544531275155;-0.0305903946160905;0.1733455694911797;0.031246157736401645;0.1733455694911797;1.030742477815747;0.01293317386135107;0.00016726698612793455;1.030742477815747;0.02315330452628639;-6.56647878472943;2.7890453965659323;3.115273398532276;-3.05948343421433;0.6020187365714607;1.546116351469657;60.0;53.71872223333333;86.79267636666667
-0.0662791883348628;0.02154237024912894;-0.0275313551544814;0.1244009381054349;0.02886492470760631;0.1733455694911797;1.009178617458321;0.014534129448728464;0.00021124091883239598;1.030742477815747;0.027663064659582126;-7.006730328314285;2.321002928893792;2.6750218549474205;-1.9213214031315493;1.031496488553218;2.026108763702301;60.0;53.71873256666667;86.79270376666666
-0.0275313551544814;0.023978741748352576;-0.0224329560517997;0.1223615784643621;0.008304810661004455;0.1244009381054349;1.003079413156165;0.0031509380460655215;9.928410570143207e-06;1.009178617458321;0.006099204302156158;-6.216942696171523;0.22926012325408346;0.8638895429687876;-0.5125058888916332;1.62787809642324;2.546977545322697;60.0;53.71874763333333;86.79273589999998
-0.0224329560517997;0.023978741748352576;-0.0224329560517997;0.1091057407973896;0.008304810661004455;0.1244009381054349;1.0075019726521066;0.0031509380460655215;9.928410570143207e-06;1.009178617458321;0.006099204302156158;-6.216942696171523;0.22926012325408346;0.8638895429687876;-0.5125058888916332;1.62787809642324;2.546977545322697;60.0;53.71874763333333;86.79273589999998
-0.0275313551544814;0.009474429737103664;-0.0224329560517997;-0.0550627103089629;0.005615958547247969;-0.0458855919241358;1.006269521033345;0.003291523225725114;1.083412514548786e-05;1.011348137398289;0.0061667201110728875;3.19838155100442;0.10816226208553084;0.5979381611918502;-0.9768895009408112;0.004735789496346106;0.13460098111651542;60.0;53.72598716666667;86.84537276666667
-0.0224329560517997;0.009474429737103664;-0.0224329560517997;-0.0560823901294993;0.005615958547247969;-0.0458855919241358;1.0051814172872162;0.003291523225725114;1.083412514548786e-05;1.011348137398289;0.0061667201110728875;3.19838155100442;0.10816226208553084;0.5979381611918502;-0.9768895009408112;0.004735789496346106;0.13460098111651542;60.0;53.72598716666667;86.84537276666667
-0.040787192821454;0.014018279886680453;-0.0132558376669725;-0.0458855919241358;0.017817670945353505;-0.0458855919241358;1.011348137398289;0.010753950674100407;0.00011564745510098462;1.011348137398289;0.02092771595892262;4.665239578514131;1.1287643030592782;2.064796188701562;-1.069075738441684;0.0005593362218178117;0.04241474361564257;60.0;53.72596093333333;86.84532946666667
-0.0132558376669725;0.024050901832479446;0.0071377587437544;-0.0805547058223717;0.01958962136216449;-0.0458855919241358;0.9904204214393665;0.01352026608942926;0.0001827975951289708;1.0157138382101036;0.025293416770737154;4.665239578514131;1.3712643821688038;2.064796188701562;-1.0641289481162468;0.0007022991092762537;0.04736153394107978;60.0;53.725933;86.84529300000001
0.0071377587437544;0.013489096110250738;0.0122361578464362;-0.0474151116549403;0.01773725158647107;-0.0474151116549403;1.0157138382101036;0.012647626828315592;0.0001599624643883283;1.0157138382101036;0.025293416770737154;4.665239578514131;1.1259571110033397;1.989610542477653;-0.9829144008011876;0.004051220101256416;0.12550019610738272;60.0;53.725922833333335;86.84528283333334
0.0122361578464362;0.004597990978712072;0.0163148771285816;-0.0530233506678902;0.006388275765341946;-0.0474151116549403;1.0028031332124017;0.0068481052711541;4.689654580480857e-05;1.0157138382101036;0.012910704997701972;3.4308571811306026;0.1427582645484053;0.7552281450941241;-0.8690518200842248;0.00960259597738976;0.19507712803202204;60.0;53.72592803333333;86.84528803333335
0.0163148771285816;0.007636260473356164;0.0163148771285816;-0.0601611094116447;0.0035688793718772578;-0.0530233506678902;1.0052993305284939;0.00135407817523672;1.8335277046524053e-06;1.0052993305284939;0.0024961973160921858;3.4308571811306026;0.03998676937470419;0.3999217010288536;-0.7268220710861891;0.016462878354404367;0.2560923297149985;60.0;53.72593841666667;86.84529841666665
0.0015295197308044;0.04578445663517989;0.0163148771285816;-0.0565922300397674;0.007429214844632861;-0.0458855919241358;1.0049608099777616;0.001390613339144096;1.9338054590054926e-06;1.0052993305284939;0.002559965036427636;3.4308571811306026;0.1767629521455881;0.8080727843723876;-0.560506018927913;0.023848473686124708;0.3085458011563118;60.0;53.72593558333333;86.84528705000001
-0.0693382277964719;0.03798563953656238;0.0015295197308044;-0.0458855919241358;0.013337292517748145;-0.0458855919241358;1.0027393654920662;0.008213770331107817;6.746602305218703e-05;1.0049608099777616;0.01520671307195487;4.194744735860335;0.6286329647226668;1.5719603391021204;-0.3743845287302276;0.031085743263471736;0.35243754235596153;60.0;53.72592228333334;86.84525668333333
-0.0101967982053635;0.03103469422157909;-0.0101967982053635;-0.0723972672580809;0.03827989048720592;0.003059039461609;0.9897540969058067;0.01514927027988714;0.0002295003900130718;1.0199540775254707;0.030199980619664002;4.194744735860335;4.891344467629391;4.366586112978182;-0.1727384656139645;0.037611003214463146;0.38776755331394847;60.0;53.72589663333334;86.84520543333333
-0.023452635872336;0.011278107489913376;-0.0010196798205363;0.003059039461609;0.044474096453577756;0.003059039461609;1.0199540775254707;0.017995987686980235;0.0003238555728299442;1.0199540775254707;0.03205692388930792;4.3805599588203;6.637659917098167;4.552401335938147;0.040151305300044;0.04297052450421284;0.4145358340302716;60.0;53.72586733333333;86.845142
-0.0010196798205363;0.026616052412157077;0.0295707147955541;-0.07545630671969;0.04819897548962989;0.0122361578464362;0.9878971536361628;0.01605437222117278;0.00025774286741596413;1.0199540775254707;0.03205692388930792;4.3805599588203;7.801550272083865;5.0800163490834755;0.2600039188909674;0.04682053293493161;0.4327423845049319;60.0;53.72582839999999;86.84507746666667
0.0295707147955541;0.03957531387802444;0.0295707147955541;0.0122361578464362;0.0464411641587988;0.0122361578464362;1.0023464305649854;0.014447717326009284;0.0002087365359322689;1.0167925882320605;0.028895434595897718;4.3805599588203;7.255845217780696;5.0800163490834755;0.4825385100379802;0.048927209145928054;0.4423872047379362;60.0;53.725778166666665;86.84502723333334
-0.0489446313857448;0.0475255397464624;0.0367084735393086;-0.0050983991026817;0.04470727227297949;0.0795350260018354;1.0167925882320605;0.017057745303111816;0.0002909666748258332;1.0167925882320605;0.03398838139059823;0.2872935722849717;6.802040898264523;4.929123630414597;0.6681015928241719;0.0417498355699617;0.4080976739332045;60.0;53.725713899999995;86.8449971
0.0367084735393086;0.06365721006687446;0.07545630671969;0.0795350260018354;0.044520829317385525;0.0795350260018354;0.9828042068414623;0.024090231897244928;0.0005803392728630369;1.0293722080187495;0.04656800117728721;0.2872935722849717;6.578461241203267;4.929123630414597;0.8469229628527707;0.0331977949208581;0.3643844528147905;60.0;53.72563273333333;86.84499273333334
0.07545630671969;0.03474899675505812;0.07545630671969;0.061180789232181;0.009474429737103792;0.0795350260018354;1.0293722080187495;0.02621150978494952;0.0006870432452065044;1.0293722080187495;0.04656800117728721;-3.407385676615591;0.4159834428263053;1.234444381514034;0.9727899481937328;0.023442429045921406;0.30468835536956085;60.0;53.725544066666664;86.84498939999999
0.0061180789232181;0.038388383545074616;0.07545630671969;0.0662791883348628;0.01988593518413393;0.0662791883348628;1.0269375643838266;0.00822432731941248;6.763955985683448e-05;1.0293722080187495;0.015305368607159586;-1.671011513710258;1.203271545286946;2.029465777828746;1.1237645922471675;0.0192128548186035;0.2768416293943968;60.0;53.72545416666666;86.84499336666666
0.0122361578464362;0.01102952363249919;0.0122361578464362;0.0295707147955541;0.022129636396666437;0.0693382277964719;1.01406683941159;0.013627352396586669;0.00018570473334075644;1.0269375643838266;0.027240951375622657;-1.671011513710258;1.5856238829770093;2.306175160716518;1.2851988039932425;0.02440894017518158;0.3124088557995097;60.0;53.72533966666666;86.84498126666666
-0.0091771183848271;0.026674585035496287;0.0122361578464362;0.0693382277964719;0.03925877662472865;0.0693382277964719;0.9996966130082039;0.03635866501839429;0.0013219525219198085;1.01406683941159;0.06891824863636853;0.5563341247296438;5.1387205502278315;4.5335207991564195;1.696136518593058;0.0870900720119156;0.5723719263458904;60.0;53.72522433333333;86.84496833333333
-0.040787192821454;0.03161007443662686;0.0224329560517997;-0.0091771183848271;0.03939097626912071;0.0693382277964719;0.9451485907752214;0.03716242264640024;0.0013810456569496813;1.0161435570928696;0.07099496631764823;0.5563341247296438;5.174592674858423;4.5335207991564195;1.9650867308265831;0.11724193583245118;0.6798879268333407;60.0;53.72511393333334;86.8449774
0.0224329560517997;0.09712684466222128;0.1498929336188436;0.0244723156928724;0.04261155633489967;0.07545630671969;1.0161435570928696;0.041933912299027536;0.001758453000702533;1.0193131797253328;0.07416458895011135;0.5563341247296438;5.835821980886691;4.801630235957069;2.097255403181458;0.04178318903099028;0.40111888458840017;60.0;53.725039200000005;86.84500506666666
0.1498929336188436;0.06415344851696703;0.1498929336188436;0.07545630671969;0.07344526605636424;0.07545630671969;1.0193131797253328;0.02752823100019996;0.0007578035020003699;1.0193131797253328;0.04918602585196541;4.098615374282924;17.97434984221617;8.34391148551035;2.311887258372454;0.030634332853477383;0.346800527545871;60.0;53.724979100000006;86.84502176666666
0.0989089425920261;0.08993485455541692;0.1498929336188436;-0.0693382277964719;0.0724696379277565;0.07545630671969;0.9701271538733673;0.026964614971271336;0.0007270904605489103;1.0193131797253328;0.04918602585196541;4.098615374282924;17.420969028658018;8.34391148551035;2.311887258372454;0.01153624338239728;0.21463185519099603;60.0;53.72493049999999;86.84499876666666
-0.0249821556031406;0.062298598514580285;0.0989089425920261;-0.0025491995513408;0.033420774174716825;-0.0025491995513408;1.0138727783005028;0.022972298161970012;0.0005277264828424509;1.0138727783005028;0.04374562442713548;4.098615374282924;3.910866723038363;3.9545553576349706;2.311887258372454;0.01393743747782056;0.23608719746172913;60.0;53.7249018;86.84495299999999
