acc_X;acc_X_std;acc_X_max;acc_Z;acc_Z_std;acc_Z_max;acc;acc_std;acc_var;acc_max;acc_range;fb_tilt_max;fb_tilt_var;fb_tilt_range;tilt_max;tilt_var;tilt_range;class;lat;lon
1.085068158442736;1.2657452115604824;1.085068158442736;0.0265116753339451;0.04708595385819656;0.0662791883348628;2.9658167600054535;0.6728512003321202;0.452728737788375;2.9658167600054535;1.301832298982609;-0.9523809523809524;8.352633722485945e-05;0.016314877128581595;0.0244723156928724;0.00045887498126852435;0.0428265524625267;90.0;53.713376133333334;86.84177293333333
-1.4453040127836734;1.2657452115604824;1.085068158442736;0.0662791883348628;0.04708595385819656;0.0662791883348628;2.610045849946138;0.6728512003321202;0.452728737788375;2.9658167600054535;1.301832298982609;-0.9523809523809524;8.352633722485945e-05;0.016314877128581595;0.0244723156928724;0.00045887498126852435;0.0428265524625267;90.0;53.713376133333334;86.84177293333333
-0.2452741093566658;1.8996555036091052;2.276572446161984;-0.0275313551544814;0.04752553974646241;0.0662791883348628;1.6639844610228445;0.5330062990917135;0.2840957148714451;2.610045849946138;0.9460613889232934;-0.9523809523809524;0.0005992408176837429;0.047924951565208374;0.0244723156928724;0.0010775244084319066;0.06423982869379011;90.0;53.7134557;86.84169036666667
2.276572446161984;1.2727741048724694;2.276572446161984;0.0061180789232181;0.06491605605137958;0.0978892627714897;2.5624714175205923;0.563882909735151;0.31796393589138044;2.5624714175205923;1.039525359579058;-0.9523809523809524;0.0005812185374526526;0.047924951565208374;0.0040787192821454;0.00048764131317584217;0.0438462322830631;90.0;53.7135414;86.84161393333333
1.3157811875472138;0.5305859597319331;2.276572446161984;0.0978892627714897;0.048278905276476373;0.0978892627714897;1.5229460579415344;0.5300979776979561;0.2810038659594627;2.5624714175205923;1.039525359579058;-0.971754868971143;0.00027172053271489616;0.028551034975017764;-0.0224329560517997;8.759867939246225e-05;0.017334556949118;90.0;53.7136293;86.84155676666666
2.18633639961664;1.5249516375530576;2.18633639961664;0.0780055062710309;0.10364975574512705;0.0978892627714897;2.2231301000261374;0.7169763434567662;0.5140550770766348;2.2231301000261374;1.433822597171559;-0.971754868971143;0.00174712143547934;0.07239726725808104;0.0142755174875089;0.0007029555745905477;0.051493830937085705;90.0;53.71371690000001;86.84149076666667
-0.7803504399639496;1.5183523718298637;2.18633639961664;-0.0907515040277353;0.08447202665877729;0.0780055062710309;0.7893075028545783;0.7286914402530466;0.5309912150980592;2.2231301000261374;1.433822597171559;-0.9238299174059346;0.0036692669385875298;0.12032221882328953;0.0142755174875089;0.0006894388644172301;0.051493830937085705;90.0;53.713824166666676;86.84139323333333
1.264471983902737;1.2766976763985123;1.264471983902737;-0.0132558376669725;0.039386576763185424;-0.0132558376669725;1.2801917783339842;0.25713225349263624;0.06611699578620134;1.2801917783339842;0.49088427547940594;-0.9238299174059346;0.0036779314963909376;0.12032221882328953;0.0183542367696543;0.0004533296642743428;0.0387478331803813;90.0;53.7139765;86.84130663333333
-1.0822869210112154;1.2168424461096328;1.264471983902737;-0.0397675130009177;0.014504325681215352;-0.0132558376669725;1.1675105475808443;0.25676918253749514;0.0659304131009735;1.2801917783339842;0.4902397332367997;-0.9238299174059346;0.0014871847013770696;0.07647598654022625;0.0183542367696543;0.0004034218113267088;0.0387478331803813;90.0;53.71418663333333;86.84128636666667
-0.4671713825031235;0.3295263854261558;-0.4671713825031235;-0.0163148771285816;0.052256310980801995;0.0601611094116447;0.7899520450971845;0.1888615148104907;0.03566867177651321;1.1675105475808443;0.37755850248365974;-0.9207708779443254;0.0016161133214917928;0.07953502600183537;0.0183542367696543;3.153899040440791e-05;0.010196798205363502;90.0;53.7143868;86.84125613333333
-0.5698204604077945;0.8527530805688504;-0.4671713825031235;0.0601611094116447;0.03824507372444105;0.0601611094116447;0.9883852194409671;0.7666065578186881;0.5876856144906176;2.2058026170810043;1.4158505719838197;-0.9207708779443254;0.00172710630695346;0.07953502600183537;0.0341592739879677;0.00021687388181931965;0.0260018354236769;90.0;53.71454323333334;86.8411395
-1.9928299488600327;1.8005575432516294;-0.5698204604077945;0.023197715917202;0.03444565116533987;0.0601611094116447;2.2058026170810043;1.664079979329942;2.7691621776067397;4.279612826444624;3.291227607003657;-0.9207708779443254;0.0014678627374754747;0.07086774752727654;0.0718874273478127;0.0009966840841261044;0.0627103089629856;90.0;53.71464236666667;86.84090583333334
-4.146164710873698;2.2265828809809567;-1.9928299488600327;-0.008667278474559;0.04978863651638515;0.023197715917202;4.279612826444624;2.17188438480198;4.717081780946675;6.548116736468021;4.342314119387017;-0.9814418272662384;0.0019496121513450126;0.08106454573263999;0.1203222188232894;0.0018655659406519311;0.0861629448353217;90.0;53.7147414;86.84063793333333
-6.445201112733491;1.3889452696155966;-3.945375316047977;-0.0744366268991536;0.03712040715665823;-0.008667278474559;6.548116736468021;1.3398125572610462;1.7950976885943843;6.548116736468021;2.3694485278047033;-0.991638625471602;0.0012852138589796345;0.07086774752727643;0.1203222188232894;0.0008074501416996583;0.0499643112062812;90.0;53.71486036666666;86.84038996666668
-3.945375316047977;3.3744032246769637;0.2336108091498688;-0.0713775874375446;0.04741602533773245;0.0091771183848271;4.178668208663318;2.719921175640441;7.3979712016972785;6.548116736468021;5.425384455506359;-1.0003059039461608;0.0010303892139813917;0.06220046905271759;0.1203222188232894;0.00391880620332569;0.1244009381054348;90.0;53.71500396666667;86.84020930000001
0.2336108091498688;2.974608589783869;1.811125383753365;0.0091771183848271;0.06796951945688219;0.0091771183848271;1.1227322809616618;1.5399380011205985;2.3714090472953044;4.178668208663318;3.055935927701656;-1.0003059039461608;7.546829846771059e-05;0.01733455694911812;0.0703579076170082;0.00280480400654143;0.1024778219639032;90.0;53.7151737;86.84009743333333
1.811125383753365;2.169332266685437;1.811125383753365;-0.1259304578362394;0.07398536606859123;0.0091771183848271;2.3187833181236273;0.981017161081418;0.9623946703362448;3.0677100809492925;1.9449777999876308;-0.8718262465585807;0.005849356327503183;0.13612725604160247;0.037728153359845;0.0012354792971880466;0.06984806770674;90.0;53.71534486666667;86.8400382
-2.4778595068669023;2.165772416740425;1.811125383753365;-0.0061180789232181;0.060037843830338035;-0.0061180789232181;3.0677100809492925;0.55696806516028;0.31021342560838583;3.0677100809492925;1.0885864833831864;-0.8718262465585807;0.006754802617959396;0.14785357397777088;0.037728153359845;0.0012716971488062941;0.06984806770674;90.0;53.71550353333333;86.83999206666665
-0.8579306319315014;1.0627233943580578;-0.8579306319315014;-0.0591414295911083;0.03507164988665194;0.0071377587437544;1.9791235975661061;0.7043654365775378;0.4961306682450654;3.297772446121735;1.3186488485556287;-0.8718262465585807;0.008495079052774059;0.16926685020903443;0.0520036708473539;0.00034242332439071385;0.0367084735393087;90.0;53.71566846666667;86.83996073333333
-2.8595392565879103;1.033392652985092;-0.8579306319315014;0.0071377587437544;0.0422439619968351;0.0193739165901906;3.297772446121735;0.6885362536494284;0.47408217258958996;3.297772446121735;1.3186488485556287;-0.962577750586316;0.001647305729584069;0.07851534618129907;0.0520036708473539;0.0003455425651999409;0.0367084735393087;90.0;53.71584743333333;86.83997756666668
-2.3046870840757587;3.4039609373889963;-2.3046870840757587;0.0193739165901906;0.015667384037246393;0.0193739165901906;2.9821345482323687;3.1943312598545446;10.203752197683922;8.665940841635393;5.683806293403025;-0.962577750586316;0.0015606601515499874;0.07851534618129907;0.147853573977771;0.003544497306218443;0.10910574079738969;90.0;53.71604646666666;86.84004006666667
-8.45833257483031;3.125156674770896;-2.3046870840757587;-0.011726317936168;0.029084717264343238;0.0193739165901906;8.665940841635393;2.8984200339234634;8.40083869304889;8.665940841635393;5.683806293403025;-0.962577750586316;0.0004931866301700378;0.04282655246252687;0.147853573977771;0.003053996688967475;0.10910574079738969;90.0;53.71624106666667;86.84014080000001
-4.433196534079412;2.2766057871868575;-4.433196534079412;-0.0387478331803813;0.029084717264343234;0.0193739165901906;4.837490385652264;2.1658282903382666;4.690812183229578;8.665940841635393;3.8284504559831296;-0.9941878250229428;0.00025681749329303967;0.031610074436627;0.147853573977771;0.0015264351482265162;0.0698480677067401;90.0;53.7164345;86.84026596666666
-4.6025305430379175;1.813817979988236;-1.3796631802890806;0.0193739165901906;0.03614233991376166;0.0193739165901906;4.996819069898112;1.5949309223086303;2.543804646936258;4.996819069898112;2.8387175707850916;-1.0054043030488429;0.0006865795603420947;0.05200367084735369;0.0825940654634444;0.0010065616800219936;0.0571020699500357;90.0;53.716625566666664;86.84043143333334
-1.3796631802890806;1.6592184971296762;-1.3796631802890806;-0.0469052717446721;0.03324531536025501;0.0193739165901906;2.15810149911302;1.5104733764634324;2.281529821004842;4.996819069898112;2.8387175707850916;-1.012542061792597;0.0005313106845050146;0.04486591210359947;0.0825940654634444;0.0008737340088957366;0.0571020699500357;90.0;53.71682063333333;86.84064356666666
-2.306361485588871;1.5319158830245077;0.6860628945313679;-0.0183542367696543;0.03113504018056447;-0.0183542367696543;2.6825572852919612;0.6302654571938259;0.3972345465317424;2.6825572852919612;1.2549077185381297;-1.012542061792597;0.0005919625891288804;0.04486591210359947;0.040787192821454;0.0007448053887810123;0.0530233506678902;90.0;53.717005699999994;86.84085423333333
0.6860628945313679;2.8109600978880778;3.3115660346103164;-0.0805547058223717;0.03714490792308953;-0.0142755174875089;1.4276495667538316;1.0702338665951623;1.1454005292072318;3.5568046450031394;2.129155078249308;-1.0043846232283062;5.1294182196192e-05;0.014275517487508882;0.040787192821454;0.0024499903644918455;0.09890894259202601;90.0;53.7171821;86.84106476666666
3.3115660346103164;1.901424946629198;4.381313242968915;-0.0142755174875089;0.056390537449566784;-0.0142755174875089;3.5568046450031394;1.6208092595546213;2.627022655858;4.609086089643789;3.1814365228899573;-0.9901091057407974;0.00020379039953618866;0.028551034975017764;-0.0122361578464362;0.0010948535240387256;0.06423982869379011;0.0;53.71734293333333;86.84123413333333
4.381313242968915;0.8832353669354636;5.063832271785932;-0.1264402977465075;0.058623461234765285;-0.0142755174875089;4.609086089643789;0.8460634822723689;0.7158234160348472;5.230550730265478;1.673746085262339;-0.9901091057407974;5.406684069329092e-05;0.014275517487508882;-0.058121749770572;0.00023706230150126332;0.030590394616090498;0.0;53.717500099999995;86.8413913
5.063832271785932;0.6314442707538799;5.063832271785932;-0.040787192821454;0.06676372605229257;0.0050983991026817;5.230550730265478;0.5354456080576044;0.28670199918817774;5.230550730265478;1.0660086094310843;-0.9901091057407974;2.7380002658793523e-05;0.010196798205363455;-0.0662791883348628;0.00012615596161763207;0.022432956051799693;0.0;53.71765153333333;86.84151713333334
3.802360046814913;0.6372379893748024;5.063832271785932;0.0050983991026817;0.030254320127084185;0.0163148771285816;4.164542120834394;0.5330339894342088;0.28412523389214817;5.230550730265478;1.0660086094310843;-0.9972468644845518;0.00019373951248422867;0.025491995513408527;-0.0662791883348628;0.00012615596161763207;0.022432956051799693;0.0;53.717803266666664;86.84163473333335
4.275830032854134;0.4001193974655549;4.597804468719259;0.0163148771285816;0.006475836607612614;0.0163148771285816;4.687802958993328;0.49092883437630197;0.2410111204220745;5.145673709268798;0.9811315884344038;-0.9952075048434792;0.0002353293899405905;0.02753135515448113;-0.0662791883348628;5.1034245462078695e-05;0.01376567757724069;0.0;53.71796433333333;86.84173606666667
4.597804468719259;0.4458810246868164;5.157010982718873;0.0163148771285816;0.015895235309594944;0.0163148771285816;5.145673709268798;0.5210658691227359;0.2715096399646322;5.727475469043191;1.0396725100498632;-0.9941878250229428;0.0002623628102872255;0.028551034975017542;-0.0764759865402263;4.7048548872511095e-05;0.013255837666972595;0.0;53.718151866666666;86.84181266666667
5.157010982718873;0.4218267914508365;5.424472239266164;-0.0112164780258998;0.02216093717100432;0.0163148771285816;5.727475469043191;0.37902776957969037;0.14366205011255487;5.857426326208643;0.7117526169398447;-0.9941878250229428;4.505570057793721e-06;0.0040787192821454266;-0.0800448659121035;5.640627130019295e-05;0.014785357397777199;0.0;53.718346700000005;86.84187096666666
5.424472239266164;0.22671107897117992;5.607825349411158;-0.0275313551544814;0.015807778055448057;-0.0112164780258998;5.857426326208643;0.1027444118348774;0.010556414163294895;5.930305253855109;0.20282978481191805;-0.9941878250229428;3.881721895929034e-05;0.01223615784643628;-0.0897318242071989;2.1141521040318787e-05;0.009177118384827196;0.0;53.71854506666667;86.84192426666665
5.607825349411158;0.14050208512810508;5.7005633694846;-0.0428265524625267;0.007920315555372598;-0.0275313551544814;5.930305253855109;0.04403539233959758;0.001939115778502289;5.936689192095947;0.07926286588730402;-0.9982665443050882;1.802228023110838e-05;0.008157438564290853;-0.0948302233098807;7.278228554864465e-06;0.0050983991026817;0.0;53.71871033333333;86.8419786
5.7005633694846;0.12034294328161493;5.7005633694846;-0.0387478331803813;0.0035809978426470006;-0.0356887937187723;5.936689192095947;0.20672527297730056;0.04273533848753943;5.936689192095947;0.3612079596320541;-0.9911287855613338;5.926557537533493e-05;0.015295197308045294;-0.0948302233098807;7.278228554864465e-06;0.0050983991026817;0.0;53.71885816666667;86.84203256666667
5.461848273660326;0.35265733964474744;5.7005633694846;-0.0356887937187723;0.01274939623636917;-0.0356887937187723;5.5754812324638925;0.4089620734194741;0.16724997749555534;5.936689192095947;0.8161325314252377;-0.9911287855613338;2.530050878597321e-05;0.009177118384827043;-0.0876924645661262;3.7777472022863254e-05;0.012236157846436196;0.0;53.718987999999996;86.84207706666668
5.006433758154937;0.3208552662256583;5.625666902528887;-0.0591414295911083;0.015609207713136833;-0.0295707147955541;5.120556660670709;0.30918323204547754;0.0955942709780876;5.710738588189244;0.5901819275185352;-0.9829713469970428;6.654380393020091e-05;0.016314877128581595;-0.0876924645661262;2.3221014913136928e-05;0.009177118384827196;0.0;53.71912073333334;86.84214153333335
5.625666902528887;0.5915305835083156;6.189055501207887;-0.0295707147955541;0.014788287221921066;-0.0295707147955541;5.710738588189244;0.566970363213131;0.3214553927620297;6.2541761854277365;1.1336195247570275;-0.9829713469970428;0.0002498858470503303;0.03161007443662711;-0.0876924645661262;0.00012719570855404102;0.022432956051799707;0.0;53.719256433333335;86.84223456666666
6.189055501207887;1.0719638846218527;6.189055501207887;-0.0438462322830631;0.007137758743754338;-0.0295707147955541;6.2541761854277365;1.0938546035904615;1.196517893796046;6.2541761854277365;2.106946404345269;-0.9829713469970428;0.0002644423041600573;0.03161007443662711;-0.0723972672580809;0.000366337503928122;0.037728153359845;0.0;53.71939443333334;86.84235550000001
4.115919136112504;1.25399453267884;6.374815454945496;-0.0367084735393086;0.0044446812924853925;-0.0356887937187723;4.147229781082467;1.2568809220103094;1.5797496521134853;6.388066277808569;2.240836496726102;-0.9941878250229428;0.00010432127595305925;0.020393596410727133;-0.0723972672580809;0.00048764131317584455;0.0387478331803814;0.0;53.719529200000004;86.84250733333334
6.374815454945496;1.1600080879537715;6.374815454945496;-0.0356887937187723;0.008551541841139978;-0.0214132762312633;6.388066277808569;1.1496840682357428;1.321773456755088;6.388066277808569;2.240836496726102;-0.9941878250229428;3.153899040442711e-05;0.01121647802590009;-0.0723972672580809;0.000397529912020394;0.0387478331803814;0.0;53.719663733333334;86.8427016
5.703512313974762;0.9398107778771969;7.559606900273167;-0.0214132762312633;0.042403644128345526;0.0438462322830631;5.7140886374444735;0.9743791040470251;0.9494146384034833;7.6346050135684544;1.920516376123981;-0.974813908432752;0.00017710356150169566;0.02549199551340886;-0.0999286224125624;0.0002228524267036738;0.029570714795554204;0.0;53.719803633333335;86.84298656666665
7.559606900273167;1.0680263785777293;7.559606900273167;0.0438462322830631;0.048521476135235254;0.0734169470786172;7.6346050135684544;1.123690860486944;1.2626811499418884;7.685166337885129;1.9710777004406559;-0.974813908432752;0.00016462659826478688;0.02549199551340886;-0.0999286224125624;0.00031296382785912476;0.03161007443662692;0.0;53.719919000000004;86.84326406666668
7.547106274994581;0.28817196156861896;8.052367648712426;0.0734169470786172;0.035327650728614636;0.1142041399000713;7.685166337885129;0.33248428456499873;0.11054579948269906;8.23409823463744;0.5994932210689852;-0.974813908432752;6.89698801151557e-05;0.015295197308045405;-0.1294993372081166;3.569797815004574e-05;0.011216478025899895;30.0;53.720012700000005;86.8435199
8.052367648712426;1.3221921948293207;8.052367648712426;0.1142041399000713;0.043881788092892796;0.1142041399000713;8.23409823463744;1.2263791110970956;1.5040057241353026;8.23409823463744;2.3447370663585136;-0.9880697460997246;1.8022280231109166e-05;0.008157438564290964;-0.0968695829509534;0.0005347765076263874;0.0438462322830631;30.0;53.720096633333334;86.84372330000001
5.551824639636645;1.5019326502494594;8.243577518482878;0.0265116753339451;0.05381488456004828;0.1142041399000713;5.889361168278926;1.4231394568880922;2.025325913751734;8.459096442327827;2.5697352740489006;-0.9880697460997246;3.3618484277242354e-05;0.011216478025899757;-0.0968695829509534;0.0007059881698217434;0.0479249515652085;0.0;53.7201757;86.8438877
8.243577518482878;1.6958405767751144;8.684730909512576;0.0163148771285816;0.015020821721888445;0.0265116753339451;8.459096442327827;1.6120211659190065;2.5986122393708726;8.86040263504168;2.9710414667627543;-0.9962271846640156;6.585063930604968e-06;0.005098399102681617;-0.0968695829509534;0.0009180965448491881;0.056082390129499296;0.0;53.72024596666666;86.84400063333334
8.684730909512576;0.5296262900260696;8.684730909512576;-0.003059039461609;0.02197246369449555;0.0163148771285816;8.86040263504168;0.5144785037553501;0.26468813082634374;8.86040263504168;1.0211891389816845;-0.9967370245742836;5.285380260094034e-06;0.004588559192413633;-0.133578056490262;9.461697121322428e-05;0.019373916590190693;0.0;53.72030116666667;86.84405583333334
7.6301579397568435;0.6524360732436862;8.822970816000556;-0.0275313551544814;0.05552653643767944;0.078515346181299;7.839213496059996;0.6274549948631765;0.39369977057874883;8.981455806428436;1.1422423103684398;-0.99214846538187;2.1054875462299062e-05;0.009177118384827265;-0.133578056490262;0.00013577362077941542;0.0209034363209952;0.0;53.72037153333334;86.84410913333333
8.822970816000556;0.6830239663562024;8.822970816000556;0.078515346181299;0.0774956663607626;0.1233812582848985;8.981455806428436;0.6465283803197163;0.4179989465588357;8.981455806428436;1.1422423103684398;-0.979912307535434;7.564158962377335e-05;0.01682471703884958;-0.133578056490262;0.00013577362077941542;0.0209034363209952;30.0;53.720449366666664;86.84418696666667
8.80316068167484;2.0123487738371137;8.822970816000556;0.1233812582848985;0.023192579598561434;0.1233812582848985;8.935176263523365;1.9910802242257386;3.9644004593028175;8.981455806428436;3.4715589789793597;-0.979912307535434;4.9907852947651184e-05;0.012236157846435947;-0.0917711838482716;0.0012796685419854347;0.0627103089629856;30.0;53.72052986666667;86.84428453333334
5.327617652591708;2.5340270148409623;8.80316068167484;0.0907515040277353;0.02582294267798172;0.1233812582848985;5.509896827449076;2.473135253816358;6.116397983669301;8.935176263523365;4.80291309423105;-0.9768532680738248;3.119240809248114e-06;0.0030590394616092365;-0.0662791883348628;0.0019841837369805994;0.08667278474558988;30.0;53.720612966666664;86.84436763333333
3.870967587946328;0.7855203625857693;5.327617652591708;0.0723972672580809;0.022556214979826628;0.0907515040277353;4.132263169292315;0.7383438854163561;0.5451516931317212;5.509896827449076;1.3776336581567605;-0.9768532680738248;0.00012095722693560238;0.020393596410727022;-0.0662791883348628;0.00018195571387158704;0.02549199551340879;30.0;53.720697599999994;86.84437546666668
4.089631299402724;1.806646044577313;7.103766976262262;0.0458855919241358;0.1102999496959189;0.0723972672580809;4.3605919883961395;1.6938363797384952;2.869081681325612;7.173566883139772;3.041303713847457;-0.9768532680738248;0.0007448053887810198;0.054043030488426624;-0.0662791883348628;0.001233486448893268;0.06322014887325379;30.0;53.72074346666667;86.84428480000001
7.103766976262262;2.2908903705646755;8.58513947703116;-0.130519017028653;0.1009757646207209;0.0458855919241358;7.173566883139772;2.156769531939671;4.651654813903267;8.599100555545562;4.238508567149422;-0.9972468644845518;0.00036633750392812037;0.0336494340776996;-0.0713775874375446;0.001728405990623974;0.08055470582237179;30.0;53.72073976666667;86.8441275
8.58513947703116;0.7612785994241541;8.58513947703116;-0.1274599775670439;0.05271195686366711;-0.037728153359845;8.599100555545562;0.7287649928407224;0.5310984147901381;8.599100555545562;1.4255336724057894;-0.9890894259202612;0.00048278916080593244;0.041806872641990234;-0.1294993372081166;0.0001261559616176343;0.02243295605179979;30.0;53.7206957;86.84388716666668
8.14906273617983;1.420442445807538;8.58513947703116;-0.037728153359845;0.06377959389604418;-0.0040787192821454;8.149365192741765;1.4235356041101261;2.0264536161691815;8.599100555545562;2.6595472139257303;-0.9890894259202612;3.569797815005178e-05;0.011216478025899645;-0.1040073416947078;0.0006373648720187496;0.047924951565208596;0.0;53.720648133333334;86.84365186666666
5.935980370685211;1.496574126948376;8.14906273617983;-0.0040787192821454;0.017729922648101526;-0.0040787192821454;5.939553341619831;1.4929710219911863;2.2289624725054074;8.149365192741765;2.8439965225389017;-0.9890894259202612;4.1936459768505046e-05;0.011216478025899645;-0.092790863668808;0.0006574666461226554;0.0489446313857448;0.0;53.72060583333334;86.84342183333335
5.297270229122312;0.41718664199295274;5.935980370685211;-0.0305903946160905;0.040497253005965635;0.0489446313857448;5.3053686702028635;0.41181221454394706;0.16958930004758987;5.939553341619831;0.772202489459846;-1.0003059039461608;8.664557803413821e-06;0.005098399102682061;-0.0907515040277353;5.094759988404641e-05;0.013255837666972498;0.0;53.720572000000004;86.84323439999999
5.151683261504692;0.35837409456974195;5.297270229122312;0.0489446313857448;0.05018579143836267;0.0622004690527174;5.167350852159985;0.35157962976463675;0.12360823606543904;5.3053686702028635;0.6661169558800539;-0.9829713469970428;0.00013828634254241424;0.022432956051800068;-0.0795350260018354;5.094759988404737e-05;0.013255837666972595;0.0;53.72053403333334;86.8430087
4.616694464294174;0.5026460276410238;5.151683261504692;0.0622004690527174;0.031034694221579;0.0622004690527174;4.63925171432281;0.48346988878709146;0.23374313336380256;5.167350852159985;0.9655215038903959;-0.9829713469970428;0.00023810204843767834;0.029570714795554287;-0.0734169470786173;7.728785560640999e-05;0.017334556949117993;0.0;53.720483433333335;86.84273623333333
4.147100450662195;0.7327773608078632;4.616694464294174;0.003059039461609;0.030697838795243033;0.0622004690527174;4.201829348269589;0.6479701551800798;0.41986532200409676;4.63925171432281;1.2751638422922884;-0.9829713469970428;0.00025681749329303923;0.029570714795554287;-0.0560823901294993;0.00014799064728222524;0.0234526358723361;0.0;53.72041816666666;86.8424235
3.179608358172846;0.4870818366689732;4.147100450662195;0.0469052717446721;0.022019733301717064;0.0469052717446721;3.364087872030521;0.42440966099954;0.18012356034974444;4.201829348269589;0.837741476239068;-1.0084633425104517;9.704304739814062e-06;0.006118078923218251;-0.0560823901294993;7.590152635786474e-05;0.017334556949118;0.0;53.720345433333335;86.84209476666666
3.5647874978693928;0.6223368622477558;3.5647874978693928;0.0214132762312633;0.014165844793973356;0.0469052717446721;3.6645838016360006;0.6406694520077529;0.4104573467359145;3.6645838016360006;1.2289734569579664;-1.0084633425104517;3.153899040440319e-05;0.011216478025899868;-0.0418068726419904;0.0001188777330627706;0.021413276231263295;0.0;53.720256799999994;86.84175866666668
2.347191936285372;0.612427775678793;3.5647874978693928;0.023452635872336;0.056525590094973696;0.023452635872336;2.435610344678034;0.6149078324095651;0.3781116423586298;3.6645838016360006;1.2289734569579664;-1.0043846232283062;6.0651904623856685e-05;0.015295197308045294;-0.0418068726419904;0.00011541190994140705;0.021413276231263295;0.0;53.72013396666667;86.8414481
3.071311560528037;0.6316007552084342;3.071311560528037;-0.07545630671969;0.08455558241216675;0.023452635872336;3.0895065725875193;0.6355188357890721;0.40388419064269754;3.0895065725875193;1.270858789957646;-1.0043846232283062;8.352633722485499e-05;0.016314877128581706;-0.0326297542571632;0.00011541190994140781;0.0214132762312634;0.0;53.71995256666667;86.84110456666667
1.8128720190064624;0.652013399981046;3.071311560528037;-0.1447945345161619;0.07036037056863473;-0.0040787192821454;1.8186477826298733;0.6567350423296073;0.43130091582367114;3.0895065725875193;1.270858789957646;-0.9931681452024064;0.0001916600186113996;0.027531355154481574;-0.0326297542571632;0.0001271090629760095;0.0214132762312634;0.0;53.719767499999996;86.84072323333334
2.1460987805325398;0.305842163935657;2.1460987805325398;-0.0040787192821454;0.07872694257961704;-0.0040787192821454;2.1666903312475485;0.31623229212968956;0.1000028625855973;2.1666903312475485;0.6313596348477348;-0.9890894259202612;0.0002956347122523015;0.03161007443662678;-0.0265116753339451;2.8852977485354222e-05;0.010706638115631703;0.0;53.7195988;86.84024733333332
1.5352577196608352;0.6931771951932308;2.918471723157632;-0.0132558376669725;0.01541651129625289;0.0168247170388498;1.5353306963998137;0.7005740471684005;0.49080399556591237;2.9342698296438976;1.398939133244084;-0.979912307535434;4.609544751412713e-05;0.013255837666972359;-0.0265116753339451;0.0001378531146522362;0.0234526358723361;0.0;53.7194349;86.83962263333335
2.918471723157632;0.7050415216688486;2.918471723157632;0.0168247170388498;0.01883189716660296;0.0214132762312633;2.9342698296438976;0.7177886885906776;0.5152206014687247;2.9342698296438976;1.398939133244084;-0.979912307535434;0.0004100068752572904;0.03874783318038111;-0.0265116753339451;0.00014799064728222453;0.0234526358723361;0.0;53.71926276666667;86.83900676666667
2.464119662831349;0.341237339095288;2.918471723157632;0.0214132762312633;0.015623078868200578;0.0458855919241358;2.5138858780483972;0.30892636922477956;0.09543550160240483;2.9342698296438976;0.6023201496615913;-0.979912307535434;0.00044327877722238017;0.03874783318038111;-0.0387478331803813;3.1538990404411405e-05;0.011216478025899895;0.0;53.71905673333333;86.83845086666668
2.250271976243897;0.3887709992110245;2.464119662831349;0.0458855919241358;0.025498792472738396;0.0458855919241358;2.3319496799823063;0.27097370957237643;0.07342675127941461;2.5138858780483972;0.5330706535529599;-0.9850107066381156;0.00045852839895638533;0.03976751300091774;-0.0305903946160905;4.47091182655924e-05;0.013255837666972598;0.0;53.718825;86.83811673333332
1.7097928965533569;0.29567984509092465;2.250271976243897;-0.0050983991026817;0.040748936887300954;0.0458855919241358;1.9808152244954373;0.1845119252377197;0.03404465055492986;2.3319496799823063;0.35113445548686895;-0.9850107066381156;0.0004897208070486599;0.03976751300091774;-0.0305903946160905;2.2181267976729297e-05;0.008157438564290801;0.0;53.71850496666667;86.8378735
1.7722068227421577;0.6028312393406852;2.783734190979767;-0.0346691138982359;0.016025526303152366;-0.0050983991026817;2.058084958414838;0.559063486370701;0.312551981792963;2.985461471586738;1.0046462470913007;-0.9646171102273886;0.0009194828740977316;0.060161109411644764;-0.0305903946160905;8.872507190690818e-05;0.0163148771285816;0.0;53.718114533333335;86.83770493333334
2.783734190979767;0.5075224189500831;2.783734190979767;-0.0091771183848271;0.028605608522699003;0.0224329560517997;2.985461471586738;0.47660062145874565;0.22714815237486258;2.985461471586738;0.9273765131718998;-0.9646171102273886;0.00023186356681921332;0.028551034975017764;-0.0305903946160905;6.79301331787275e-05;0.0163148771285816;30.0;53.71770003333333;86.83753790000002
2.351088936074223;0.8874754102866376;4.058200406437406;0.0224329560517997;0.05500918257220743;0.0224329560517997;2.712624097202829;0.830356059184712;0.689491185024765;4.267719414366767;1.5550953171639383;-0.9646171102273886;0.00023186356681921332;0.028551034975017764;-0.040787192821454;0.0002436473654318575;0.029570714795554204;0.0;53.7173278;86.83736193333334
4.058200406437406;1.192797633075155;4.058200406437406;-0.0846334251045171;0.056100926699210324;0.0224329560517997;4.267719414366767;1.0907490648344753;1.1897335224372823;4.267719414366767;2.1024851979447967;-0.9880697460997246;0.0004682327036962091;0.03976751300091774;-0.0316100744366268;0.00041000687525730525;0.03874783318038141;0.0;53.717007333333335;86.83718653333334
1.7615139075254516;1.1985208027902146;4.058200406437406;-0.0020393596410727;0.0415323990097201;-0.0020393596410727;2.1652342164219704;1.1007045231756076;1.211550447339242;4.267719414366767;2.1024851979447967;-0.9880697460997246;0.00044951725884084874;0.03976751300091774;-0.0316100744366268;0.00040662769771397574;0.03874783318038141;0.0;53.71673163333333;86.83704736666665
2.31548379919238;0.5499850007772433;2.8614742616092426;-0.0356887937187723;0.01713345319483148;-0.0020393596410727;2.6513942229046674;0.5019587267525742;0.25196256336306555;3.1689876227487828;1.0037534063268123;-0.9584990313041704;0.0014546059640362595;0.06933822779647203;-0.0316100744366268;6.732361413249005e-05;0.0163148771285817;30.0;53.716416833333334;86.8369459
2.8614742616092426;0.4979380611199428;2.8614742616092426;-0.0244723156928724;0.006789362820922809;-0.023452635872336;3.1689876227487828;0.27376909574682146;0.0749495177860323;3.1689876227487828;0.5175933998441153;-0.9584990313041704;0.0015641259746713453;0.07341694707861746;-0.0336494340776996;5.103424546208087e-05;0.014275517487508896;0.0;53.71609983333334;86.83690196666667
1.8671970124992905;0.8956395151330516;2.8614742616092426;-0.023452635872336;0.002697819222049034;-0.0193739165901906;2.75552561422027;0.3569342833546441;0.12740208263389335;3.1689876227487828;0.7107083088417827;-0.9584990313041704;0.001436237101493027;0.07341694707861746;-0.0183542367696543;0.00021869343895803943;0.029570714795554197;0.0;53.715764033333336;86.83692456666667
1.0739597278207906;0.876518675290431;2.824438009135087;-0.0193739165901906;0.026570437892924147;-0.0193739165901906;2.458279313907;0.6776276438514877;0.45917922371171854;3.7520099475985185;1.2937306336915184;-0.9788926277148976;0.0007115334868159182;0.05302335066789021;-0.0183542367696543;0.0002498858470503108;0.031610074436626896;0.0;53.71545633333333;86.83701793333334
2.824438009135087;0.9110948828560212;2.824438009135087;-0.0672988681553992;0.025856474626503388;-0.0193739165901906;3.7520099475985185;0.6537076758364655;0.42733372544751347;3.7520099475985185;1.2937306336915184;-0.9788926277148976;0.00027483977352412174;0.03161007443662689;-0.0183542367696543;0.0002692944565299463;0.031610074436626896;0.0;53.71512963333333;86.83716056666667
1.5108485557319038;1.06530370461161;2.824438009135087;-0.0601611094116447;0.0066344520226852355;-0.0601611094116447;2.941752580981258;0.5639571457460217;0.31804766223799963;3.7520099475985185;1.08465442718868;-0.9778729478943612;0.0002942483830037568;0.0326297542571633;-0.0122361578464362;0.00036287168080676016;0.037728153359845;30.0;53.7147208;86.83734906666666
0.7148948492529051;0.39989569590197244;1.5108485557319038;-0.0734169470786173;0.02220585473680278;-0.0300805547058223;2.6673555204098385;0.14492607721368983;0.02100356785654839;2.941752580981258;0.27439706057141944;-0.9778729478943612;0.00016324026901621432;0.02549199551340886;-0.0122361578464362;5.1294182196182146e-05;0.0142755174875089;0.0;53.71429473333333;86.8375118
1.1806431984149226;0.25023083144550173;1.1806431984149226;-0.0300805547058223;0.022342004723264478;-0.0300805547058223;2.7236813517679077;0.05622439063360536;0.0031611821021202504;2.7236813517679077;0.11244872022282504;-0.9778729478943612;0.00013759317791812282;0.023452635872336036;-0.0122361578464362;1.9755191791774295e-05;0.008157438564290801;0.0;53.713742133333334;86.83763333333333
1.1063731330411188;0.04126652952750376;1.1806431984149226;-0.061180789232181;0.017019288098153413;-0.0300805547058223;2.6112326315450827;0.06103804108653373;0.00372564245968138;2.7236813517679077;0.11244872022282504;-0.9890894259202612;3.881721895926549e-05;0.012236157846436058;-0.0193739165901906;3.4658231213908286e-07;0.0010196798205364017;0.0;53.71321823333333;86.8376897
1.112335302211645;0.2832049861202169;1.5998524662411897;-0.0336494340776996;0.03276225603779847;0.0040787192821454;2.6263061548594555;0.12467409799220405;0.0155436307101697;2.8343163342651034;0.22308370272002076;-0.9972468644845518;0.0001796162832646705;0.0249821556031411;-0.0193739165901906;2.80731672830473e-05;0.0091771183848272;0.0;53.71269253333333;86.83771013333335
1.5998524662411897;0.42932014034070837;1.968215285411666;0.0040787192821454;0.020248626502982665;0.0040787192821454;2.8343163342651034;0.13404530403984583;0.017968143535134706;2.8343163342651034;0.25047438530089083;-0.9972468644845518;0.00015656855950760328;0.0249821556031411;-0.0193739165901906;5.926557537531894e-05;0.015295197308045298;0.0;53.71225183333333;86.83768756666667
1.968215285411666;0.4851793237387582;2.5614839087162835;-0.0275313551544814;0.024142593138171704;0.0040787192821454;2.5838419489642126;0.1616542123622767;0.026132084374468054;2.8861192214112426;0.30227727244702995;-1.0084633425104517;7.702791887231513e-05;0.016314877128581706;-0.0285510349750178;7.728785560640869e-05;0.017334556949117903;0.0;53.71184673333334;86.83763233333333
2.5614839087162835;0.5585968338288859;2.5614839087162835;-0.0433363923727949;0.027504591286103587;0.0101967982053635;2.8861192214112426;0.6581903894646268;0.43321458878359714;2.8861192214112426;1.2606949008050512;-1.0084633425104517;7.902076716709237e-05;0.016314877128581706;-0.0254919955134087;0.00010432127595304418;0.020393596410727;0.0;53.71141616666667;86.83755163333335
1.44502307654716;0.6465523802342312;2.568254686288761;0.0101967982053635;0.04420148344898193;0.0101967982053635;1.6254243206061914;0.6571708523969098;0.431873529240081;2.8861192214112426;1.2606949008050512;-0.9972468644845518;0.00018958052473858463;0.027531355154481574;-0.0254919955134087;0.00013204786092395248;0.020393596410727;0.0;53.71101793333333;86.83747766666666
2.568254686288761;1.1931374558679808;3.829958389607182;-0.0774956663607627;0.05019356006996457;0.0101967982053635;2.5776519708241175;1.107641901307889;1.2268705815329557;3.8337502058333923;2.208325885227201;-0.9671663097787294;0.0004930999845919763;0.043336392372795074;-0.0254919955134087;0.000385312885517589;0.0392576730906495;0.0;53.710600633333335;86.83739316666667
3.829958389607182;0.7566218901178358;3.922644980320571;0.0086672784745589;0.04462288682729241;0.0086672784745589;3.8337502058333923;0.7576900552760636;0.5740942198642442;3.939830217023139;1.3621782461990217;-0.9671663097787294;0.0002917356612407529;0.030080554705822382;-0.0448659121035994;0.00015968780031682715;0.023452635872336106;30.0;53.7102203;86.83730296666666
3.922644980320571;0.17619280503000714;4.17073098133153;-0.0142755174875089;0.01438736549627568;0.0122361578464362;3.939830217023139;0.19942553190840476;0.03977054277695016;4.219764537390897;0.3860143315575044;-0.9671663097787294;0.0007182051963245352;0.05353319057815853;-0.0647496686040582;2.400082511544728e-05;0.009686958295095402;0.0;53.709882033333336;86.83718656666667
4.17073098133153;0.6741522880541216;5.1944178813438935;0.0122361578464362;0.013268904045370728;0.0122361578464362;4.219764537390897;0.6848462421789415;0.46901437542661745;5.240947974024668;1.301117757001529;-0.9870500662791885;0.00030256635849502033;0.03364943407769949;-0.0683185479759355;0.00012165039155986357;0.021413276231263392;0.0;53.709618266666666;86.8370764
5.1944178813438935;0.937792060652219;5.1944178813438935;-0.0020393596410727;0.014788287221920757;0.0275313551544814;5.240947974024668;0.9222084301899512;0.8504683887134141;5.240947974024668;1.8407396265206377;-0.9870500662791885;0.0003559400345640177;0.03364943407769949;-0.0591414295911083;0.00023394306069204115;0.030590394616090602;0.0;53.70939606666666;86.83697366666667
3.321541479817289;1.4258138571263237;5.1944178813438935;0.0275313551544814;0.02371714764884853;0.0448659121035994;3.4002083475040306;1.399915762130233;1.959764141060671;5.240947974024668;2.7474031035151607;-0.9870500662791885;0.000256817493293021;0.03161007443662667;-0.0418068726419904;0.000588843348319661;0.0479249515652085;0.0;53.70919130000001;86.8368713
2.395699907298936;1.7457275740357971;3.321541479817289;0.0448659121035994;0.00925234192502995;0.0448659121035994;2.4935448705095076;1.3439268135985782;1.8061392803092275;3.4002083475040306;2.644652994164878;-0.9982665443050882;0.00022259248996955747;0.02906087488528586;0.0010196798205363;0.0009589932576812771;0.0601611094116446;0.0;53.7088769;86.83674463333334
-0.0568222102207182;1.4334714410005813;2.395699907298936;0.0418068726419904;0.016261682082737382;0.0713775874375446;0.7555553533391521;1.0142188204470295;1.028639815748964;2.4935448705095076;1.7747893136036947;-0.9982665443050882;0.0002549979361543083;0.02906087488528586;0.0020393596410727;0.0006262742380303855;0.0438462322830631;0.0;53.708527933333336;86.83667726666668
-0.1163965078734351;1.1997695529469519;-0.0568222102207182;0.0713775874375446;0.04047478157928054;0.1218517385540939;0.7187555569058128;0.874615836606487;0.7649528616428652;2.2516992531571502;1.5329436962513374;-1.0013255837666972;0.00017389767511440083;0.026001835423676845;0.0387478331803813;0.00046199422207775665;0.037728153359845;60.0;53.7081484;86.83671586666668
-2.1640306253842634;1.0823435624016418;-0.1163965078734351;0.1218517385540939;0.0677230417367554;0.1218517385540939;2.2516992531571502;0.9130608622368634;0.8336801381487245;2.2516992531571502;1.6258920785941338;-0.9880697460997246;0.00022727135118340698;0.030080554705822382;0.0387478331803813;0.00037881446716503294;0.0367084735393086;60.0;53.70786603333334;86.83733803333332
-0.5321028433052981;0.8163633168896022;-0.5321028433052981;-0.0122361578464362;0.08322163774523224;0.1218517385540939;0.6258071745630166;0.8133074762330502;0.6614690508965735;2.2516992531571502;1.6258920785941338;-0.9880697460997246;0.00022987071852442853;0.030080554705822382;0.0387478331803813;0.00021869343895804073;0.029570714795554204;0.0;53.70772203333333;86.83816683333333
-1.3922932088608502;0.7851774058738027;0.1755915314969844;-0.0305903946160905;0.015396827644071742;-0.0122361578464362;1.396760782837394;0.5323018082216279;0.28334521503601473;1.396760782837394;1.0212900986855147;-0.9880697460997246;8.421950184913388e-05;0.01835423676965442;0.0244723156928724;0.00019027368936285873;0.0275313551544814;0.0;53.70769583333333;86.83917316666667
0.1755915314969844;1.2988661845836398;1.185378008462865;-0.0428265524625267;0.028337805441140115;-0.0305903946160905;0.37547068415187934;0.5488252610314612;0.30120916714625157;1.396760782837394;1.0212900986855147;-0.9972468644845518;0.0003125305999689394;0.0341592739879677;0.0244723156928724;0.0005333901783778422;0.0458855919241357;0.0;53.70774886666666;86.83987473333333
1.185378008462865;0.5448659964238494;1.185378008462865;-0.0846334251045171;0.02305017753738599;-0.0428265524625267;1.234472450357934;0.47358797660003205;0.2242855715801125;1.234472450357934;0.8590017662060547;-0.9972468644845518;0.0002917356612407568;0.0341592739879677;-0.003059039461609;9.669646508604547e-05;0.018354236769654298;0.0;53.707752633333335;86.84057823333335
1.035287976531857;0.6118724396957742;2.1621259303487426;-0.0469052717446721;0.04612666055769731;0.0071377587437544;1.1505778301919591;0.5687023749108947;0.3234223912292918;2.174863393229663;1.0242855630377037;-0.9992862241256244;0.00025811717696353295;0.032119914346895095;-0.0183542367696543;0.0001084802636986818;0.0193739165901907;0.0;53.707702366666666;86.84124476666666
2.1621259303487426;0.7481806802005863;2.4513499971899235;0.0071377587437544;0.027379874746808273;0.0071377587437544;2.174863393229663;0.6874364650894708;0.4725688935347072;2.4569724575496377;1.3063946273576785;-0.9992862241256244;7.312886786076769e-05;0.015295197308045516;-0.0183542367696543;0.00016670609213758757;0.0244723156928724;0.0;53.70762166666666;86.84184673333334
2.4513499971899235;0.702470612485611;3.4973919704344425;-0.0122361578464362;0.009903675799145296;0.0071377587437544;2.4569724575496377;0.6978635315289605;0.48701350863807247;3.499704807723414;1.324841414493751;-0.9676761496889976;0.0003441562359513988;0.03262975425716319;-0.037728153359845;0.00012511621468122515;0.021413276231263295;0.0;53.7075496;86.84236346666667
3.4973919704344425;0.5251565749565865;3.4973919704344425;0.0010196798205363;0.0076532614453599275;0.0010196798205363;3.499704807723414;0.5233347268361589;0.273879236312677;3.499704807723414;1.0427323501737762;-0.9676761496889976;0.0006786948127410035;0.051493830937085594;-0.0428265524625267;6.663044950821696e-05;0.016314877128581595;0.0;53.7074895;86.84283243333334
2.8924232729320187;0.30593560447295215;3.4973919704344425;0.0010196798205363;0.008830686283107793;0.0010196798205363;2.899791555264169;0.3036155444237246;0.0921823988157147;3.499704807723414;0.599913252459245;-0.9676761496889976;0.0007720987458617511;0.051493830937085594;-0.0514938309370857;1.4643102687764715e-05;0.0076475986540225985;0.0;53.7074355;86.84324776666665
3.1155386193307706;0.3519578404886812;3.1155386193307706;-0.0142755174875089;0.011461007647657563;0.0010196798205363;3.118352459309614;0.35398509505375;0.12530544752021242;3.118352459309614;0.692452545814652;-1.011522381972061;3.2838674074910845e-05;0.011216478025899423;-0.0433363923727949;3.613120604021827e-05;0.011726317936167997;0.0;53.70736323333333;86.84376430000002
2.4258048301464323;0.36047684011052383;3.1155386193307706;-0.0214132762312633;0.014287651376216478;-0.0142755174875089;2.425899913494962;0.361839234709649;0.13092763177526448;3.118352459309614;0.692452545814652;-1.0074436626899157;6.273139849667035e-05;0.015295197308044628;-0.0433363923727949;3.6997661820559197e-05;0.011726317936167997;0.0;53.707292800000005;86.84428266666667
2.9524164132753805;0.27757956312361254;2.9524164132753805;-0.0418068726419904;0.010998055597948996;-0.0214132762312633;2.954238786657726;0.2810767585862697;0.07900414421736414;2.954238786657726;0.5283388731627641;-1.006423982869379;8.352633722485329e-05;0.016314877128581262;-0.0433363923727949;2.0535001994082887e-05;0.008667278474558997;0.0;53.70722283333333;86.84483563333333
2.841299392576462;0.3071092653891549;2.9524164132753805;-0.0244723156928724;0.06708674429292705;0.0820842255531763;2.8563701587960035;0.24000214791878322;0.057601031005629494;2.954238786657726;0.45589793856718197;-1.006423982869379;0.00017571723225312324;0.023452635872336147;-0.0428265524625267;2.3221014913139707e-05;0.009177118384827196;0.0;53.70715753333334;86.8452994
2.3737058615011453;0.3291483901891181;3.00879205571182;0.0820842255531763;0.05479533936034351;0.0820842255531763;2.4983408480905442;0.3254430369181973;0.10591317027853914;3.1481004134979083;0.649759565407364;-0.9880697460997246;0.0004391197894767591;0.04180687264199057;-0.0428265524625267;2.3221014913139707e-05;0.009177118384827196;0.0;53.707106599999996;86.845769
3.00879205571182;0.564154273314379;3.00879205571182;0.0509839910268175;0.03685099923378256;0.1244009381054349;3.1481004134979083;0.5021303749587002;0.2521349134561648;3.1481004134979083;0.988026916256719;-0.9880697460997246;0.00045159675271366415;0.04180687264199057;-0.0336494340776996;8.421950184913652e-05;0.018354236769654295;0.0;53.70709843333333;86.84624723333333
1.8835923008991768;0.8376255624413257;3.00879205571182;0.1244009381054349;0.038926313319657055;0.1244009381054349;2.1600734972411892;0.7487848790569662;0.5606787951043555;3.1481004134979083;1.468635690009577;-0.9880697460997246;0.000301786548292733;0.03211991434689543;-0.0244723156928724;0.00019651217098131372;0.027531355154481497;30.0;53.707182933333335;86.84670719999998
1.3713461975284047;0.5587354952854336;2.4875616909092897;0.0652595085143265;0.05096104306640207;0.1244009381054349;1.6794647234883313;0.4560377568867077;0.20797043570625995;2.591090726330226;0.9116260028418948;-0.9737942286122158;0.0006535675951111335;0.04639543183440431;-0.0244723156928724;7.96272862133297e-05;0.017844396859386102;30.0;53.70736983333333;86.84706476666668
2.4875616909092897;0.9222897184689614;3.2012252301162283;0.0229427959620679;0.058833699500233136;0.0652595085143265;2.591090726330226;0.7848300226101832;0.6159581643903006;3.2418842567794233;1.562419533291092;-0.9737942286122158;0.0007097139296772195;0.04639543183440431;-0.0244723156928724;0.0002669550259230259;0.0326297542571632;0.0;53.7076361;86.84727983333335
3.2012252301162283;0.5307361246787748;3.2012252301162283;-0.0509839910268175;0.039416263898665;0.0229427959620679;3.2418842567794233;0.5325151989634402;0.28357243712707236;3.2418842567794233;1.0555119252680059;-0.9737942286122158;0.0007884747601101976;0.05098399102681761;-0.0387478331803813;9.470361679126131e-05;0.018354236769654295;0.0;53.707960433333334;86.84737376666668
2.163911449933372;0.7959182584370937;3.728246451789;-0.037728153359845;0.016410193677404573;-0.0183542367696543;2.1863723315114174;0.7884321577414668;0.6216252673608652;3.728670917101828;1.5422985855904106;-1.0013255837666972;0.000152149635027848;0.023452635872336147;-0.0387478331803813;0.0001843817900565426;0.026511675333945203;0.0;53.708313800000006;86.84746260000001
3.728246451789;1.3376306339479862;4.825549392263595;-0.0183542367696543;0.016888968082396337;-0.0040787192821454;3.728670917101828;1.3277810012001265;1.7630023871480107;4.829684401980699;2.6433120704692814;-1.0013255837666972;0.0001382863425423962;0.023452635872336147;-0.0387478331803813;0.0005531453701696179;0.0469052717446722;0.0;53.70863433333333;86.84756126666666
4.825549392263595;0.7006266001991664;5.031601566736835;-0.0040787192821454;0.013268904045370582;-0.0040787192821454;4.829684401980699;0.7102802604725446;0.5044980484169457;5.056558598873419;1.3278876817715912;-1.0013255837666972;5.857241075104667e-05;0.013255837666972692;-0.0652595085143265;0.0001581281799122136;0.0229427959620679;0.0;53.7088905;86.84767236666666
5.031601566736835;0.1510710550752269;5.031601566736835;-0.0305903946160905;0.01592790797574476;-0.0040787192821454;5.056558598873419;0.1421224421014366;0.020198788548876197;5.056558598873419;0.26173558034957267;-1.0013255837666972;4.4015953641316574e-05;0.013255837666972692;-0.0836137452839808;5.285380260084241e-06;0.004588559192413605;0.0;53.70907043333333;86.84775843333334
4.737200802254631;0.26760645488762874;5.031601566736835;-0.0326297542571632;0.005395638444099104;-0.0224329560517997;4.7948230185238465;0.203934372867961;0.041589228437048556;5.056558598873419;0.4017710012952973;-0.9850107066381156;0.00014452482416086728;0.023452635872336036;-0.0774956663607627;2.885297748535595e-05;0.010706638115631703;0.0;53.70923363333333;86.84784483333334
4.4973149066494615;0.1413150743159491;4.737200802254631;-0.0224329560517997;0.011759521356857615;-0.0091771183848271;4.654787597578122;0.08209994468118632;0.006740400916653854;4.799060027835841;0.1442724302577192;-0.9850107066381156;0.0001417521656637767;0.023452635872336036;-0.0774956663607627;1.0744051676231735e-05;0.006118078923218098;0.0;53.70938993333334;86.84792433333332
4.4878325149542055;0.06411850629970312;4.603326190395763;-0.0091771183848271;0.006789362820922281;-0.0091771183848271;4.799060027835841;0.22865879730470803;0.05228484558483555;5.102747755737639;0.44796015815951673;-0.9850107066381156;7.798102023069136e-05;0.015295197308045183;-0.0774956663607627;2.426076184959299e-06;0.0030590394616090005;0.0;53.709549833333334;86.8479989
4.603326190395763;0.5191448893124172;5.439184498417467;-0.0183542367696543;0.010742993527941428;-0.0091771183848271;5.102747755737639;0.595654569258548;0.3548043658785864;5.948522767198145;1.1494627393623036;-1.0003059039461608;8.66455780429967e-08;0.0005098399102683171;-0.078515346181299;8.430614742717174e-05;0.0168247170388498;0.0;53.70973446666667;86.84808113333332
5.439184498417467;0.5899982243872802;5.439184498417467;-0.0305903946160905;0.022059047264998077;-0.0183542367696543;5.948522767198145;0.5030068572007368;0.2530158983909624;5.948522767198145;0.8946354974213682;-1.0003059039461608;0.00026695502592302754;0.028551034975017986;-0.0774956663607627;9.106450251383013e-05;0.017844396859386102;30.0;53.70992003333333;86.84817283333332
4.299937535792521;0.5801589222571474;5.439184498417467;-0.061180789232181;0.01766137256621636;-0.0305903946160905;5.0538872697767765;0.46684970209480625;0.21794864434600936;5.948522767198145;0.8946354974213682;-0.9962271846640156;0.00031201072650075207;0.03262975425716319;-0.0774956663607627;8.742538823639832e-05;0.017844396859386102;0.0;53.71010203333333;86.84826096666666
4.678929451418226;0.44265934156376574;5.182337328158811;-0.0305903946160905;0.01584063111074501;-0.0305903946160905;5.269760796042345;0.31160287033446055;0.09709634880067462;5.66812237568312;0.6142351059063431;-0.9962271846640156;0.0002942483830037589;0.03262975425716319;-0.0774956663607627;6.273139849668412e-05;0.015295197308045294;0.0;53.710254266666674;86.84834493333334
5.182337328158811;0.5942456783138772;5.863006255551409;-0.0530233506678902;0.017582702364130797;-0.0305903946160905;5.66812237568312;0.5114834227870572;0.26161529178596343;6.284923763521942;1.015162967479597;-0.9962271846640156;0.0002082959695939463;0.02549199551340875;-0.0815743856429081;0.0001375931779181354;0.023452635872336106;0.0;53.71039773333333;86.84842013333333
5.863006255551409;0.6668370815478034;6.515915185210098;-0.0652595085143265;0.015396827644071694;-0.0346691138982359;6.284923763521942;0.6419631346322849;0.4121166662269092;6.951724092290073;1.2836017166069533;-0.9992862241256244;0.0001604676105191322;0.022432956051799957;-0.092790863668808;0.00011541190994140797;0.02141327623126331;0.0;53.71052843333334;86.84849963333333
6.515915185210098;0.6241279463360306;7.110812730945638;-0.0346691138982359;0.01569777130451746;-0.0346691138982359;6.951724092290073;0.6338272525503089;0.4017369860754731;7.551996220197316;1.2670724566753746;-0.9880697460997246;0.0002748397735241361;0.0326297542571633;-0.1050270215152442;8.421950184913708e-05;0.018354236769654295;0.0;53.71064663333333;86.84857516666666
7.110812730945638;0.34741495602211087;7.110812730945638;-0.0438462322830631;0.004818818829663806;-0.0346691138982359;7.551996220197316;0.3210978292294503;0.10310381593586522;7.551996220197316;0.6002721279072434;-0.9880697460997246;3.223215502869966e-05;0.011216478025899757;-0.113184460079535;3.153899040441243e-05;0.010196798205363497;0.0;53.710754666666666;86.84865760000001
6.50245539022871;0.5254185586053977;7.110812730945638;-0.0418068726419904;0.007137758743753556;-0.0305903946160905;7.054207741254793;0.4424838161370858;0.19579192754323835;7.551996220197316;0.8825587842454219;-0.9880697460997246;5.545316994205054e-06;0.0040787192821453155;-0.1050270215152442;8.456608416127344e-05;0.018354236769654295;0.0;53.71085943333333;86.84875383333333
6.064596329283775;0.8207623871125764;6.50245539022871;-0.0305903946160905;0.02449354981026652;-0.0305903946160905;6.669437435951894;0.7165040347773749;0.5133780318522576;7.054207741254793;1.387834003365957;-0.9880697460997246;3.223215502869966e-05;0.011216478025899757;-0.0861629448353217;0.00019209324650157572;0.0270215152442133;0.0;53.7109662;86.84886913333334
4.91343014399124;0.5956885091237055;6.064596329283775;-0.0774956663607627;0.027080771268198803;-0.0305903946160905;5.666373737888836;0.5150691724180749;0.26529625237544063;6.669437435951894;1.003063698063058;-0.9880697460997246;0.0001771035615016869;0.026511675333945273;-0.0861629448353217;9.158437598203471e-05;0.0188640766799225;30.0;53.71107463333333;86.84900316666666
5.223218748196843;0.19252293008414437;5.223218748196843;-0.0305903946160905;0.02348217320881776;-0.0305903946160905;5.964715601076138;0.1807542170698901;0.03267208698854895;5.964715601076138;0.325976928290828;-0.979912307535434;0.0003018731938707727;0.034669113898235904;-0.0836137452839808;2.244120471083312e-05;0.009177118384827196;0.0;53.711183533333326;86.84917180000001
4.870287829901736;0.6371954047017764;5.223218748196843;-0.0520036708473539;0.01369310157947248;-0.0305903946160905;5.63873867278531;0.5947529155792718;0.35373103059004435;5.964715601076138;1.15369395693157;-0.979912307535434;0.0005171008097074279;0.04282655246252631;-0.0713775874375446;0.00011541190994140843;0.021413276231263392;0.0;53.711286933333334;86.84938613333333
3.986265770733871;0.5716714261998467;4.870287829901736;-0.0560823901294993;0.010213778730373402;-0.0367084735393086;4.811021644144568;0.5581647276223357;0.31154786316171623;5.63873867278531;1.0625548838636991;-0.979912307535434;0.0006928180419605492;0.047924951565208374;-0.0683185479759355;6.5504056993774e-05;0.015295197308045294;0.0;53.711376900000005;86.8496297
3.800340969377543;0.14995490494740193;4.0971008105055;-0.0367084735393086;0.01737449837752869;-0.0214132762312633;4.576183788921611;0.12892918633615857;0.0166227350893039;4.811021644144568;0.23483785522295708;-1.00336494340777;0.00016670609213756513;0.024472315692872337;-0.0683185479759355;3.7257598554696973e-06;0.0035688793718771927;0.0;53.711464666666664;86.84991373333332
4.0971008105055;0.9063748894595689;5.497428905756284;-0.0214132762312633;0.02225457535076396;-0.0214132762312633;4.785833902059155;0.7847284992240391;0.6157988174944127;6.028017225207914;1.4518334362863028;-1.00336494340777;0.00019166001861139494;0.024472315692872337;-0.0683185479759355;0.0002420010994492107;0.02855103497501789;0.0;53.7115417;86.8502297
5.497428905756284;0.7169908583288159;5.497428905756284;-0.0652595085143265;0.023125235298832633;-0.0214132762312633;6.028017225207914;0.6394400349033905;0.4088835582372493;6.028017225207914;1.2421833231487591;-1.0023452635872336;1.0397469364184775e-06;0.0020393596410726023;-0.0718874273478127;0.00016384678806246402;0.024982155603140696;0.0;53.711611866666665;86.85056440000001
4.529797865737736;0.7684705069107685;5.497428905756284;-0.0560823901294993;0.011818319330215094;-0.0418068726419904;5.14351311426935;0.755047063246637;0.570096067717371;6.028017225207914;1.502217885791965;-1.0023452635872336;1.8022280231096562e-05;0.008157438564290853;-0.0703579076170082;0.00018126254924731523;0.02651167533394519;0.0;53.71167466666666;86.8508832
3.97949134857266;0.28069658534534275;4.529797865737736;-0.0418068726419904;0.007161995685293754;-0.0418068726419904;4.525799339415949;0.30937943911922616;0.09571563734972698;5.14351311426935;0.6177137748534012;-0.9906189456510656;9.990235147331572e-05;0.019883756500458927;-0.0703579076170082;2.114152104032162e-05;0.009177118384827196;0.0;53.71174123333333;86.85118870000001
4.350789143910643;0.519728631981275;5.005947604134247;-0.0479249515652085;0.005615958547246784;-0.0418068726419904;4.8035245497856565;0.40806329134452446;0.16651564974292624;5.329265946900321;0.8034666074843724;-0.9880697460997246;0.00015084995135736625;0.022432956051799846;-0.0703579076170082;6.966304473940999e-05;0.016314877128581595;0.0;53.711815433333335;86.85148476666666
5.005947604134247;0.33526234366202323;5.005947604134247;-0.0530233506678902;0.02632143692811142;-0.0050983991026817;5.329265946900321;0.26494086665821165;0.07019366282560428;5.329265946900321;0.5257413971146647;-0.9880697460997246;0.00011081969430562264;0.019373916590191054;-0.07545630671969;3.569797815004787e-05;0.011216478025899798;0.0;53.71188599999999;86.85176866666666
4.8019728287618095;0.18058506510822633;5.005947604134247;-0.0050983991026817;0.024900517191655147;-0.0050983991026817;5.123648859553997;0.1845474028185603;0.034057743887075956;5.329265946900321;0.3682599360307659;-0.9880697460997246;0.00010848026369870189;0.019373916590191054;-0.0805547058223717;9.704304739822189e-06;0.006118078923218098;0.0;53.71195293333333;86.85202333333332
4.645835023025668;0.16983370838476103;4.985143671579897;-0.0173345569491179;0.011730011846461047;-0.0050983991026817;4.961006010869555;0.14712098179660657;0.021644583284797445;5.254681450203723;0.2936754393341676;-0.9911287855613338;0.00016670609213759126;0.025491995513408527;-0.0805547058223717;1.6635950982549164e-05;0.008157438564290798;0.0;53.7120181;86.85225916666667
4.985143671579897;0.18299070994282893;4.985143671579897;-0.0285510349750178;0.006475836607611753;-0.0173345569491179;5.254681450203723;0.17681538447684045;0.03126368018769291;5.278451739762304;0.317445728892749;-0.9911287855613338;0.00020829596959394886;0.025491995513408527;-0.0805547058223717;1.9755191791776454e-05;0.008157438564290798;0.0;53.7120847;86.85248789999999
4.934270787513155;0.42118893199928825;5.68789629261067;-0.0173345569491179;0.006202470205258622;-0.0173345569491179;5.278451739762304;0.4223022133532648;0.17833915940306636;5.997725748799676;0.7430442985959527;-0.9875599061894564;0.000271980469449007;0.02906087488528586;-0.0876924645661262;3.4918167947742255e-05;0.010706638115631703;0.0;53.71215623333333;86.85272156666667
5.68789629261067;0.49989115472685663;5.880038677372775;-0.0275313551544814;0.010196798205362876;-0.0173345569491179;5.997725748799676;0.47790552887088394;0.2283936945253593;6.183216948026263;0.9047652082639583;-0.9875599061894564;0.00019833172812004282;0.02804119506474967;-0.0876924645661262;6.160500598224122e-05;0.015295197308045294;0.0;53.71224316666667;86.85298770000001
5.880038677372775;0.595735630842998;5.880038677372775;-0.037728153359845;0.005232590434838019;-0.0275313551544814;6.183216948026263;0.5599078777658618;0.3134968315842712;6.183216948026263;1.0491373896292435;-0.9875599061894564;6.0911841357985526e-05;0.014785357397777199;-0.0836137452839808;0.00010250171881433028;0.019373916590190693;0.0;53.71233736666667;86.85324403333334
4.7656287380360505;1.0284307936866053;5.880038677372775;-0.0346691138982359;0.01333404387745645;-0.0132558376669725;5.134079558397019;0.9489918444439717;0.9005855208211713;6.183216948026263;1.894327657451818;-0.9758335882532884;0.00021037546346679107;0.026511675333945273;-0.0652595085143265;0.0003559400345640345;0.03772815335984499;0.0;53.712436033333326;86.8534963
3.825643820769791;0.5153564528912014;4.7656287380360505;-0.0132558376669725;0.012991750690741726;-0.0112164780258998;4.288889290574445;0.4542005468396928;0.20629813674947597;5.134079558397019;0.8451902678225744;-0.9758335882532884;0.00021765369202165433;0.026511675333945273;-0.0652595085143265;0.000101202035143818;0.018354236769654295;0.0;53.712526200000006;86.853723
4.661830336009309;0.44045847519535647;4.661830336009309;-0.0112164780258998;0.01827854887291173;0.0193739165901906;4.999814909575108;0.3735435056820707;0.13953475063725118;4.999814909575108;0.7109256190006636;-0.9758335882532884;0.0001497235588429346;0.02447231569287245;-0.0652595085143265;7.208912092436482e-05;0.016314877128581595;0.0;53.712612533333335;86.85396293333334
4.483747680057539;0.2160586818623258;4.913756730495851;0.0193739165901906;0.0478417139047968;0.0193739165901906;4.8432058782588605;0.17606903893890422;0.03100030647286937;5.194651617281752;0.3514457390228918;-0.9697155093300704;0.00023706230150129272;0.030590394616090366;-0.0774956663607627;9.704304739822288e-06;0.006118078923218098;0.0;53.712686866666665;86.85420793333333
4.913756730495851;0.22293976195187684;4.913756730495851;-0.0744366268991536;0.049915731407525116;0.0193739165901906;5.194651617281752;0.21650239602231217;0.046873287483402096;5.194651617281752;0.39477601795297534;-0.9697155093300704;0.00023706230150129272;0.030590394616090366;-0.0774956663607627;9.357722427685943e-06;0.006118078923218098;0.0;53.712729233333334;86.85446363333334
4.596646501305667;1.4928900635531188;4.913756730495851;-0.0571020699500356;0.009063112488339907;-0.0571020699500356;4.799875599328777;1.514095914032334;2.292486436889409;5.194651617281752;2.797498243640593;-0.9697155093300704;0.0005056635934069556;0.04384623228306306;-0.0387478331803813;0.0006283537319032054;0.0448659121035995;0.0;53.71268906666666;86.85467946666667
2.184065086567048;1.6888274497876132;5.437549642454821;-0.0703579076170082;0.019693288381592396;-0.0316100744366268;2.397153373641159;1.6211003603327083;2.6279663782708367;5.483744860856355;3.0865914872151956;-0.9850107066381156;0.00020413698184832993;0.028551034975017875;-0.0387478331803813;0.0008259056498209239;0.055062710308962995;30.0;53.71257163333333;86.85479243333333
5.437549642454821;1.6387913574209059;5.437549642454821;-0.0316100744366268;0.022371071917207618;-0.0316100744366268;5.483744860856355;1.5491431441052768;2.3998444809283823;5.483744860856355;3.0865914872151956;-0.9850107066381156;0.00020690964034542192;0.028551034975017875;-0.0387478331803813;0.0007704524798791083;0.055062710308962995;30.0;53.7124192;86.8547424
4.154376895933987;0.9182039226167226;5.437549642454821;-0.0316100744366268;0.002354849675492555;-0.0275313551544814;4.173361517247267;0.9404083194769568;0.8843678073414741;5.483744860856355;1.8236415173769789;-0.9850107066381156;9.461697121324655e-05;0.01937391659019061;-0.0642398286937901;0.0002332498960677675;0.029570714795554204;0.0;53.71229373333333;86.85457426666666
3.658247967607083;1.0236834036591735;4.154376895933987;-0.0275313551544814;0.030680898939931693;0.023452635872336;3.660103343479376;1.0282944418906852;1.0573894592232755;4.173361517247267;1.9813299052768145;-0.9880697460997246;6.654380393020123e-05;0.016314877128581595;-0.037728153359845;0.00032856003190526254;0.034669113898235904;0.0;53.71219656666667;86.8543235
2.1860870983796823;0.9577003380355812;3.658247967607083;0.023452635872336;0.030680898939931676;0.0275313551544814;2.1920316119704526;0.9388288329562376;0.8813995775899711;3.660103343479376;1.7478271540027077;-0.9880697460997246;8.603905898786737e-05;0.016314877128581595;-0.0326297542571632;0.0002880099013853105;0.031610074436626896;0.0;53.71202873333334;86.85386553333332
1.8609764127152335;0.38401724192653486;2.626138599053866;0.0275313551544814;0.006789362820921938;0.0275313551544814;1.9122761894766682;0.381173738221267;0.145293418709575;2.6663061080936337;0.7540299186169654;-0.9880697460997246;6.870994338105132e-05;0.015805037218313278;-0.0326297542571632;4.470911826559436e-05;0.013255837666972602;0.0;53.71182863333333;86.85334116666667
2.626138599053866;0.5942551682528737;3.0311568560835846;0.0142755174875089;0.007376545465554301;0.0275313551544814;2.6663061080936337;0.5990390680466837;0.3588478050462393;3.0955929387567576;1.1833167492800893;-0.9819516671765066;0.0001383729881204573;0.021923116141531307;-0.0326297542571632;9.808279433459204e-05;0.0193739165901907;0.0;53.7116092;86.85278040000001
3.0311568560835846;0.27093686215036;3.0311568560835846;0.0152951973080452;0.025025471784371322;0.058121749770572;3.0955929387567576;0.264476784067638;0.06994796931076003;3.0955929387567576;0.4822784666543072;-0.9493219129193432;0.0006668243685503734;0.05098399102681761;-0.0418068726419904;2.6340255722367478e-05;0.010196798205363497;0.0;53.7114421;86.85234876666668
2.5168938047061857;0.34738221661402746;3.178590960114104;0.058121749770572;0.02363663866043091;0.058121749770572;2.6133144721024504;0.3541530564273181;0.12542438737681116;3.3037072781270966;0.6903928060246463;-0.9493219129193432;0.0015138715394116043;0.07749566636076277;-0.0418068726419904;6.065190462386551e-05;0.015295197308045197;30.0;53.71126619999999;86.8518742
3.178590960114104;0.9660735728635231;3.178590960114104;0.0540430304884266;0.012530035410873623;0.0774956663607627;3.3037072781270966;0.8243217393823863;0.6795063300184028;3.3037072781270966;1.6417446358587138;-0.9493219129193432;0.0017928703006813724;0.07749566636076277;-0.0214132762312633;0.0003205886387261277;0.0356887937187723;30.0;53.71105029999999;86.85134256666667
1.275638028224408;1.2295094380974827;3.575876140781342;0.0774956663607627;0.016003884799283687;0.0774956663607627;1.6619626422683829;1.155236304192882;1.3345709185252286;3.890747836958013;2.22878519468963;-0.9584990313041704;0.0014892641952499236;0.06831854797593562;-0.0214132762312633;0.00046407371595057656;0.0387478331803814;30.0;53.7107929;86.8508633
3.575876140781342;1.2481720308559374;3.575876140781342;0.0469052717446721;0.030590394616090255;0.0774956663607627;3.890747836958013;1.1516558952503555;1.326311301064898;3.890747836958013;2.22878519468963;-0.9574793514836342;4.5055700578223155e-06;0.0040787192821454266;-0.0214132762312633;0.0004432787772223958;0.0387478331803814;30.0;53.7104934;86.85052966666666
1.5858292751117575;1.2262025281537394;3.575876140781342;0.0163148771285816;0.03957531387802423;0.0469052717446721;2.273044877963691;0.9934583574978445;0.9869595080823149;3.890747836958013;1.8079292425329245;-0.9574793514836342;0.0006155301863541957;0.04486591210359947;-0.023452635872336;0.00041485902762721514;0.0367084735393087;0.0;53.7101552;86.85038773333333
1.33968268555601;0.20163180098656744;1.5858292751117575;-0.0316100744366268;0.02564111241975738;0.0163148771285816;2.0828185944250883;0.19763493674956925;0.03905956822400624;2.273044877963691;0.39517842709925466;-0.9574793514836342;0.001476787232013008;0.07647598654022625;-0.0214132762312633;6.585063930595955e-06;0.0050983991026818005;0.0;53.70980676666667;86.8503721
1.1861243808285469;0.9817323476823878;1.33968268555601;-0.023452635872336;0.019275275318660145;0.0050983991026817;1.8778664508644365;0.28140933733284734;0.07919121513811228;2.0828185944250883;0.5564249781030044;-1.0023452635872336;0.00025681749329305566;0.03161007443662678;0.0076475986540226;0.00030265300407306936;0.0311002345263586;0.0;53.70944146666667;86.85041640000001
-0.4322985470167149;0.847446219256535;1.1861243808285469;0.0050983991026817;0.01619761742625129;0.0050983991026817;1.526393616322084;0.26413487571766064;0.06976723257038403;1.8778664508644365;0.5172797273286471;-0.9901091057407974;0.00048140283155741366;0.04384623228306306;0.0076475986540226;0.00023195021239725454;0.0290608748852859;30.0;53.709091066666666;86.8505012
-0.0590064604624442;0.3295775546105211;-0.0590064604624442;0.0040787192821454;0.007376545465554434;0.0050983991026817;1.3605867235357894;0.08616094099118853;0.007423707752487071;1.526393616322084;0.16580689278629457;-0.9788926277148976;0.00031296382785916065;0.034669113898235904;0.0122361578464362;3.1798927138515534e-05;0.0112164780258999;30.0;53.708696800000006;86.8506104
-0.716135082690355;2.1297290486975684;-0.0590064604624442;-0.0081574385642908;0.00678936282092213;0.0040787192821454;1.4028431652956446;1.6256832864292796;2.642846147775503;4.197243178721613;2.8366564551858238;-0.9788926277148976;0.0002935552183795242;0.03364943407769949;0.0713775874375446;0.0014289588729381728;0.0703579076170083;30.0;53.708298633333335;86.85074983333334
-4.032207096778878;1.8291898017377457;-0.716135082690355;-0.0071377587437544;0.04445071159710839;0.0693382277964719;4.197243178721613;1.5924223400214876;2.5358089089995106;4.197243178721613;2.7944000134259683;-0.9788926277148976;0.0003774281379165156;0.03364943407769949;0.0713775874375446;0.0010577692166401425;0.05914142959110841;30.0;53.7078787;86.85089310000001
-1.0360545812129096;1.6424652262757573;-1.0360545812129096;0.0693382277964719;0.03893966635188991;0.0693382277964719;1.4768186443028946;1.5334660567916196;2.3515181473320386;4.197243178721613;2.7204245344187186;-1.012542061792597;4.9907852947661124e-05;0.01223615784643628;0.0713775874375446;0.0008415018538670613;0.0530233506678903;30.0;53.70747493333334;86.85103546666669
-1.367778132403223;0.48520715470281633;-1.0360545812129096;0.0183542367696543;0.025822942677981485;0.0693382277964719;1.610645080545725;0.33406488218453984;0.11159934550897047;2.1106232984582385;0.6338046541553439;-1.012542061792597;0.00046199422207777194;0.041806872641990456;0.0367084735393086;8.733874265836521e-05;0.0183542367696543;30.0;53.70707266666667;86.85117079999999
-1.991693263987375;1.2508904875372555;0.4184131208518321;0.0509839910268175;0.016357308610197574;0.0509839910268175;2.1106232984582385;0.6987152412922563;0.48820298841409593;2.1106232984582385;1.3800887954670695;-0.9768532680738248;0.0015294677434577306;0.07749566636076277;0.0367084735393086;0.0005119020750253896;0.043846232283063;30.0;53.70667586666667;86.85132013333333
0.4184131208518321;2.1704741335949667;2.340085740545034;0.0326297542571632;0.010903106578528424;0.0520036708473539;0.730534502991169;0.9020273769107802;0.8136533886965426;2.4267977405200583;1.6962632375288893;-0.971754868971143;0.0021422252713148024;0.0825940654634445;0.0367084735393086;0.0014726282442673476;0.0764759865402263;0.0;53.70626863333333;86.85145903333334
2.340085740545034;1.0811663811015109;2.340085740545034;0.0520036708473539;0.030151043178199055;0.0520036708473539;2.4267977405200583;0.9568279472158029;0.9155197205732072;2.4267977405200583;1.6962632375288893;-0.971754868971143;0.0006325127196488738;0.04588559192413588;-0.0071377587437544;0.00035490028762762593;0.0326297542571633;0.0;53.70584273333333;86.85160486666666
2.2378197469297705;0.2730668965109464;2.7535523991643545;-0.0071377587437544;0.033572096733260316;0.0520036708473539;2.345854125751652;0.2730166792769089;0.07453810716339054;2.8539801001344687;0.5081259743828168;-0.971754868971143;0.0007018291820761343;0.04588559192413588;-0.0397675130009177;2.8073167283047014e-05;0.009177118384827099;0.0;53.7054091;86.85174296666668
2.7535523991643545;0.34543848840152247;2.893804298417077;-0.0050983991026817;0.018866373116315022;0.0265116753339451;2.8539801001344687;0.3436109385875874;0.11806847711704277;3.0006182821066893;0.6547641563550375;-0.9880697460997246;0.0002914757245066948;0.029570714795554287;-0.0397675130009177;3.153899040441048e-05;0.010196798205363497;0.0;53.70500486666666;86.8518678
2.893804298417077;0.1016662265227414;2.9511739111181843;0.0265116753339451;0.01743423894936515;0.0265116753339451;3.0006182821066893;0.08699165219724143;0.00756754755200582;3.0083891124843034;0.15440901234983473;-0.9880697460997246;0.00022909090832215457;0.029570714795554287;-0.0489446313857448;2.426076184957306e-06;0.0030590394616090977;0.0;53.7046442;86.85197646666666
2.9511739111181843;0.42420347893249943;3.655549348041863;0.023452635872336;0.022716977412741483;0.0265116753339451;3.0083891124843034;0.3868635033492338;0.14966337022364265;3.6745371452047912;0.6739188630981019;-0.9880697460997246;0.00012095722693561899;0.020393596410727022;-0.0499643112062812;5.961215768745435e-05;0.014275517487508896;0.0;53.70431713333334;86.85207606666667
3.655549348041863;0.3921301980755044;3.655549348041863;-0.0142755174875089;0.020042178019517045;0.023452635872336;3.6745371452047912;0.3671937995956578;0.1348312864614961;3.6745371452047912;0.6661480327204878;-0.9880697460997246;0.00012095722693561899;0.020393596410727022;-0.0520036708473539;4.2976206704909526e-05;0.012236157846436196;0.0;53.70400970000001;86.85216116666668
3.6020080921778823;0.15799082216072818;3.655549348041863;-0.0071377587437544;0.004818818829663914;-0.0071377587437544;3.609192391834836;0.16583812809923443;0.027502284731458087;3.6745371452047912;0.31428274865218864;-0.9880697460997246;8.976481884335519e-05;0.01733455694911823;-0.058121749770572;9.704304739820057e-06;0.006118078923218091;0.0;53.703694866666666;86.85223886666667
3.359087600305142;0.5382211275279719;4.388726337686755;-0.0163148771285816;0.007234219317423041;-0.0071377587437544;3.3602543965526026;0.5367096605859624;0.288057259766299;4.38898783846731;1.0287334419147074;-0.9880697460997246;1.8022280231131687e-05;0.008157438564290964;-0.058121749770572;9.288405965254347e-05;0.0183542367696543;0.0;53.703402966666665;86.85227123333334
4.388726337686755;0.5158757750199556;4.388726337686755;-0.0214132762312633;0.010042681555822863;-0.0020393596410727;4.38898783846731;0.515523264541208;0.2657642362832243;4.38898783846731;1.0287334419147074;-0.9901091057407974;9.704304739857537e-06;0.006118078923218251;-0.058121749770572;8.45660841612711e-05;0.0183542367696543;0.0;53.70313633333333;86.85227766666667
3.931060259538164;0.6225803334785324;4.388726337686755;-0.0020393596410727;0.015020821721888209;0.0081574385642908;3.934398520968946;0.6229782113851616;0.38810185186065516;4.38898783846731;1.231942343210818;-0.9941878250229428;4.15898774567328e-06;0.0040787192821454266;-0.0550627103089629;0.00011679823918995204;0.021413276231263406;0.0;53.702906799999994;86.8522188
3.1570348162796478;0.43116189638076086;3.931060259538164;0.0081574385642908;0.009691429543103359;0.0081574385642908;3.157045495256492;0.43231919160034704;0.18689988342597758;3.934398520968946;0.7773530257124541;-0.9788926277148976;0.00010432127595308226;0.01937391659019061;-0.0550627103089629;5.094759988404582e-05;0.013255837666972609;0.0;53.70262223333333;86.85211343333333
3.873236241486938;0.7904955768318147;4.735767090768516;-0.0112164780258998;0.01688896808239625;0.0224329560517997;3.8735807510792255;0.7915718411891104;0.6265859797635182;4.737888625810836;1.580843130554344;-0.9788926277148976;0.000116018428987683;0.01937391659019061;-0.0550627103089629;0.00019166001861140318;0.027531355154481504;0.0;53.7023446;86.8519894
4.735767090768516;0.47436457416786576;4.735767090768516;0.0224329560517997;0.021782359498333657;0.0224329560517997;4.737888625810836;0.4713294745974767;0.22215147362433346;4.737888625810836;0.8643078747316104;-0.9788926277148976;0.0003369646529746008;0.036708473539308506;-0.0662791883348628;7.208912092436252e-05;0.016314877128581595;0.0;53.70205933333333;86.85188333333333
3.962309252119657;0.40011187113219865;4.735767090768516;-0.0183542367696543;0.023259728915978876;0.0224329560517997;3.9798768296621048;0.38681031417136935;0.14962221914935347;4.737888625810836;0.7580117961487312;-0.9967370245742836;8.898500864104005e-05;0.018864076679922515;-0.0703579076170082;4.055013051995499e-05;0.012236157846436196;0.0;53.70184583333333;86.85180636666666
4.171300282581597;0.12322097150153703;4.17990775291369;0.0214132762312633;0.02239429850790776;0.0214132762312633;4.224978862510356;0.16199566784874167;0.026242596401759837;4.2859258960088855;0.30604906634678075;-1.0043846232283062;3.5697978150074874e-05;0.011216478025899868;-0.0703579076170082;3.1192408092293196e-06;0.0030590394616090977;0.0;53.70161473333334;86.85175446666666
4.17990775291369;0.016737604153488492;4.203619652121114;0.0193739165901906;0.012404940410518794;0.0214132762312633;4.2859258960088855;0.07724622729421851;0.00596697963119007;4.378395590638976;0.1534167281286205;-0.9850107066381156;0.00013967267179098466;0.021413276231263434;-0.0723972672580809;3.4658231213853514e-07;0.0010196798205363983;0.0;53.701407733333326;86.85173520000001
4.203619652121114;0.021113938952351537;4.222024314396935;-0.0010196798205363;0.013881634109419285;0.0254919955134087;4.378395590638976;0.10414024281930132;0.010845190174463039;4.493785578063392;0.20785968205450622;-0.9850107066381156;9.392380658898754e-05;0.01937391659019061;-0.0723972672580809;3.465823121385658e-07;0.0010196798205363983;0.0;53.70120586666667;86.85173813333334
4.222024314396935;0.9814694114340704;5.912702146107927;0.0254919955134087;0.016261682082737223;0.0285510349750178;4.493785578063392;0.9869904271163095;0.9741501032192349;6.142684904264175;1.7642893136251985;-0.9850107066381156;8.898500864104307e-05;0.018864076679922293;-0.0723972672580809;0.00032266813259894194;0.03161007443662689;0.0;53.701040266666666;86.85175173333334
5.912702146107927;0.8890745565582662;5.912702146107927;0.0285510349750178;0.005798144899638995;0.0367084735393086;6.142684904264175;0.8652564246389334;0.7486686803789502;6.142684904264175;1.648899326200783;-0.9941878250229428;2.452069858368107e-05;0.009686958295095138;-0.0734169470786173;0.0002561243286687628;0.03059039461609049;0.0;53.70088933333333;86.85177146666666
5.5444031168224255;0.2162847917467327;5.912702146107927;0.0367084735393086;0.006686487737637181;0.0418068726419904;5.773047620258458;0.22504511944512126;0.05064530578606889;6.142684904264175;0.40721946498433415;-0.9972468644845518;1.1523861878567889e-05;0.006627918833486124;-0.0968695829509534;1.6982533294682497e-05;0.007137758743754399;0.0;53.70074783333333;86.85180916666667
5.532073110411643;0.3879459322453881;5.5444031168224255;0.0418068726419904;0.00723421931742275;0.0418068726419904;5.7354654392798405;0.4307437677033485;0.18554019341527622;5.773047620258458;0.764150912991469;-0.9697155093300704;0.0002727602796513426;0.029570714795553954;-0.0825940654634444;6.79301331787269e-05;0.014275517487508993;0.0;53.70060626666666;86.85184679999999
4.866380898694267;1.3227196174141673;5.532073110411643;0.0275313551544814;0.010042681555822705;0.0418068726419904;5.008896707266989;1.371644998913938;1.8814100030456171;5.7354654392798405;2.6542019588898307;-0.9697155093300704;0.0005846843605740548;0.047924951565208485;-0.0530233506678902;0.000500118276412755;0.0438462322830632;0.0;53.700450133333334;86.85188693333333
2.981930910586013;0.9505796202488428;4.866380898694267;0.0224329560517997;0.005098399102680217;0.0275313551544814;3.08126348039001;0.9659990792675214;0.933154221145699;5.008896707266989;1.9276332268769791;-0.9697155093300704;0.0008175876743296768;0.0509839910268175;-0.0530233506678902;0.000231083756616913;0.029570714795554204;0.0;53.7002924;86.8519084
4.141965511950026;0.695435009498002;4.226500203240967;0.0173345569491179;0.01813578270208866;0.0509839910268175;4.15748681256396;0.6423710326676639;0.41264054361052094;4.227017422240237;1.1457539418502267;-0.99214846538187;0.00024572685930470013;0.028551034975017986;-0.0530233506678902;0.00014218539355394006;0.0209034363209952;0.0;53.700108766666666;86.85192103333333
4.226500203240967;0.09487023106381594;4.331343349072665;0.0509839910268175;0.018363675822357872;0.0509839910268175;4.227017422240237;0.09412524253923202;0.008859561283069252;4.3437539477132905;0.1862671351493308;-0.99214846538187;0.00020690964034542888;0.028551034975017986;-0.0734169470786173;2.686012919058789e-06;0.0030590394616090005;0.0;53.69992806666667;86.85191100000002
4.331343349072665;0.39001571107971567;4.331343349072665;0.0214132762312633;0.02464870773843939;0.0509839910268175;4.3437539477132905;0.36822561454731756;0.13559010320874967;4.3437539477132905;0.6880902230821238;-0.986030386458652;0.00014799064728225104;0.023452635872336036;-0.0622004690527174;5.649291687822716e-05;0.014275517487508903;0.0;53.699734233333324;86.85193903333334
3.609524509396472;0.3611647770828046;4.331343349072665;0.0020393596410727;0.009691429543103263;0.0214132762312633;3.6556637246311667;0.3452203836698809;0.11917711330117975;4.3437539477132905;0.6880902230821238;-0.986030386458652;0.0002977142061251479;0.03364943407769949;-0.0622004690527174;5.1294182196181875e-05;0.014275517487508903;0.0;53.6995363;86.85201416666666
3.946914562060155;1.224514927023189;3.946914562060155;0.0112164780258998;0.032994166793847896;0.0112164780258998;4.049006134044677;1.0400525777237877;1.0817093644298956;4.049006134044677;1.9655944379215624;-0.986030386458652;0.00029355521837951166;0.03364943407769949;-0.0295707147955541;0.00046580662751125756;0.040787192821454106;0.0;53.69932773333333;86.85215546666666
1.6775205130740498;1.1412320214176706;3.946914562060155;-0.0499643112062812;0.04853218924877186;0.0112164780258998;2.0834116961231146;0.9982020284993238;0.9964072897001648;4.049006134044677;1.9655944379215624;-1.0084633425104517;0.0002394883776862403;0.03059039461609081;-0.0295707147955541;0.000424563332367032;0.040787192821454106;30.0;53.6991079;86.85232816666667
3.023450981763529;1.3476158338024415;4.372751478383739;-0.0846334251045171;0.023920856952398307;-0.0499643112062812;3.3687824570686713;1.329866373957304;1.768544572582348;4.742653602688477;2.659241906565362;-1.0084633425104517;0.0002561243286687855;0.03059039461609081;-0.0295707147955541;0.0005870237911809466;0.048434791475476795;0.0;53.69881766666666;86.85254993333335
4.372751478383739;0.926707497162601;4.7985109188975485;-0.095849903130417;0.018250084985090412;-0.0601611094116447;4.742653602688477;0.9311434476229312;0.8670281200511185;5.144498502048355;1.775716044979684;-1.0003059039461608;0.0003808939610378734;0.03874783318038166;-0.0550627103089629;0.00023472287089434536;0.02906087488528611;0.0;53.69851173333333;86.85273893333334
4.7985109188975485;0.23167584744705927;4.7985109188975485;-0.0601611094116447;0.020905508738223208;-0.0591414295911083;5.144498502048355;0.21258444984693756;0.04519214831672511;5.144498502048355;0.40184489935987866;-0.9727745487916796;0.00047100536219331785;0.042826552462526535;-0.07545630671969;1.984183736980681e-05;0.008667278474559004;0.0;53.698208566666665;86.85288803333333
4.427303156332716;0.35056264493781697;4.7985109188975485;-0.0591414295911083;0.0032778120257599967;-0.0591414295911083;4.823297406741128;0.3030321075029954;0.09182845817770696;5.144498502048355;0.6056935343576493;-0.9656367900479248;0.0003351450958358797;0.034669113898236015;-0.0693382277964719;5.519323320771474e-05;0.014785357397777102;0.0;53.69798790000001;86.85297456666666
4.097799183048542;0.6161600806388269;5.290913986799013;-0.0652595085143265;0.0231626729715518;-0.0224329560517997;4.538804967690706;0.5469435843622399;0.2991472844750146;5.595786062749438;1.056981095058732;-0.9656367900479248;0.001004742122883303;0.05812174977057216;-0.0693382277964719;0.00017710356150167495;0.02549199551340879;0.0;53.69775286666667;86.85307233333333
5.290913986799013;0.8062277292988864;5.6337006397168174;-0.0224329560517997;0.02891291297799066;-0.0101967982053635;5.595786062749438;0.7148012256359844;0.5109407921707054;5.900911493970713;1.362106526280007;-0.9656367900479248;0.0008986879353695815;0.05812174977057216;-0.0693382277964719;0.0002353293899405804;0.02753135515448149;0.0;53.69753363333333;86.8531603
5.6337006397168174;0.8725360302161367;6.944140757006636;-0.0101967982053635;0.016483947728468472;0.0101967982053635;5.900911493970713;0.8198078526573734;0.6720849152786937;7.143493430090705;1.5477073673412667;-0.9819516671765066;0.00045159675271368323;0.041806872641990345;-0.0948302233098807;0.00021765369202162338;0.026511675333945106;30.0;53.69733196666667;86.8532317
6.944140757006636;0.6926106116551417;6.944140757006636;0.0101967982053635;0.010791276888199869;0.0101967982053635;7.143493430090705;0.6602841066646759;0.43597510151396907;7.143493430090705;1.2425819361199917;-0.9819516671765066;0.00015110988809147327;0.02447231569287245;-0.0968695829509534;0.0001583881166463076;0.024472315692872407;0.0;53.69718793333333;86.85328393333333
5.900091169673189;0.5312536740546657;6.944140757006636;-0.0061180789232181;0.01041538591213308;0.0101967982053635;6.13501012796002;0.5125301556548214;0.2626871604555555;7.143493430090705;1.008483302130685;-0.9880697460997246;8.456608416129465e-05;0.01835423676965442;-0.1040073416947078;7.590152635785627e-05;0.017334556949118007;0.0;53.69706446666667;86.8533226
6.592884060423451;0.34644081476902744;6.592884060423451;-0.0091771183848271;0.0021226328127485726;-0.0061180789232181;6.798256663728172;0.3328494406086887;0.11078875011351698;6.798256663728172;0.6632465357681525;-0.9880697460997246;8.560583109770382e-05;0.01835423676965442;-0.1040073416947078;2.5993673410222435e-05;0.010196798205363511;0.0;53.69695263333333;86.8533729
6.256090859710618;0.6956896036962559;6.592884060423451;-0.0101967982053635;0.012079368916023221;-0.0091771183848271;6.417193786883334;0.7645859623253602;0.5845916937849972;6.798256663728172;1.47305566598033;-0.9880697460997246;2.322101491316152e-05;0.009177118384827154;-0.0917711838482716;0.0001382863425423999;0.022432956051799707;0.0;53.696840466666664;86.8534058
5.255351099740105;0.9105358164453592;6.256090859710618;-0.0305903946160905;0.0216806886614541;0.0127459977567043;5.325200997747842;0.9629111233183764;0.9271978314102574;6.417193786883334;1.919771232591713;-0.9952075048434792;7.902076716711248e-05;0.016314877128581706;-0.078515346181299;0.00023532938994058042;0.030590394616090602;0.0;53.69667533333333;86.853454
4.43810329287527;0.4606904610982808;5.255351099740105;0.0127459977567043;0.02220585473680245;0.0127459977567043;4.497422554291621;0.4725066473870079;0.22326253182491024;5.325200997747842;0.8277784434562214;-0.9829713469970428;0.00020379039953620306;0.028551034975018097;-0.0769858264504945;6.611057604000907e-05;0.014785357397777102;0.0;53.69649436666666;86.8534949
4.478234836180778;0.0667187795912734;4.478234836180778;-0.0005098399102681;0.012003815904564155;0.023452635872336;4.516502034642275;0.0741527161685845;0.005498625315178652;4.516502034642275;0.13690871605873767;-0.9829713469970428;0.0002124549573396133;0.028551034975018097;-0.07545630671969;2.3394306069214984e-06;0.0030590394616090005;0.0;53.69628476666666;86.85354983333332
4.347958896782603;0.5320504883785359;5.327702957245388;0.023452635872336;0.03577003286033359;0.023452635872336;4.379593318583537;0.5213003313860386;0.2717540355031937;5.343147731975349;0.9635544133918117;-0.9829713469970428;2.8073167283077365e-05;0.009177118384827154;-0.07545630671969;8.118690661794004e-05;0.016314877128581595;0.0;53.696110266666665;86.85360573333332
5.327702957245388;0.6656851675286295;5.618527032290489;-0.0469052717446721;0.037191531398103876;0.023452635872336;5.343147731975349;0.6556416411537985;0.42986596161484625;5.631610782711717;1.2520174641281798;-0.9829713469970428;0.00212966166249985;0.08412358519424912;-0.07545630671969;0.0002193866035823078;0.029570714795554204;0.0;53.695877333333335;86.85368853333334
5.618527032290489;0.7882811597983752;5.618527032290489;-0.0326297542571632;0.014788287221920687;-0.0173345569491179;5.631610782711717;0.7821978730611249;0.6118335126213477;5.631610782711717;1.4758066599865298;-0.9829713469970428;0.0022246252160252103;0.08412358519424912;-0.0713775874375446;0.0002873167367610322;0.0336494340776996;0.0;53.69566973333334;86.85378813333334
4.131203083087466;0.8183810504293136;5.618527032290489;-0.0173345569491179;0.017374498377528694;-0.0173345569491179;4.155804122725187;0.7991293673317262;0.6386077457320051;5.631610782711717;1.4758066599865298;-0.9788926277148976;0.002351474342267111;0.08820230447639432;-0.0713775874375446;0.0003559400345640304;0.0336494340776996;0.0;53.695479766666665;86.85387976666668
4.2831360371899;0.4317971042157802;4.94339880481779;-0.0520036708473539;0.017493775510631877;-0.0173345569491179;4.362370211457808;0.4596763700524243;0.21130236518457332;5.034912491370677;0.8791083686454897;-0.9788926277148976;0.00012719570855408897;0.022432956051799624;-0.0713775874375446;6.89698801151339e-05;0.015295197308045197;30.0;53.695351499999994;86.8539563
4.94339880481779;0.40665198590577567;5.02453050126598;-0.0387478331803813;0.007376545465554622;-0.0387478331803813;5.034912491370677;0.4234719383602841;0.17932848257861622;5.144455896974347;0.782085685516539;-0.9788926277148976;0.00013447393710895386;0.022432956051799624;-0.0734169470786173;5.8572410751042534e-05;0.013255837666972498;0.0;53.69521393333334;86.8540406
5.02453050126598;1.3229707993725734;5.02453050126598;-0.0397675130009177;0.020316976491456026;-0.0040787192821454;5.144455896974347;1.1449148304816479;1.3108299690568204;5.144455896974347;2.0355518745742884;-0.9850107066381156;0.0002831577490154259;0.03364943407769949;-0.0479249515652085;0.0005004648587248879;0.0387478331803813;0.0;53.69506636666667;86.8541661
2.693589477693712;1.4015991613567444;5.02453050126598;-0.0040787192821454;0.04899063697834712;0.0571020699500356;3.1089040224000586;1.2281075919889688;1.5082482575009437;5.144455896974347;2.2082133346081854;-0.9401447945345162;0.0015516490114344953;0.07851534618129896;-0.0412970327317222;0.0006007137925103294;0.0453757520138676;0.0;53.694928733333334;86.85432713333334
2.5105511516079035;0.24009173725529867;2.986524284954935;0.0571020699500356;0.03218593685098392;0.0571020699500356;2.9362425623661617;0.2322989892321993;0.05396282039830145;3.396109738207242;0.4598671758410804;-0.9401447945345162;0.0034647833744271047;0.1152238197206078;-0.0412970327317222;4.739513118465154e-05;0.013765677577240697;150.0;53.694852233333336;86.85457489999999
2.986524284954935;0.2582500244262073;2.986524284954935;0.0091771183848271;0.08837944087069606;0.0571020699500356;3.396109738207242;0.23173658248128337;0.05370184366010465;3.396109738207242;0.4598671758410804;-0.9401447945345162;0.003333775260439584;0.1152238197206078;-0.0412970327317222;5.103424546208338e-05;0.013765677577240697;150.0;53.694876066666666;86.85491446666667
2.5748529244815845;1.1592442036121333;2.986524284954935;-0.1142041399000713;0.081129185191159;0.0387478331803813;3.116204494139704;0.7762441295827326;0.6025549487116542;3.396109738207242;1.462414204421838;-0.9911287855613338;0.0010511841527095448;0.06423982869379019;-0.0142755174875089;0.0004505570057772597;0.040787192821454;150.0;53.6949764;86.85531346666666
0.8047239316915606;1.1113523742563245;2.5748529244815845;0.0387478331803813;0.0783584854486579;0.0387478331803813;1.933695533785404;0.7205727737339801;0.5192251222466816;3.116204494139704;1.3046476296754643;-0.9911287855613338;0.00015284279965216267;0.024472315692872337;-0.0091771183848271;0.00037257598554658465;0.0356887937187723;150.0;53.69510556666666;86.85568156666666
0.5256171301417125;1.6288809671712146;3.476101721934009;-0.0081574385642908;0.034942946150207994;0.0387478331803813;1.8115568644642397;1.1841173362494888;1.4021338660065847;3.920848161489216;2.1092912970249764;-1.0003059039461608;0.0006130174645911557;0.0484347914754768;-0.0091771183848271;0.0009079590122192079;0.0545528703986948;150.0;53.695228066666665;86.85595766666665
3.476101721934009;1.81793218893401;3.8408629140466224;-0.0295707147955541;0.04400403819998536;-0.0081574385642908;3.920848161489216;1.328422449540408;1.764706204442938;4.265232992112063;2.453676127647823;-0.9370857550729071;0.0031349236588513684;0.11165494034873047;-0.0091771183848271;0.0009828207916406568;0.0545528703986948;150.0;53.69536166666668;86.85617660000001
3.8408629140466224;0.9692124815758174;3.8408629140466224;-0.092790863668808;0.03282038735480989;-0.0295707147955541;4.265232992112063;0.7588576519271996;0.5758649358884628;4.265232992112063;1.4522877726941767;-0.9370857550729071;0.003137523026192407;0.11165494034873047;-0.0346691138982359;0.00027665933066284526;0.029060874885286005;150.0;53.695511;86.85637713333334
2.009746299740718;2.111488410328447;3.8408629140466224;-0.0764759865402263;0.012911471338990593;-0.0672988681553992;2.812945219417886;1.0384201427330375;1.078316392833702;4.265232992112063;2.01187105315315;-0.786173141633527;0.010767965855764559;0.1988375650045886;0.0050983991026817;0.0011773401143271795;0.0683185479759354;150.0;53.6956734;86.85661633333332
-0.3702088401223954;2.3361518899759757;2.009746299740718;-0.0672988681553992;0.03008199489708081;-0.020393596410727;2.253361938958913;0.8501841090393996;0.7228130192631177;3.9236890774631545;1.6703271385042417;-0.786173141633527;0.009909134886290744;0.1988375650045886;0.040787192821454;0.0014247998851925378;0.07545630671968989;150.0;53.695842400000004;86.85688773333334
-2.662281974631292;2.8192173958592104;2.9451176954082707;-0.020393596410727;0.027688266006479962;-0.020393596410727;3.9236890774631545;1.0572361178878915;1.1177482089666597;4.211356779899694;1.9579948409407808;-0.786173141633527;0.00832871954294901;0.182522687876007;0.040787192821454;0.002090237924494327;0.0907515040277352;150.0;53.6960147;86.85716243333333
2.9451176954082707;3.2515937197884126;2.9938531113683373;-0.0693382277964719;0.02796848723995863;-0.020393596410727;4.211356779899694;0.30349429639221404;0.09210878794260506;4.5304071837159325;0.606718106252778;-0.8769246456612624;0.004728769066788549;0.13459773631079852;0.040787192821454;0.002840935212581653;0.0938105434893442;150.0;53.6961761;86.85743476666666
2.9938531113683373;3.6654964822394205;2.9938531113683373;-0.0683185479759355;0.07859476158883699;0.0672988681553992;4.5304071837159325;0.3912693475761918;0.1530917023526988;4.989695553836189;0.7783387739364951;-0.968695829509534;0.001099359094096558;0.06525950851432638;0.061180789232181;0.004234196107369772;0.1142041399000712;150.0;53.69630923333333;86.8576959
-3.379200447112732;3.652187760010763;2.9938531113683373;0.0672988681553992;0.0820594159283205;0.0672988681553992;4.989695553836189;0.2433205921298348;0.05920491055441343;4.989695553836189;0.45928837012025614;-0.9432038339961252;0.002234416166343123;0.09075150402773524;0.061180789232181;0.004162106986445411;0.1142041399000712;150.0;53.69646016666667;86.85806016666668
2.8982109237400664;3.539280748021979;2.8982109237400664;-0.0805547058223717;0.07883252779733027;0.0672988681553992;4.89935455060392;0.04701795999506715;0.0022106885620977353;4.989695553836189;0.09034100323226824;-0.921790557764862;0.0035458836354671248;0.11216478025899845;0.061180789232181;0.0037579920104944325;0.1091057407973895;150.0;53.69661193333334;86.85838259999998
2.5923667776009327;2.083702551087355;2.8982109237400664;-0.0540430304884266;0.01894885947420705;-0.0438462322830631;4.967129101358669;0.1878255537268873;0.03527843863281183;4.967129101358669;0.35387207751780014;-0.8881411236871622;0.0007704524798793664;0.055062710308962926;0.0132558376669725;0.0011354036545586847;0.061180789232180996;150.0;53.6967819;86.85867203333333
-0.8540574070446652;1.8140196362058176;2.5923667776009327;-0.0438462322830631;0.04795748349670572;-0.0438462322830631;4.613257023840869;0.17957711038806326;0.03224793857532666;4.967129101358669;0.35387207751780014;-0.8881411236871622;0.005526514903748376;0.14224533496482106;0.0132558376669725;0.00084670058854911;0.0550627103089629;150.0;53.69690913333333;86.858859
-0.1124878037362057;1.6042515570941562;-0.1124878037362057;-0.1315386968491893;0.04749271193965819;-0.0438462322830631;4.843341254392375;0.779974264694154;0.6083598535851862;6.064478579122396;1.4512215552815269;-0.8881411236871622;0.00623440927628679;0.14224533496482106;0.0571020699500356;0.0008467005885491139;0.0550627103089629;150.0;53.696984533333335;86.85907093333333
-3.1866825017812275;1.8915167417978713;-0.1124878037362057;-0.1193025390027531;0.007376545465555375;-0.1182828591822167;6.064478579122396;0.8762273308607443;0.7677743353473444;6.5424597464185865;1.6991184920262112;-1.0186601407158151;0.001555548062445927;0.07341694707861746;0.0683185479759355;0.0012584403753670979;0.0662791883348628;150.0;53.69697623333334;86.85929303333332
-3.558904919688468;1.239721796821249;-3.1866825017812275;-0.1182828591822167;0.0032778120257611998;-0.113184460079535;6.5424597464185865;1.0160647057939411;1.0323874863601281;8.013969955480942;1.9494913763585462;-1.0186601407158151;0.0036779314963908006;0.12032221882328953;0.1101254206179259;0.0007808499492432166;0.05302335066789031;150.0;53.69688443333333;86.85944016666667
-5.495720523944949;1.0974757663033554;-3.558904919688468;-0.113184460079535;0.02397874174835288;-0.113184460079535;8.013969955480942;0.9179935787595802;0.8427122106438216;8.229072311561255;1.6866125651426689;-0.9432038339961252;0.01044876354628658;0.19577852554297948;0.1101254206179259;0.000437733460228232;0.0418068726419904;150.0;53.6967687;86.8594695
-5.4216941612488165;1.4625772222214757;-2.9262606075000632;-0.1570306923625981;0.022082602047219017;-0.113184460079535;8.229072311561255;0.5515225103825468;0.30417707945866646;8.229072311561255;1.044476719736326;-0.9432038339961252;0.009640880176696804;0.19577852554297948;0.1101254206179259;0.0008432347654277608;0.05710206995003571;150.0;53.69668946666666;86.85939026666665
-2.9262606075000632;1.3286069547052557;-2.9262606075000632;-0.1396961354134801;0.09371258830713684;0.0132558376669725;7.184595591824929;0.5223734579994403;0.27287402962229307;8.229072311561255;1.044476719736326;-0.9432038339961252;0.0018635730923572504;0.08463342510451721;0.0907515040277353;0.00041000687525732433;0.0377281533598451;150.0;53.696664766666665;86.85928876666667
-3.383282845129361;6.787147650400695;8.594248134539777;0.0132558376669725;0.11029523632499194;0.0132558376669725;7.727410037658189;2.2421883342781532;5.027408526373039;11.311030692353519;4.12643510052859;-1.0003059039461608;0.0001902736893629053;0.027531355154481574;0.0591414295911083;0.015003894874694673;0.21515244213317009;150.0;53.6966785;86.8592769
8.594248134539777;7.404525397765795;8.594248134539777;-0.2008769246456612;0.11058395137369124;0.0132558376669725;11.311030692353519;1.8007680067765997;3.242765414230168;11.311030692353519;3.5836206546953298;-1.0003059039461608;0.0016875092777919052;0.07647598654022647;0.0938105434893443;0.018317221778718168;0.2498215560314061;150.0;53.69669463333333;86.85933569999999
-4.936735385939067;7.404525397765795;8.594248134539777;-0.1417354950545528;0.11058395137369124;0.0132558376669725;9.208505873677366;1.8007680067765997;3.242765414230168;11.311030692353519;3.5836206546953298;-1.0003059039461608;0.0016875092777919052;0.07647598654022647;0.0938105434893443;0.018317221778718168;0.2498215560314061;150.0;53.69669463333333;86.85933569999999
1.0479717766224317;1.826958586879426;1.86635184035643;-0.003059039461609;0.024921386465209666;0.0458855919241358;1.1807795425760768;0.3763938547710172;0.1416723339093856;1.91147550782588;0.7306959652498033;-1.0003059039461608;0.000516061062771026;0.040787192821454266;0.0295707147955541;0.001061581622073631;0.0622004690527173;90.0;53.71363223333333;86.84161089999999
-1.626832936638949;1.826958586879426;1.86635184035643;0.0132558376669725;0.024921386465209666;0.0458855919241358;1.7029062115837286;0.3763938547710172;0.1416723339093856;1.91147550782588;0.7306959652498033;-1.0003059039461608;0.000516061062771026;0.040787192821454266;0.0295707147955541;0.001061581622073631;0.0622004690527173;90.0;53.71363223333333;86.84161089999999
1.86635184035643;1.7494844990309437;1.86635184035643;0.0458855919241358;0.06165761414313407;0.0458855919241358;1.91147550782588;0.8146359808039987;0.6636317812204928;1.91147550782588;1.503666468840592;-0.9911287855613338;0.0007073744990702914;0.04996431120628131;0.0295707147955541;0.0009714702209181806;0.0622004690527173;90.0;53.71373886666667;86.841581
0.2939235192620518;0.8186853397344865;1.86635184035643;-0.0734169470786173;0.06264464478564687;0.0458855919241358;0.407809038985288;0.7985747361952548;0.6377216092893208;1.91147550782588;1.503666468840592;-0.9911287855613338;0.00026444230416002967;0.031610074436626556;-0.0050983991026817;0.00020413698184830917;0.027531355154481497;90.0;53.713863;86.84145766666666
0.6847404899434653;0.20219763670087668;0.6847404899434653;-0.0469052717446721;0.08376955723532672;0.0831039053737126;0.6933749780359535;0.16108801972567896;0.025949350099140733;0.6933749780359535;0.2855659390506655;-0.9911287855613338;0.00031296382785911907;0.031610074436626556;-0.0050983991026817;1.3516710173317587e-05;0.0071377587437545;90.0;53.7140249;86.84134649999999
0.399341869405547;1.9498457285971018;0.6847404899434653;0.0831039053737126;0.07349538747583428;0.0831039053737126;0.4214133681012839;1.3287130296397403;1.7654783151344173;2.8467090503724286;2.4252956822711447;-1.020699500356888;2.322101491313637e-05;0.009177118384827265;0.0509839910268175;0.0012334864488932602;0.0632201488732537;90.0;53.71423480000001;86.84129186666667
-2.826134263578321;1.6183562892610448;0.399341869405547;0.0774956663607627;0.03235375137800573;0.0831039053737126;2.8467090503724286;1.2462222766203486;1.5530699627448046;2.8467090503724286;2.4252956822711447;-0.9832262669521772;0.0006107863409567893;0.046650351789538025;0.0509839910268175;0.0008531990069016525;0.0581217497705719;90.0;53.71441586666666;86.84121693333334
-0.9800316247196504;1.0166155476799763;-0.9800316247196504;0.0244723156928724;0.03321924264401787;0.0774956663607627;1.1364011561864635;0.9150486932271057;0.8373141109766338;2.8467090503724286;1.710307894185965;-0.9523809523809524;0.001522211176297358;0.07749566636076277;0.0509839910268175;0.0003620918706044505;0.034159273987967795;90.0;53.714570466666665;86.84103020000002
-1.1652141885743492;1.9696617185827767;-0.9800316247196504;0.0163148771285816;0.10045830184889765;0.0244723156928724;1.4275714924858547;1.9269966966755285;3.713316268998399;4.610103462214522;3.4737023060280587;-0.9523809523809524;0.003660494073811551;0.11675333945141186;0.0846334251045171;0.0014772204599031527;0.0678087080656674;90.0;53.714701633333334;86.84071763333333
-4.480405531827855;1.6705699352571204;-1.1652141885743492;-0.1534618129907209;0.0854257017458149;0.0163148771285816;4.610103462214522;1.596549783779065;2.548971212084979;4.610103462214522;3.1825319697286676;-0.8993576017130621;0.007544490416162042;0.1697766901193022;0.0846334251045171;0.0011232732736339058;0.0652595085143265;90.0;53.71485353333333;86.84043433333333
-2.462891127752104;1.3655027485069413;-1.8775906173622972;-0.0520036708473539;0.07115326956725004;-0.0163148771285816;2.7940457237288503;1.1666757896085076;1.3611323980586345;4.610103462214522;2.176826690820658;-0.8993576017130621;0.00808117312650518;0.1697766901193022;0.0846334251045171;0.0008487800824219167;0.0540430304884266;90.0;53.7150293;86.8402517
-1.8775906173622972;0.8543494750755974;-0.7799867371240728;-0.0163148771285816;0.023702529990973976;-0.0163148771285816;2.433276771393864;0.43827126959637547;0.19208170575361883;2.7940457237288503;0.8722149753030743;-0.8993576017130621;0.0013125072160603526;0.07239726725808093;0.0387478331803813;0.0001694787506346744;0.025491995513408805;90.0;53.71521353333333;86.84016286666667
-0.7799867371240728;1.357590228563003;-0.7799867371240728;-0.061180789232181;0.023899114008697094;-0.0163148771285816;1.921830748425776;1.0723430504748124;1.149919617901626;3.981320950513271;2.059490202087495;-0.9330070357907616;0.00037673497329221764;0.03874783318038144;0.058121749770572;0.0005119020750253874;0.044865912103599505;90.0;53.71539123333333;86.84011016666666
-3.479510178887163;1.5179556445921734;-0.7799867371240728;-0.0530233506678902;0.01246069323260486;-0.0367084735393086;3.981320950513271;1.11417827908316;1.241393237580712;3.981320950513271;2.059490202087495;-0.9447333537269298;0.0001874143852877357;0.027021515244213257;0.058121749770572;0.0006418704420765185;0.044865912103599505;90.0;53.715564666666666;86.84006173333334
-0.9268361971252228;1.309635677788667;-0.9268361971252228;-0.0367084735393086;0.04374335315570553;0.0295707147955541;2.2146533342948707;0.899891471635415;0.809804660722153;3.981320950513271;1.7666676162184003;-0.9447333537269298;0.0013025429745864487;0.06678902824513111;0.058121749770572;0.0005004648587248882;0.0428265524625268;90.0;53.715755933333334;86.8400482
-2.7114334389974224;0.9328899549984498;-0.9268361971252228;0.0295707147955541;0.033151357616006565;0.0295707147955541;3.3956079288427006;0.5966916546237149;0.35604093069758663;3.3956079288427006;1.18095459454783;-0.9447333537269298;0.0012011676482865696;0.06678902824513111;0.0479249515652085;0.0002883564836974428;0.0326297542571633;90.0;53.71597166666667;86.84006766666666
-2.290579955524448;1.7436685735160684;-2.290579955524448;-0.0050983991026817;0.0436243449915375;0.0295707147955541;2.9539005085769765;1.561296698926389;2.4376473820784392;5.851807274291097;2.897906765714121;-0.9941878250229428;0.0002505790116746149;0.031610074436627;0.0989089425920261;0.0010272699731721374;0.059141429591108394;90.0;53.71620066666666;86.84013453333334
-5.499056403634927;2.178709943233626;-2.290579955524448;-0.0571020699500356;0.0390552013912625;-0.0050983991026817;5.851807274291097;1.971612522922697;3.8872559405456024;6.718748989351478;3.7648484807745013;-0.9941878250229428;0.0011336707429980427;0.0672988681553992;0.1203222188232894;0.0017408829538608766;0.0805547058223717;90.0;53.71643306666667;86.84025600000001
-6.44816700253269;2.0135562743568802;-2.5842727685272733;-0.0815743856429081;0.0676404694137462;0.0458855919241358;6.718748989351478;1.971837404402735;3.8881427494017147;6.718748989351478;3.7652477551062042;-1.015601101254206;0.0005805253728284377;0.04588559192413588;0.1203222188232894;0.0014684692565217071;0.0744366268991536;90.0;53.716663933333336;86.84043566666666
-2.5842727685272733;3.703012247719272;0.9554928382514468;0.0458855919241358;0.07044836452476717;0.0458855919241358;2.9535012342452736;2.7701147091961884;7.673535502105084;6.718748989351478;5.402252908191985;-1.015601101254206;0.0005271516967594449;0.04588559192413588;0.1203222188232894;0.004747831093955829;0.1376567757724073;90.0;53.7169534;86.84072513333335
0.9554928382514468;3.6041264296051527;4.62359923570968;-0.06984806770674;0.06446266576039791;0.0458855919241358;1.3164960811594935;1.6687795176334161;2.7848250784728172;4.653854713930365;3.337358632770872;-0.9941878250229428;0.0004585283989564288;0.04282655246252687;0.0458855919241358;0.003996787223556366;0.1264402977465075;90.0;53.717221200000004;86.84101
4.62359923570968;1.942000793020704;4.62359923570968;-0.061180789232181;0.017186470711527797;-0.0367084735393086;4.653854713930365;1.7496566981040476;3.061298561220358;4.653854713930365;3.337358632770872;-0.9941878250229428;0.0004599147282049749;0.04282655246252687;-0.0173345569491179;0.0011378297307436326;0.0632201488732538;90.0;53.7174649;86.8412793
3.895370540676176;0.6004842730090494;4.62359923570968;-0.0367084735393086;0.03214957387538161;0.0025491995513408;3.8964512618491227;0.6115656897822881;0.37401259291888583;4.653854713930365;1.2104425431454438;-0.986030386458652;0.000269294456529969;0.03161007443662689;-0.0591414295911083;0.00011471874531712983;0.021413276231263406;0.0;53.7176244;86.84145586666666
3.432438146955769;0.40686081277164055;4.243453618719197;0.0025491995513408;0.03925767309064948;0.0418068726419904;3.4434121707849217;0.41164745066469377;0.16945362363874147;4.265269903729853;0.821857732944931;-0.986030386458652;0.0002498858470503343;0.03161007443662689;-0.0591414295911083;6.065190462385973e-05;0.015295197308045308;0.0;53.71784533333334;86.8416256
4.243453618719197;0.42870295369288663;4.243453618719197;0.0418068726419904;0.021121980998417597;0.0418068726419904;4.265269903729853;0.43456621906504755;0.18884779875249091;4.265269903729853;0.821857732944931;-0.986030386458652;7.902076716711301e-05;0.016314877128581595;-0.0591414295911083;6.550405699376866e-05;0.015295197308045308;30.0;53.718067399999995;86.84175379999999
4.078879682739671;0.8155164570343589;5.566473677602498;0.0356887937187723;0.0260833486869238;0.0418068726419904;4.099199764601165;0.8189823650720629;0.6707321142990297;5.593444200122382;1.4942444355212166;-1.0003059039461608;4.158987745662417e-06;0.0040787192821454266;-0.0713775874375446;0.00021037546346676063;0.026511675333945092;0.0;53.71829006666667;86.84184846666666
5.566473677602498;0.8283479170384676;5.566473677602498;-0.0061180789232181;0.021798264837801465;0.0356887937187723;5.593444200122382;0.8387866981326072;0.7035631249642016;5.593444200122382;1.4942444355212166;-0.9931681452024064;3.2232155028707115e-05;0.011216478025899868;-0.0713775874375446;0.0002103754634667602;0.026511675333945092;0.0;53.7184459;86.8419019
5.454166105911516;0.39919318979607304;5.566473677602498;0.0040787192821454;0.015020821721888566;0.023452635872336;5.506711677979437;0.37615832877109756;0.14149508830386512;5.593444200122382;0.6905473540536553;-0.9901091057407974;5.6492916878251505e-05;0.014275517487508882;-0.0836137452839808;5.649291687822149e-05;0.014275517487508896;0.0;53.71859333333333;86.84194693333332
4.825771964038003;0.7702347954591645;6.358010710063255;0.023452635872336;0.010415385912133748;0.023452635872336;4.902896846068726;0.7551169677842527;0.5702016350356842;6.403620612296511;1.500723766227785;-0.9901091057407974;7.520836173361548e-05;0.016314877128581706;-0.0836137452839808;0.00020690964034539603;0.028551034975017806;0.0;53.7187404;86.84200866666667
6.358010710063255;0.7804596004923828;6.358010710063255;0.020393596410727;0.00780460385656832;0.023452635872336;6.403620612296511;0.7646944198910853;0.5847575558125635;6.403620612296511;1.500723766227785;-0.9901091057407974;6.96630447394335e-05;0.016314877128581706;-0.0836137452839808;0.00020933571653035046;0.028551034975017806;0.0;53.718878133333334;86.8420696
5.8498349023637575;0.7748704431441269;6.358010710063255;0.0086672784745589;0.04585442445558755;0.020393596410727;5.908491565132436;0.74161677211196;0.5499954366777629;6.403620612296511;1.4583996610074683;-0.9952075048434792;3.361848427725248e-05;0.011216478025899868;-0.0846334251045171;0.0001937395124842155;0.027531355154481504;0.0;53.7190376;86.84213519999999
4.836014835449506;0.5136732534179492;5.8498349023637575;-0.0642398286937901;0.03826291065825971;0.0086672784745589;4.945220951289043;0.48197691949593396;0.23230175092679003;5.908491565132436;0.9632706138433926;-0.9952075048434792;2.426076184980742e-06;0.0030590394616090144;-0.0846334251045171;7.728785560640225e-05;0.017334556949117993;0.0;53.7191966;86.84218326666667
5.199024598675949;0.1916326017742998;5.199024598675949;-0.0479249515652085;0.008346439045449608;-0.0479249515652085;5.39543101104103;0.24181685989725496;0.058475393730568634;5.39543101104103;0.4502100597519867;-0.9962271846640156;2.426076184980742e-06;0.0030590394616087924;-0.0846334251045171;1.0744051676223546e-05;0.006118078923218195;0.0;53.71935813333332;86.84225093333333
5.123995517318502;0.5397798643197871;5.199024598675949;-0.0530233506678902;0.0072342193174238295;-0.0387478331803813;5.323327150328113;0.5032707188847677;0.2532814164867909;5.39543101104103;0.9055029205871161;-0.99214846538187;1.2823545549071147e-05;0.007137758743754441;-0.0734169470786173;9.461697121321952e-05;0.017334556949117993;0.0;53.7194963;86.84235496666668
4.228844585553708;0.8172897412728928;5.860867673997034;-0.0387478331803813;0.010042681555823486;-0.0387478331803813;4.489928090453914;0.7795354706473641;0.6076755499974074;6.0477284727449145;1.557800382291001;-0.971754868971143;0.00020413698184833167;0.02753135515448135;-0.0734169470786173;0.00017883647306235178;0.026511675333945092;0.0;53.71962156666666;86.84249729999999
5.860867673997034;0.9868248170892889;6.006024761161608;-0.058121749770572;0.009903675799145814;-0.0387478331803813;6.0477284727449145;0.9249591768092128;0.8555494787635766;6.132883785019891;1.6429556945659778;-0.971754868971143;0.00018195571387160606;0.02549199551340875;-0.0734169470786173;0.0002880099013853022;0.0316100744366269;0.0;53.7197314;86.8426754
6.006024761161608;0.770208699223698;7.2615506510159555;-0.0448659121035994;0.031034694221578993;0.0010196798205363;6.132883785019891;0.7071062708668493;0.4999992782992221;7.312827811508586;1.2650993387636715;-0.971754868971143;0.00024572685930469395;0.028551034975017764;-0.0999286224125624;0.00021453445121239682;0.02753135515448149;0.0;53.7198258;86.84285513333333
7.2615506510159555;0.7687006905855375;7.402190796952669;0.0010196798205363;0.02336379981113399;0.0010196798205363;7.312827811508586;0.7117600289164927;0.5066023387632065;7.412497797460074;1.2796140124401827;-0.9972468644845518;3.361848427724938e-05;0.011216478025899868;-0.1050270215152442;0.00019867831043215935;0.026001835423676983;0.0;53.71990876666666;86.84302343333333
7.402190796952669;0.1549661587700069;7.571054321049434;-0.0142755174875089;0.008304810661004287;0.0010196798205363;7.412497797460074;0.13033676698824212;0.016987672828947323;7.571259158508408;0.2584313469998216;-0.9972468644845518;3.361848427724938e-05;0.011216478025899868;-0.1274599775670439;6.845000664690987e-06;0.005098399102681811;0.0;53.71998576666667;86.84316869999999
7.571054321049434;0.39936281556252834;8.162703773082873;-0.0122361578464362;0.01240494041051935;0.0081574385642908;7.571259158508408;0.39895772720769557;0.15916726809873005;8.169077065530557;0.7565792680704826;-0.9952075048434792;5.094759988406709e-05;0.01325583766697247;-0.1310288569389212;4.0636776097984715e-05;0.011726317936168018;0.0;53.72005586666666;86.84329000000001
8.162703773082873;0.5447466293279747;8.162703773082873;0.0081574385642908;0.012079368916023701;0.0081574385642908;8.169077065530557;0.5260290321292271;0.2767065426428115;8.169077065530557;1.048628861517492;-0.9952075048434792;6.896988011515801e-05;0.015295197308045294;-0.1254206179259712;7.590152635785851e-05;0.017334556949118007;0.0;53.72011863333333;86.84342103333334
7.074597616686764;0.5484323207547472;8.162703773082873;-0.0132558376669725;0.01071068369979844;0.0081574385642908;7.120448204013065;0.5250248352040577;0.27565107758104795;8.169077065530557;1.048628861517492;-0.9952075048434792;6.273139849670332e-05;0.015295197308045294;-0.1254206179259712;7.728785560640396e-05;0.017334556949118007;0.0;53.72019456666666;86.84359083333334
7.49884762457766;0.3810496321488747;7.49884762457766;-0.003059039461609;0.02813528035970879;0.0397675130009177;7.5974724049403335;0.32587222114788283;0.10619270451585465;7.5974724049403335;0.6231080538287337;-0.9992862241256244;3.847063664715967e-05;0.01121647802590009;-0.1182828591822167;4.4015953641314724e-05;0.013255837666972609;0.0;53.720262033333334;86.84376923333333
6.738447676296933;0.40320514942266084;7.49884762457766;0.0397675130009177;0.027023118466810592;0.0469052717446721;6.9743643511116;0.31262743878913973;0.09773591548385732;7.5974724049403335;0.6231080538287337;-0.9952075048434792;7.278228554885343e-06;0.005098399102681617;-0.1182828591822167;5.094759988404185e-05;0.013255837666972609;30.0;53.72032813333334;86.84393773333333
6.886124282678493;0.9857317946489946;8.514826794825643;0.0469052717446721;0.03345316555855762;0.1009483022330988;7.241085227435489;1.0128979044366364;1.0259621648121295;8.846842805693399;1.872478454581799;-0.968695829509534;0.0002880099013853253;0.03161007443662678;-0.1182828591822167;0.00023532938994057895;0.02753135515448149;30.0;53.720379533333336;86.84406593333334
8.514826794825643;0.8201529512728937;8.514826794825643;0.1009483022330988;0.046605057130728766;0.1396961354134801;8.846842805693399;0.8028790643111323;0.6446147919091193;8.846842805693399;1.6057575782579097;-0.968695829509534;0.00017883647306237614;0.02651167533394516;-0.1203222188232894;0.00016324026901621842;0.02549199551340879;30.0;53.72044246666667;86.84418006666665
7.531808157082931;0.7445074083539641;8.514826794825643;0.1396961354134801;0.027645987843422724;0.1396961354134801;8.045115375679279;0.5524515241239292;0.30520268650685234;8.846842805693399;1.0592958720990113;-0.968695829509534;0.00010120203514383383;0.01835423676965442;-0.1226164984194962;0.00013692167468836418;0.02319771591720199;30.0;53.72051183333334;86.8442665
7.05474656390412;1.6632865096417806;7.531808157082931;0.0861629448353216;0.037146074223164315;0.1396961354134801;7.787546933594387;1.3837624119303114;1.9147984126711926;8.045115375679279;2.5151285195972513;-0.9850107066381156;2.9112914219473052e-05;0.010196798205363566;-0.0774956663607627;0.0008393573758107067;0.05404303048842661;30.0;53.7205925;86.84431303333332
4.4421591208015405;1.498054741388458;7.05474656390412;0.0683185479759355;0.03857638918737003;0.0861629448353216;5.529986856082028;1.2758846307670473;1.6278815910275648;7.787546933594387;2.25756007751236;-0.9870500662791885;0.000269294456529961;0.03161007443662667;-0.0774956663607627;0.0007234255924010978;0.0479249515652085;30.0;53.7206849;86.84426036666667
7.018608015430674;1.9004419253231974;8.150398414062657;0.0122361578464362;0.036428885148602534;0.0683185479759355;7.6889181679041885;1.5899587494300211;2.527968824889077;8.631374411521522;3.1013875554394943;-0.9952075048434792;0.0001375931779181533;0.023452635872335925;-0.0774956663607627;0.00118557144424041;0.06678902824513099;30.0;53.720749399999995;86.84412859999999
8.150398414062657;0.6076673540341926;8.150398414062657;0.0;0.0067893628209230285;0.0122361578464362;8.631374411521522;0.49260855420182514;0.2426631876728125;8.631374411521522;0.9424562436173334;-1.0074436626899157;3.153899040443317e-05;0.011216478025899423;-0.1254206179259712;0.00010475450384320829;0.018864076679922487;30.0;53.720769733333334;86.84393560000001
7.967995991275933;0.7898017714109393;8.150398414062657;0.0112164780258998;0.036637594010852766;0.0683185479759355;8.408786058592339;0.819726450617805;0.6719514538424647;8.631374411521522;1.5179551805386282;-0.9697155093300704;0.0005472534708633171;0.042826552462526646;-0.1142041399000713;0.00027821895106745125;0.030080554705822382;30.0;53.720728699999995;86.84371536666667
6.700371411225536;1.5372925043607215;7.967995991275933;0.0683185479759355;0.028936877269695425;0.0683185479759355;7.113419230982894;1.5422436612308628;2.378515510606776;8.408786058592339;3.0719493064549273;-0.9697155093300704;0.00047100536219331433;0.042826552462526646;-0.0846334251045171;0.0008155081804568263;0.057102069950035694;30.0;53.720673833333336;86.84350690000001
4.908353807187662;1.0898182374905816;6.700371411225536;0.0316100744366268;0.03091195716797012;0.0683185479759355;5.336836752137412;1.0960293417803488;1.2012803180434648;7.113419230982894;2.000342036834809;-0.9697155093300704;0.00030187319387077894;0.034669113898236015;-0.0831039053737126;0.00030733186528690516;0.03110023452635871;30.0;53.720611;86.84328193333333
4.729831989626568;0.31782236634052324;5.347421054130364;0.0068828387886203;0.024092745560538652;0.0550627103089629;5.113077194148085;0.24540555298669134;0.060223885436703775;5.603269544261417;0.4901923501133325;-0.9788926277148976;0.00017710356150169433;0.02549199551340886;-0.0831039053737126;2.1401457774417752e-05;0.008667278474559004;30.0;53.720555866666665;86.84306466666665
5.347421054130364;0.47172853055095054;5.347421054130364;0.0550627103089629;0.02640729583681067;0.0550627103089629;5.603269544261417;0.4976345803876339;0.2476401755975765;5.603269544261417;0.9952322438538541;-0.9788926277148976;0.00016462659826478615;0.02549199551340886;-0.0764759865402263;5.883234748514344e-05;0.015295197308045294;30.0;53.72049646666667;86.84280046666667
4.420952473401989;0.9578273613162714;5.347421054130364;0.0122361578464362;0.023636638660431156;0.0550627103089629;4.608037300407563;1.0053283652024734;1.0106851218806776;5.603269544261417;2.010623045651089;-0.9788926277148976;0.0001321345065019971;0.022942795962067497;-0.0601611094116447;0.00024988584705030537;0.031610074436626896;0.0;53.72042666666667;86.84244906666667
3.432104900044062;0.7517830717389977;4.420952473401989;0.0509839910268175;0.02785673701052009;0.0662791883348628;3.5926464986103284;0.8210532267924036;0.6741284012262181;4.608037300407563;1.6253363733928468;-0.989089425920261;9.695640182016694e-05;0.01937391659019072;-0.0520036708473539;0.00015526887583708153;0.024472315692872407;0.0;53.720344399999995;86.84205960000001
2.9456266944943774;0.243677525279409;3.432104900044062;0.0662791883348628;0.050912563404996045;0.0662791883348628;2.9827009270147165;0.30781865051092555;0.09475232160236732;3.5926464986103284;0.6099455715956119;-0.9982665443050882;2.6773483612558138e-05;0.010196798205363455;-0.0520036708473539;1.6635950982542286e-05;0.008157438564290805;0.0;53.720241533333336;86.84167513333334
3.214172429262064;0.3270538090150714;3.214172429262064;-0.0285510349750178;0.08754165545830682;0.0662791883348628;3.2153427749276764;0.3201486065182454;0.10249513025557432;3.2153427749276764;0.6329384988767335;-0.9982665443050882;0.00010926007390101139;0.020903436320995006;-0.0458855919241357;2.6340255722360498e-05;0.010196798205363601;0.0;53.72008383333333;86.8413041
