lat;lon;vel;acc_X;acc_Y;acc_Z;fb_tilt;tilt;hole;acc
53.727136;86.848928;7.0;-0.595875246173184;-1.4621843422342669;-0.0560823901294993;0.005812174977057216;-0.0418068726419904;1;1.5799353132833145
53.7270049;86.8488737;12.0;-2.2330628210234478;-1.749750308778776;-0.1111451004384623;0.016008973182420783;-0.0132558376669725;1;2.8391105894381954
53.726848;86.8487936;12.0;0.4439244071712132;-1.9841240919991674;-0.0418068726419904;0.069032323850311;-0.0560823901294993;1;2.0336088872578073
53.7267127;86.8487863;15.0;-4.424104446850502;-2.169551167740427;-0.0851432650147853;-0.0630162129091465;0.026511675333945;1;4.928174286859548
53.7265223;86.8487239;14.0;0.12789646083581419;-2.3102770118475444;-0.0285510349750178;0.16080350769858265;-0.0458855919241358;1;2.313990608832216
53.726322;86.8486772;17.0;-1.7273132811174323;-2.4105471001655046;-0.1040073416947078;-0.004384623228306239;-0.0224329560517997;1;2.9673499996406543
53.7258981;86.8484581;18.0;-8.21479109613622;-2.474606908539295;-0.0448659121035994;-0.04925053533190571;0.095849903130417;1;8.579538743721496
53.7257205;86.8483829;16.0;-2.3928482182155437;-2.506701912813903;-0.0805547058223717;-0.05536861425512396;-0.0112164780258998;1;3.466376513847322
53.7255698;86.848309;14.0;1.5250201536499306;-2.5110775888343158;-0.0627103089629856;0.009890894259202643;-0.078515346181299;1;2.938559121242016
53.7254232;86.8482904;15.0;0.7627858694146039;-2.4919794124455183;-0.1111451004384623;0.013969613541347958;-0.0652595085143265;1;2.6084778910280955
53.7250717;86.8481949;18.0;0.695965744189964;-2.4536528594924993;-0.07545630671969;-0.007443662689915698;-0.0652595085143265;1;2.55156311429002
53.7248729;86.8481497;17.0;0.78744827154489;-2.4003434058202453;-0.0907515040277353;-0.012542061792597092;-0.0672988681553992;0;2.5278368384266945
53.724738;86.8481172;14.0;1.118170972652103;-2.3362965272737437;-0.0917711838482716;-0.0013255837666972248;-0.0723972672580809;0;2.59171945580883
53.7245956;86.848026;19.0;-0.011843555177103227;-2.265757699698063;0.0020393596410727;0.003772815335984392;-0.0520036708473539;1;2.2657895715463154
53.7243432;86.8479784;22.0;-0.3403409490591356;-2.3036215814042764;-0.0224329560517997;-0.009483022330988078;-0.0469052717446721;1;2.328735190921294
53.7240135;86.8478791;19.0;0.3026125795663619;-2.490128412554773;-0.1519322932599164;-0.013561741613133504;-0.0591414295911083;1;2.513045424591362
53.7238686;86.8477854;17.0;1.3246584493532438;-2.3611950536421826;-0.1565208524523299;-0.0059141429591109684;-0.0769858264504945;1;2.7119109251669116
53.7237403;86.8475547;14.0;2.850861588218784;-2.31751606366646;-0.1233812582848985;-0.007443662689915698;-0.1040073416947078;1;3.6760733718778487
53.7236276;86.8472884;13.0;3.861846930509093;-2.162015059826273;-0.0723972672580809;0.002753135515448202;-0.1203222188232894;1;4.426444645299944
53.7235526;86.8470598;11.0;5.1656934907789225;-2.187162914424831;-0.0591414295911083;0.02824513102885695;-0.1396961354134801;1;5.6099526347024655
53.7234975;86.8468511;9.0;6.036453457958132;-1.941204771501447;-0.0091771183848271;0.019068012644029797;-0.1560110125420618;0;6.340909282941723
53.7234594;86.8467106;11.0;4.488081379282779;-1.8775841832746019;-0.040787192821454;0.00785153461813004;-0.130519017028653;0;4.865168078026289
53.7234183;86.8464903;14.0;2.8272607682003335;-1.8180085331474425;-0.058121749770572;-0.007443662689915698;-0.1029876618741715;0;3.3618353046807705
53.7233863;86.8462023;18.0;2.7310617163058817;-1.9705080739520708;-0.0305903946160905;-0.0003059039461608126;-0.1004384623228306;0;3.367868159537231
53.7233762;86.845885;17.0;1.1680036998447925;-1.990382029314286;-0.0601611094116447;0.036402569593147804;-0.0703579076170082;0;2.3085650574662218
53.723342;86.845518;23.0;-1.4217250675602309;-2.02952391089316;-0.1315386968491893;-0.027837259100642386;-0.0285510349750178;1;2.4814455265802216
53.7232877;86.8449773;28.0;0.0020963262948519024;-1.9793190876846358;-0.0948302233098807;0.012949933720811546;-0.0520036708473539;1;1.9815905774679279
53.7233042;86.8441746;20.0;1.6288087184571003;-1.4476110153932562;-0.0387478331803813;0.005812174977057216;-0.0805547058223717;1;2.179471699239504
53.7233446;86.8438822;18.0;2.315345392592353;-1.1133092384120618;-0.0418068726419904;-0.007443662689915698;-0.0938105434893443;1;2.5694414883262833
53.7234383;86.8436687;11.0;1.8236852350028894;-1.3583664129379551;-0.0703579076170082;-0.012542061792597092;-0.0856531049250535;1;2.2750686546409353
53.7234831;86.8435087;9.0;0.6061121560263878;-1.5634572609509743;-0.07545630671969;-0.0003059039461608126;-0.0632201488732537;1;1.678530371106539
53.7235199;86.8433919;6.0;1.8528509312581383;-1.7536056335590202;-0.0571020699500356;0.004792495156520804;-0.0846334251045171;1;2.5517542863502083
53.7235584;86.8432768;10.0;1.8069053550268368;-1.720962434274341;-0.0652595085143265;0.00785153461813004;-0.0836137452839808;1;2.4961725632775584
53.7236146;86.8431538;11.0;2.8068445363309182;-1.560568988093737;-0.0938105434893443;0.0017334556949117896;-0.1019679820536351;0;3.21287289443582
53.7237031;86.8430375;11.0;1.6429152521048138;-1.302233512385019;-0.0703579076170082;-0.014581421433669917;-0.0825940654634444;0;2.097601697544482
53.7238571;86.8429355;12.0;4.0307963627561385;-1.0701210492775446;-0.0499643112062812;-0.007443662689915698;-0.1244009381054349;0;4.17072833094045
53.7240445;86.8428925;13.0;4.174365030966819;-0.8430160826228601;-0.0254919955134087;0.02824513102885695;-0.1223615784643621;0;4.25871452073917
53.724186;86.8428804;14.0;4.116025751286684;-0.5790643575102874;-0.023452635872336;-0.012542061792597092;-0.1264402977465075;0;4.156625258731328
53.724335;86.842927;15.0;3.3570393126119615;-0.2862488362372848;-0.0224329560517997;-0.052309574793514946;-0.1172631793616804;1;3.369295858215276
53.7244784;86.8429936;14.0;3.0074025093369885;-0.3267075032906348;-0.0509839910268175;-0.0064239828693790635;-0.1060467013357805;1;3.025525906881949
53.7246132;86.8431028;15.0;1.7274160292565854;-0.33786919524222236;-0.1070663811563169;-0.005404303048842873;-0.0836137452839808;1;1.7634015258018025
53.7247671;86.8432055;18.0;2.972704027560348;-0.22215150947967288;-0.0525135107576221;0.017028653002957195;-0.1029876618741715;0;2.981455717841488
53.7249456;86.8433328;19.0;2.38403052081404;-0.022033267334868434;0.0101967982053635;0.015499133272152577;-0.092790863668808;0;2.384154140095802
53.7251479;86.8434583;21.0;1.202811940302631;-0.10169833020717522;-0.0193739165901906;0.01498929336188437;-0.0723972672580809;0;1.207259070268495
53.7253785;86.8435353;23.0;0.8140232563269518;-0.04964675922284156;-0.0050983991026817;0.0211073722851024;-0.0652595085143265;0;0.815551749563371
53.7256084;86.8436628;26.0;1.9313215442991902;0.05229278225368961;-0.0275313551544814;0.031304170490465966;-0.0836137452839808;0;1.9322255091129201
53.7259153;86.8438673;25.0;-0.5463188627825115;0.006255354153387183;-0.0622004690527174;-0.045171816049760505;-0.0448659121035994;0;0.5498839219671176
53.7262004;86.84405;23.0;1.8155782037371146;-0.13947867345078802;-0.0305903946160905;0.020087692464565987;-0.0825940654634444;0;1.8211848578537126
53.72642;86.8441672;21.0;2.5228945039913215;-0.22073357265829685;-0.0387478331803813;0.006831854797593406;-0.0961048230855511;1;2.532828731466912
53.7266807;86.8443511;22.0;0.930322071693352;-0.27935074118138603;-0.0520036708473539;-0.022738859997960326;-0.0703579076170082;0;0.9727488758461765
53.7269735;86.8445415;26.0;0.4959827760159814;-0.1609022171058001;-0.0275313551544814;0.03232385031100238;-0.0591414295911083;0;0.5221555449200204
53.7272978;86.8447378;28.0;-0.017895826012884974;-0.3572533545441021;-0.0672988681553992;-0.015601101254206107;-0.0530233506678902;0;0.3639771388105236
53.7275504;86.8449136;29.0;0.3315221598856839;-0.37477663238589987;-0.0448659121035994;0.020087692464565987;-0.0571020699500356;0;0.5023717913524532
53.727841;86.8451274;28.0;0.8332677467784655;-0.3589372986982946;-0.0458855919241358;-0.003364943407770049;-0.0672988681553992;0;0.9084473621318507
53.7281246;86.8453342;27.0;1.2797450832670192;-0.6523295341256219;-0.0346691138982359;-0.03497501784439683;-0.0774956663607627;0;1.4368309736002873
53.7283666;86.8454738;25.0;0.9064450908195782;-0.7620841743436331;-0.061180789232181;-0.013561741613133504;-0.0693382277964719;0;1.1858153652348258
53.7285842;86.8456658;22.0;0.2738144851897446;-0.5594048363998168;0.0020393596410727;0.0017334556949117896;-0.0571020699500356;0;0.6228260610114
53.7287865;86.8458169;21.0;0.886127561911346;-0.32151421229001187;-0.0469052717446721;0.010400734169470849;-0.0672988681553992;0;0.943818599732414
53.7289818;86.845961;21.0;-1.7879760771714328;0.06961256955259687;-0.0571020699500356;-0.01050270215152449;-0.0214132762312633;0;1.7902416062558817
53.7291784;86.8460552;14.0;-1.5797015614842684;0.3762114882297227;-0.0254919955134087;-0.027837259100642386;-0.0254919955134087;0;1.624081878806335
53.729337;86.8461882;5.0;2.893394575566731;0.6641391619420789;-0.0305903946160905;0.002753135515448202;-0.1029876618741715;0;2.968795844881705
53.729392;86.8462176;10.0;4.355605769302245;0.8290085093613011;-0.040787192821454;-0.002345263587233637;-0.1294993372081166;0;4.433984700162
53.7295089;86.8463089;13.0;2.6305167561807874;0.9680922421050189;-0.0346691138982359;0.018048332823493385;-0.0968695829509534;0;2.8032165348453377
53.7296694;86.8463926;13.0;3.272081935881382;1.2798515609092744;-0.0734169470786173;0.0007137758743755995;-0.1101254206179259;0;3.5142467558783497
53.7298071;86.8465559;12.0;3.328158610705513;1.592863283827066;0.0418068726419904;0.00785153461813004;-0.1101254206179259;0;3.6899323833341033
53.7299149;86.8466637;11.0;5.8132013279384545;1.788115961891794;0.0183542367696543;0.007086774752727565;-0.153971652900989;0;6.082023121488853
53.7300563;86.8467539;10.0;6.548416858357095;2.0914516632132605;-0.0061180789232181;0.011930253900275356;-0.1662078107474253;0;6.874297843508284
53.7301757;86.8468989;10.0;5.865780592576828;2.208695000779753;0.0356887937187723;0.020087692464565987;-0.1529519730804527;0;6.2679334119562515
53.7302621;86.8470109;12.0;4.120144677929047;2.410612301010046;0.0367084735393086;0.012949933720811546;-0.1233812582848985;0;4.773676920873216
53.7303448;86.8471704;13.0;4.944905846722455;2.4076227111394637;0.0254919955134087;0.013969613541347958;-0.1376567757724074;0;5.49994461735568
53.7304264;86.8473544;12.0;5.013608840229345;2.5636501542620422;0.0071377587437544;0.01498929336188437;-0.1386764555929438;0;5.631041348087716
53.730501;86.8475314;12.0;5.1042392542130095;2.418925056270675;-0.0142755174875089;0.019068012644029797;-0.1396961354134801;0;5.648421069865685
53.7305491;86.8477075;11.0;4.7493134943209405;2.390150563537292;-0.003059039461609;0.010910574079738833;-0.1345977363107984;0;5.316841895471319
53.7305854;86.847923;13.0;3.6245519727509796;2.395568450630874;-0.0346691138982359;-0.0003059039461608126;-0.116243499541144;0;4.344804616123666
53.7306506;86.8482698;20.0;0.4995077250102846;2.2687723525203807;0.0316100744366268;-0.016620781074742297;-0.0622004690527174;0;2.323324159843327
53.7307516;86.8486268;23.0;0.7021144107193238;2.123617841716974;0.0479249515652085;-0.007443662689915698;-0.0652595085143265;0;2.2371889022567877
53.7309046;86.8489334;21.0;3.32629566978044;1.9709142116051832;-0.0163148771285816;0.016008973182420783;-0.1091057407973896;0;3.8663952058116235
53.7310768;86.8491568;17.0;2.8679636263347;1.64476660073292;-0.0010196798205363;0.00785153461813004;-0.1019679820536351;0;3.30612667219699
53.7312347;86.8492891;14.0;4.547533541517136;1.68413411398729;-0.0112164780258998;0.01498929336188437;-0.130519017028653;0;4.849380871255469
53.7313639;86.8493671;11.0;4.892209633402296;1.5793197020193994;-0.0469052717446721;0.0007137758743755995;-0.1386764555929438;0;5.141027710765457
53.7314837;86.8493845;11.0;5.873361387546828;1.362149218219134;-0.0061180789232181;0.0007137758743755995;-0.1560110125420618;0;6.029250526583773
53.7315962;86.8493946;11.0;4.800465689604527;1.3920808173756265;-0.0336494340776996;0.018048332823493385;-0.1345977363107984;0;4.9983489397589285
53.7317123;86.8493571;11.0;3.7951308321511323;1.4661776005726321;-0.0152951973080452;0.016008973182420783;-0.1172631793616804;0;4.068529062526869
53.7318395;86.8493563;13.0;3.020956205800955;1.4965319682666665;-0.0112164780258998;0.013969613541347958;-0.1040073416947078;0;3.3713365508045485
53.7319802;86.8492922;15.0;2.9321741419190763;1.5641334956318873;0.0361986336290404;-0.0003059039461608126;-0.1040073416947078;0;3.323472450882226
53.7322964;86.8491988;15.0;2.039681322485788;1.5350765911336504;-0.020393596410727;0.005812174977057216;-0.0876924645661262;0;2.5528760127978103
53.7324419;86.8491139;15.0;1.9083242968807408;1.4563087802717158;-0.0173345569491179;0.002753135515448202;-0.0856531049250535;0;2.400591046477198
53.7325888;86.8490304;15.0;3.198079912972201;1.2617590708102437;0.0101967982053635;0.004792495156520804;-0.1080860609768532;0;3.438001608088898
53.7327317;86.8489429;13.0;4.927986293412617;1.2684043868481443;-0.003059039461609;0.00785153461813004;-0.1381666156826756;0;5.088605698456176
53.732877;86.8488066;11.0;4.654142745868822;1.4691275968338247;-0.0101967982053635;0.009890894259202643;-0.1330682165799938;0;4.880520932174735
53.7329805;86.8486285;11.0;4.763840234617953;1.417688055314272;-0.0183542367696543;0.012949933720811546;-0.1345977363107984;0;4.970347078540189
53.7330491;86.8484411;11.0;4.309278084893375;1.4440040743087081;-0.0326297542571632;0.006831854797593628;-0.1274599775670439;0;4.544897147397876
53.7331083;86.8482443;12.0;3.295106383237095;1.398949796403367;-0.0061180789232181;0.0017334556949117896;-0.1101254206179259;0;3.579779887171358
53.7331483;86.8480283;14.0;3.045906698446564;1.1744532678537511;0.0091771183848271;0.018048332823493385;-0.1040073416947078;0;3.264501847681488
53.7331696;86.8477936;14.0;3.5981232079752994;1.092331391133193;-0.020393596410727;-0.013561741613133504;-0.1172631793616804;0;3.7603316857160354
53.733182;86.84755;12.0;3.914410882487208;0.8497557020074162;-0.0244723156928724;-0.0003059039461608126;-0.1213418986438258;0;4.005658023878694
53.7331841;86.8473473;12.0;5.129474446709224;0.5854291642769156;-0.0122361578464362;0.02212705210563881;-0.1396961354134801;0;5.162788503259427
53.7331762;86.8471346;11.0;4.965509833758756;0.399287737926699;-0.0397675130009177;0.017028653002957195;-0.1376567757724074;0;4.981696504395246
53.7331734;86.846927;11.0;3.5276093034194096;0.3687045014278296;-0.040787192821454;0.002753135515448202;-0.1142041399000713;0;3.547059909564902
53.7331811;86.8466531;13.0;3.0169126761695866;0.2951847425360039;-0.020393596410727;0.003772815335984392;-0.1050270215152442;0;3.031387805384416
53.7331976;86.846388;15.0;2.3079051894408913;0.16506444851755875;-0.0224329560517997;-0.009483022330988078;-0.0938105434893443;0;2.3139092188609784
53.7332171;86.8461259;17.0;2.1567990598639586;0.13328026265124793;-0.0193739165901906;-0.005404303048842873;-0.0907515040277353;0;2.1610000374101075
53.7332394;86.845841;18.0;2.22448376845451;0.0808245034776085;-0.0520036708473539;0.00887121443866623;-0.0907515040277353;0;2.2265590084840734
53.7332571;86.8451419;18.0;1.818254337171715;-0.09632517603663793;-0.0367084735393086;-0.003364943407770049;-0.0846334251045171;0;1.8211740406155115
53.7332626;86.8448146;18.0;2.1874333484689643;-0.2581149341904023;-0.0520036708473539;0.0017334556949117896;-0.0907515040277353;0;2.2032231741309958
53.7332908;86.84451;17.0;1.8561971969544917;-0.3587832839184588;-0.0458855919241358;0.010910574079738833;-0.084123585194249;0;1.8911105114052045
53.7332943;86.8442319;16.0;1.7169761934880663;-0.37856962322333443;-0.0367084735393086;-0.0003059039461608126;-0.0825940654634444;0;1.7585987946833732
53.7332957;86.8439517;15.0;3.815416719239394;-0.3597626254722708;-0.0520036708473539;-0.005404303048842873;-0.1203222188232894;0;3.8326933441014823
53.7333072;86.8436048;14.0;3.6845122675636777;-0.30722894823426605;-0.0367084735393086;0.01753849291322518;-0.1152238197206077;0;3.6974812762865956
53.7333121;86.8433025;13.0;3.510824732151886;-0.1943961897981139;-0.0142755174875089;0.008361374528398025;-0.113184460079535;0;3.5162315010387077
53.7333101;86.8430701;14.0;2.27613431418634;-0.0923825426733309;-0.0318649943917609;0.0012236157846435836;-0.0922810237585397;0;2.278231184115189
53.7332955;86.8427483;15.0;2.356414304547865;-0.06095663521394412;-0.0214132762312633;-0.0003059039461608126;-0.0938105434893443;0;2.3572998567117764
53.7332794;86.8423482;19.0;1.4315071890238729;0.08638073924430567;-0.058121749770572;0.0017334556949117896;-0.0774956663607627;0;1.4352883341460754
53.7332826;86.8419674;20.0;1.6137216835278636;0.30996664636405;-0.0438462322830631;0.002753135515448202;-0.0805547058223717;0;1.6438064015666805
53.7332921;86.8415929;20.0;1.0486460245047473;0.5424733279273952;-0.0448659121035994;-0.007443662689915698;-0.0713775874375446;0;1.1815027491678223
53.7332996;86.8412164;20.0;1.5259319592338576;0.7236088764992423;-0.0458855919241358;-0.016620781074742297;-0.0805547058223717;0;1.6894329338289826
53.7333454;86.8409294;19.0;2.3794297251007093;0.8728261278165781;-0.0020393596410727;0.003772815335984392;-0.0938105434893443;0;2.534465510729997
53.7334011;86.8406011;18.0;2.0357050816400513;0.946862636537146;0.0020393596410727;-0.012542061792597092;-0.0892219842969307;0;2.2451387910044556
53.7334651;86.8403067;18.0;2.2779414702678986;0.7569538557693465;-0.0224329560517997;0.006831854797593628;-0.0917711838482716;0;2.4005207183541613
53.7335301;86.8400133;19.0;2.3954346809124285;0.9300718533293433;-0.0132558376669725;0.006831854797593628;-0.0938105434893443;0;2.569691942647165
53.7336296;86.8397288;19.0;1.3627221282607103;1.259481411431715;0.0122361578464362;-0.002345263587233637;-0.0764759865402263;0;1.8556548030687894
53.7337493;86.8394389;19.0;1.3590446035659518;1.4554001589382968;-0.0071377587437544;-0.016620781074742297;-0.0774956663607627;0;1.9912917427436991
53.7338622;86.8391934;19.0;1.8780606270830473;1.5214752376921918;-0.0224329560517997;-0.003364943407770049;-0.0856531049250535;0;2.417126776862832
53.7339961;86.8389433;18.0;2.004945960715533;1.730268927293004;0.0040787192821454;-0.0013255837666972248;-0.0876924645661262;0;2.648330701044754
53.7340914;86.8387058;16.0;1.7338251805607117;1.5856789975417072;0.0122361578464362;0.01498929336188437;-0.0815743856429081;0;2.34961217300858
53.7341607;86.8384167;18.0;1.762562230527867;1.668909296560824;-0.0214132762312633;-0.003364943407770049;-0.0836137452839808;0;2.4274147534011306
53.734199;86.8380454;21.0;0.8304404247484825;1.6401193190029795;-0.0254919955134087;0.010400734169470849;-0.0662791883348628;0;1.8385517456570248
53.7341936;86.8376816;25.0;-0.9801759092834437;1.7395226168314557;-0.0295707147955541;-0.011522381972060902;-0.0356887937187723;0;1.9968871211917065
53.7342271;86.8372031;26.0;0.13066383406586413;1.7820074899949405;-0.0050983991026817;0.011930253900275356;-0.0540430304884266;0;1.7867987367368128
53.7342674;86.8366802;26.0;1.5765606059761437;1.776171325343625;-0.0295707147955541;-0.01866014071581512;-0.0815743856429081;0;2.375121543934608
53.7344406;86.8358038;25.0;0.6052150483969609;1.8985882320287857;0.0081574385642908;-0.003364943407770049;-0.0632201488732537;0;1.9927340699170715
53.7345164;86.8353932;26.0;0.603339254068628;2.004581777650652;0.095849903130417;-0.015601101254206107;-0.0642398286937901;0;2.0956033886972136
53.7344678;86.8348582;28.0;-1.2239565799114718;1.8302355685973803;-0.0010196798205363;-0.052309574793514946;-0.0326297542571632;0;2.2017795043588038
53.7342996;86.834434;29.0;-0.8298227907782114;1.5982615054578602;-0.0530233506678902;0.005812174977057216;-0.037728153359845;0;1.8016262596996677
53.7340982;86.8340022;30.0;0.4167069680004367;1.5841654967693997;-0.0499643112062812;-0.0064239828693790635;-0.0601611094116447;0;1.6388170888567992
53.7338853;86.8335845;31.0;-0.02415383791170944;1.4268105666314257;-0.0101967982053635;-0.0003059039461608126;-0.0520036708473539;0;1.4270514271148733
53.7336501;86.8331957;32.0;-0.4920492210720262;1.3030167922177467;-0.0387478331803813;-0.0003059039461608126;-0.0438462322830631;0;1.3933652038626445
53.7333797;86.8328485;33.0;-1.7395228818829915;1.2144804593740237;0.0622004690527174;-0.01764046089527893;-0.0224329560517997;0;2.1224447086193376
53.7330358;86.8326582;34.0;-0.6859219946042678;1.23337682981676;0.0142755174875089;0.016008973182420783;-0.0397675130009177;0;1.411350834275544
53.7326833;86.8325873;34.0;1.1477378495217057;1.161708519972724;0.0112164780258998;0.0017334556949117896;-0.0723972672580809;0;1.633093587637044
53.7323209;86.8325833;34.0;-0.48074771953973183;0.9304936494927676;-0.0300805547058223;-0.007698582645049523;-0.0443560721933312;0;1.0477793858252948
53.7318691;86.8325411;35.0;2.770870258136836;0.7168042035074709;-0.0346691138982359;0.0017334556949117896;-0.1009483022330988;0;2.862294918601464
53.7315101;86.8325149;36.0;-1.3736960742311524;0.4134885405129034;-0.0438462322830631;0.031304170490465966;-0.0275313551544814;0;1.435247772887661
53.7311395;86.8324771;35.0;-0.42197083334166674;0.12694873575654886;-0.0632201488732537;0.02824513102885695;-0.0438462322830631;0;0.4451653096601341
53.7307686;86.8323878;36.0;-0.48671508099606475;0.14957152520351902;-0.0734169470786173;0.003772815335984392;-0.0438462322830631;0;0.5144446125085356
53.7303887;86.8323151;37.0;0.14935214443391365;0.53688297671152;-0.0224329560517997;0.018048332823493385;-0.0540430304884266;0;0.5577209259538798
53.7300052;86.8322132;37.0;-2.028985789125593;0.6425370728335531;0.0040787192821454;-0.022738859997960326;-0.0173345569491179;0;2.128298348068263
53.7296298;86.8321194;36.0;-3.6996980241048503;0.340327450694885;-0.0346691138982359;-0.0013255837666972248;0.0122361578464362;1;3.715479806259254
53.7291692;86.8319916;35.0;-5.432832648245352;0.28900676665167757;-0.0050983991026817;0.016008973182420783;0.0418068726419904;1;5.440516656410903
53.7288275;86.8319059;31.0;-3.7370364473730238;0.2251180926630718;-0.0336494340776995;-0.02987661874171521;0.0132558376669725;1;3.7439620522986607
53.7284504;86.8317848;30.0;-3.7586979980920474;0.23146561765613494;-0.0193739165901906;-0.0008157438564291297;0.0132558376669725;1;3.765868070134978
53.7280677;86.8316837;30.0;-5.288689254379081;0.4369449243251986;-0.0418068726419904;-0.019679820536351533;0.040787192821454;1;5.306873157602169
53.7277687;86.8315895;33.0;-3.981427817256603;0.7166971586057374;-0.0530233506678902;-0.01050270215152449;0.0173345569491179;1;4.045767387887527
53.7274408;86.8314408;33.0;-4.2556266247468475;1.0391564991550801;-0.0142755174875089;0.023146731926175224;0.0214132762312633;1;4.380685789849578
53.7270917;86.8312709;34.0;-1.888037556212646;1.0931631491880498;-0.0265116753339451;0.054756806362802;-0.0183542367696543;1;2.1818327968341586
53.7267562;86.8310378;35.0;-3.233029476695537;1.2237339736377848;0.0316100744366268;-0.002345263587233637;0.0040787192821454;0;3.457022365016378
53.7264026;86.8307866;36.0;-3.0597982669558594;1.2977414677926298;0.0173345569491179;0.023146731926175224;0.0010196798205363;0;3.3236724926742216
53.7260432;86.8305808;36.0;-4.732747641551455;1.2825876724649878;-0.037728153359845;-0.01050270215152449;0.0305903946160905;0;4.903606304519762
53.7256939;86.8303851;37.0;-2.7543958414765544;1.063410507362141;-0.0469052717446721;0.049658407260120385;-0.0040787192821454;0;2.9529203279514644
53.7253296;86.8301744;37.0;-3.1144998432179487;0.7944211394737957;-0.040787192821454;-0.019679820536351533;0.0020393596410727;1;3.2144794003610793
53.7249606;86.8300102;36.0;-2.1229653347848623;0.6789645563889852;0.0418068726419904;0.0017334556949117896;-0.0152951973080452;0;2.2292874413432644
53.7245843;86.8300179;36.0;-2.908723914109612;0.4331662095171185;-0.0336494340776996;0.04048128887529323;-0.0015295197308045;0;2.9409930394331636
53.7240836;86.830106;39.0;0.2960510647594261;0.3818582842733014;0.0061180789232181;0.026205771387784238;-0.0560823901294993;0;0.48321776985438986
53.7236814;86.8302158;37.0;1.6161206054251007;0.3995744349241841;-0.0458855919241358;0.016008973182420783;-0.0795350260018354;0;1.6654161725739316
53.7233061;86.8303013;36.0;-2.9419496517311505;0.3444207088939075;0.0015295197308045;-0.0064239828693790635;-0.0010196798205363;0;2.962042490827339
53.722918;86.830374;35.0;0.5333451920936407;0.2577513560952127;-0.0479249515652085;-0.022738859997960326;-0.0632201488732537;0;0.5942976160820868
53.7225591;86.8304247;34.0;-0.5631662141925609;0.0660877665815145;-0.0642398286937901;-0.052309574793514946;-0.0448659121035994;0;0.5706579827622861
53.7222077;86.8304829;33.0;0.2947253046110281;0.08001189947132281;-0.0173345569491179;-0.009483022330988078;-0.058121749770572;0;0.3058846123944364
53.7218543;86.8304879;33.0;-0.2554732946690699;0.1524871152693661;-0.0520036708473539;-0.019679820536351533;-0.0489446313857448;0;0.30203196253681874
53.7215392;86.8304288;32.0;-1.844716154767845;0.4419647124650017;-0.0601611094116447;-0.009483022330988078;-0.020393596410727;0;1.8978750901498695
53.7212027;86.8302971;32.0;-0.9646936590889026;0.6805801573926282;-0.0795350260018354;-0.02987661874171521;-0.0367084735393086;0;1.1832789302966664
53.7209037;86.8300749;31.0;-0.36091770852898897;0.9181195014846977;-0.0509839910268175;0.005812174977057216;-0.0458855919241358;0;0.9878281119088222
53.7206346;86.8297546;29.0;0.7638791545316193;0.9224521444600065;0.0091771183848271;-0.007443662689915698;-0.0662791883348628;0;1.1977117938171333
53.7203858;86.8295058;27.0;0.7286704180930959;0.9170237695259451;0.0061180789232181;0.04557968797797496;-0.0622004690527174;0;1.171294413445762
53.7200533;86.8292757;27.0;0.20122209724456752;1.1692742935366272;0.0275313551544814;-0.002345263587233637;-0.0560823901294993;0;1.186781648603366
53.7197593;86.8291865;30.0;0.689150863759453;1.3202823360670113;0.0137656775772407;0.003772815335984392;-0.0642398286937901;0;1.4893837161155365
53.7194495;86.8292095;30.0;-0.060893615165718895;1.7674877812159224;-0.0275313551544814;0.027225451208320428;-0.0499643112062812;0;1.768750707316375
53.7191307;86.8292235;28.0;-0.29898914635690366;2.0401851027719595;0.0112164780258998;0.005812174977057216;-0.0469052717446721;0;2.0620076558032383
53.718835;86.8292606;26.0;0.9205792765432856;2.3598043564913063;0.0071377587437544;0.018048332823493607;-0.0672988681553992;0;2.533020677554013
53.7185506;86.8292578;26.0;0.11105406965473108;2.511612428844659;0.0331395941674314;-0.012542061792597092;-0.0550627103089629;0;2.514284835060544
53.7182708;86.829234;27.0;-1.0987409322041304;2.4840543449591377;0.0152951973080452;-0.013561741613133504;-0.0336494340776996;0;2.716245859246152
53.7177852;86.8293116;21.0;-3.8224385516079007;2.5729765661726316;-0.0132558376669725;-0.02987661874171521;0.014785357397777;1;4.607756569972427
53.7175694;86.8293262;22.0;-4.634743301423195;2.4931977164921966;-0.0142755174875089;-0.0003059039461608126;0.0285510349750178;1;5.262801926161445
53.7173456;86.829384;22.0;-6.384101569730847;2.2843782230553287;0.0071377587437544;0.0343632099520752;0.0571020699500356;1;6.780500546877728
53.7171392;86.829408;21.0;-8.772708282182139;1.7587224647513728;-0.0469052717446721;-0.01764046089527893;0.1029876618741715;1;8.947385954389453
53.7169243;86.8294747;19.0;-6.619993561967256;1.3370592727186186;0.003059039461609;0.0007137758743755995;0.0632201488732537;1;6.7536694927256535
53.7167329;86.8295649;19.0;-4.42343958395093;1.0972989233809172;0.0132558376669725;-0.025797899459569784;0.0254919955134087;1;4.557527662817764
53.716526;86.8296396;20.0;-6.811963911805766;0.7390460298129051;0.0336494340776996;-0.009483022330988078;0.0672988681553992;1;6.852019677025169
53.7163141;86.8297349;19.0;-5.941413387889741;0.4610909735434745;0.0061180789232181;-0.03191597838278781;0.0530233506678902;1;5.959281446833034
53.7160718;86.829851;18.0;-4.992746188284057;0.0855418922229012;-0.0489446313857448;0.004792495156520804;0.0346691138982359;0;4.993718803946768
53.7158825;86.8299689;20.0;-4.223645568455044;-0.2808399835595292;-0.0662791883348628;-0.0003059039461608126;0.0214132762312633;1;4.233490984412507
53.7156736;86.8300928;21.0;-4.400986464094709;-0.46119145585633614;-0.0520036708473539;0.0007137758743755995;0.0244723156928724;1;4.425390807361689
53.7154645;86.8302165;22.0;-4.182266571409884;-0.6961088303948579;-0.0652595085143265;0.013969613541347958;0.020393596410727;1;4.240304232191107
53.715247;86.8303318;26.0;-3.399286107686578;-0.9835583912919388;-0.0550627103089629;-0.022738859997960326;0.0071377587437544;1;3.5391475037158764
53.7149733;86.8304421;30.0;-4.217048777455574;-1.1335241006365373;-0.0713775874375446;-0.005404303048842873;0.0214132762312633;1;4.367318632542378
53.7146505;86.8306313;33.0;-6.20236076743708;-1.376491176421664;-0.078515346181299;0.0007137758743755995;0.0560823901294993;1;6.353752568978064
53.7143217;86.8307377;34.0;-2.5586287697849235;-1.744480212625875;-0.0866727847455898;-0.05536861425512396;-0.0081574385642908;1;3.097951672545891
53.7139597;86.8308877;34.0;0.8435658170657558;-1.7130826755441402;-0.0316100744366268;0.013969613541347958;-0.0662791883348628;0;1.9097787143481244
53.7136394;86.8310026;33.0;0.0031695245910161596;-1.9289504732271179;-0.0652595085143265;0.010910574079738833;-0.0520036708473539;0;1.9300566772768066
53.7133184;86.8311168;32.0;0.9503507338441519;-2.0532619037126736;-0.0846334251045171;-0.022738859997960326;-0.0708677475272764;0;2.264114347642546
53.7128987;86.8312603;30.0;-0.2299535667550594;-1.83030439337162;-0.0530233506678902;0.010910574079738833;-0.0479249515652085;0;1.8454550362918294
53.712296;86.8314512;29.0;1.7281549897650486;-1.3451680557709387;-0.0520036708473539;0.002753135515448202;-0.0825940654634444;1;2.1905937890667913
53.7117046;86.8316278;31.0;-6.076200813892515;-0.9455905293431601;-0.020393596410727;-0.005404303048842873;0.0540430304884266;1;6.149371811714275
53.7113665;86.8316993;35.0;-4.690109505094302;-0.6242540380275741;-0.061180789232181;-0.0003059039461608126;0.0295707147955541;0;4.73186679469538
53.7109882;86.8317562;36.0;-2.9111834350721884;-0.3116436580323949;-0.0856531049250535;0.017028653002957195;-0.0015295197308045;0;2.9290693430872925
53.7106436;86.8317188;36.0;-3.458898024691535;-0.17388823809172793;-0.0764759865402263;-0.015601101254206107;0.0081574385642908;0;3.4641104545148313
53.71028;86.8317136;35.0;-2.3006763157760584;-0.05450002160535217;-0.0152951973080452;-0.002345263587233637;-0.0122361578464362;0;2.30137256987837
53.7098254;86.8315662;35.0;-0.44119158267237735;-0.02711543258673199;-0.0489446313857448;0.020087692464565987;-0.0438462322830631;0;0.4447255740867723
53.7094823;86.8314535;36.0;-0.541966323336418;0.0056133694014495195;-0.0336494340776995;-0.008973182420719983;-0.0433363923727949;0;0.5430389396356227
53.7090207;86.8312223;34.0;0.07482525205710111;-0.0820116566275968;0.0285510349750178;0.03232385031100238;-0.0520036708473539;0;0.11462936694563154
53.7086857;86.8311177;31.0;0.6909633494490048;-0.1796106772938706;-0.0479249515652085;-0.01050270215152449;-0.0652595085143265;0;0.7155327712007872
53.7083608;86.8310744;30.0;-0.17230753454072367;-0.007386652220129353;-0.0101967982053635;-0.011522381972060902;-0.0499643112062812;0;0.17276696381011253
53.7080402;86.8311122;30.0;-0.6397542577358828;0.08935763799276164;0.0387478331803813;-0.013561741613133504;-0.0418068726419904;0;0.6471257160204734
53.7077538;86.8311842;29.0;-2.764288070804253;0.05518109935415283;-0.0244723156928724;0.00887121443866623;-0.0040787192821454;0;2.7649470856332865
53.7071842;86.8314594;24.0;-3.2893866983273585;0.16024831907304504;-0.0632201488732537;-0.007443662689915698;0.0050983991026817;1;3.2938945280810454
53.7069507;86.8315843;25.0;-5.1449215261751675;0.2915057371204388;-0.0428265524625267;-0.0064239828693790635;0.037728153359845;1;5.15335106691467
53.7066714;86.831689;29.0;-4.508643503532267;0.5322683137913629;-0.0672988681553992;-0.004384623228306239;0.0265116753339451;1;4.540452063117175
53.7058585;86.8316441;33.0;-2.6048008106092007;0.6329023088052077;-0.1009483022330988;-0.02987661874171521;-0.0071377587437544;1;2.682488239520363
53.7055296;86.8315968;33.0;0.3496274818360039;0.515223373094253;-0.0397675130009177;0.025186091567248048;-0.0571020699500356;1;0.6239198308499925
53.7052217;86.8314937;31.0;0.3726246521510066;0.29376857345553065;-0.0499643112062812;0.049658407260120385;-0.0560823901294993;1;0.4771221421555222
53.7049204;86.8313716;28.0;-0.06594710587064379;0.2873563859130752;-0.0101967982053635;-0.014581421433669917;-0.0520036708473539;0;0.295002860988464
53.7046542;86.8312846;24.0;-3.2991056731635897;0.22393454643463073;-0.023452635872336;0.02365657183644343;0.0050983991026817;0;3.3067801484096924
53.7043553;86.8313185;19.0;-2.473309218188501;0.14419343876546709;0.0081574385642908;0.0017334556949117896;-0.0091771183848271;0;2.477522306733716
53.7039702;86.8318294;21.0;-3.931487346993255;0.2656535034252203;0.0122361578464362;-0.003364943407770049;0.0163148771285816;0;3.9404713254900106
53.7038923;86.8321611;21.0;-3.5234394815042083;0.22994975216200553;-0.0152951973080452;-0.004384623228306239;0.0091771183848271;0;3.5309682257707595
53.703819;86.8325486;25.0;-2.5324184913054184;0.23832492626722113;-0.023452635872336;0.0007137758743755995;-0.0081574385642908;0;2.543716220751688
53.7037484;86.8330156;28.0;-3.7433033877044415;0.4785262459169417;-0.0061180789232181;-0.021719180177424358;0.0132558376669725;0;3.7737706675579292
53.7037139;86.8334931;29.0;-2.6647389652894056;0.4906904853135263;-0.0285510349750178;-0.045171816049760505;-0.0061180789232181;0;2.709691138692198
53.7036952;86.8339864;28.0;-1.774794179641459;0.4338138816081909;-0.0428265524625267;-0.0003059039461608126;-0.0214132762312633;0;1.8275456157264558
53.703669;86.8344978;30.0;-0.31818532389037957;0.406292321295739;-0.0540430304884266;-0.021719180177424358;-0.0479249515652085;0;0.5188795619673979
53.7036565;86.8350485;35.0;-3.3397067559326503;0.3666076280314654;-0.0642398286937901;-0.02987661874171521;0.0061180789232181;0;3.360382288392744
53.7036524;86.83571;35.0;-1.5663646229026615;0.12460587410000556;-0.0438462322830631;-0.01764046089527893;-0.0254919955134087;0;1.5719246953421921
53.7036278;86.8362998;35.0;-1.958526827335726;0.09939959975111878;-0.0173345569491179;-0.009483022330988078;-0.0183542367696543;0;1.9611241930813685
53.7036178;86.8369042;35.0;-0.9734445865851353;-0.03864502489411992;-0.0285510349750178;-0.03701437748546965;-0.0367084735393086;0;0.9746296541246408
53.7035597;86.8382285;29.0;-5.625938373071467;-0.02718159293221767;-0.0489446313857448;0.0007137758743755995;0.0458855919241358;1;5.626216934453722
53.7035451;86.8387003;24.0;-2.7659408352661834;-0.09668259407771007;-0.0367084735393086;0.0022432956051799957;-0.0040787192821454;0;2.7678735050974015
53.7035257;86.8391417;25.0;-2.884527235406493;-0.09813659117895579;-0.0275313551544814;-0.011522381972060902;-0.0020393596410727;0;2.8863274481331276
53.7035075;86.8395331;25.0;-2.2634721594971836;0.0740766931388741;-0.0509839910268175;-0.02987661874171521;-0.0132558376669725;0;2.265257808865529
53.7034618;86.8399994;27.0;-3.28984771359669;0.13489464362786951;-0.0275313551544814;-0.007443662689915698;0.0050983991026817;0;3.2927272160100816
53.703446;86.8403932;26.0;-3.534609115271745;0.3323699025273208;-0.0326297542571632;0.017028653002957195;0.0091771183848271;0;3.550351539035397
53.7034361;86.8409465;27.0;-3.1775674801026264;0.6729884688983181;-0.0040787192821454;0.012949933720811546;0.003059039461609;0;3.248055603869312
53.7034321;86.8415569;22.0;-4.982741026801668;0.8596861230024575;-0.0152951973080452;-0.0013255837666972248;0.0346691138982359;0;5.056382334566506
53.703468;86.8421304;21.0;-4.126784901472775;1.1366385046771534;-0.003059039461609;0.01498929336188437;0.0193739165901906;0;4.280456759629842
53.7034801;86.8424753;21.0;-6.79172500681987;1.2708787126244796;-0.0270215152442133;-0.015091261343938012;0.0672988681553991;1;6.909659284852655
53.7035296;86.8429344;22.0;-4.034262931445669;1.3744497870371113;-0.0101967982053635;-0.016620781074742297;0.0183542367696543;1;4.26198235470498
53.7035732;86.8433876;25.0;-2.4752150686855265;1.3137112040705605;-0.0346691138982359;-0.0013255837666972248;-0.0091771183848271;1;2.802450483310438
53.7036161;86.8438145;27.0;-3.4664330052254426;1.405340788458446;-0.0193739165901906;-0.0018354236769650978;0.0081574385642908;1;3.740523474069551
53.7037041;86.8444401;30.0;-3.9046172502876657;1.4199401273847523;-0.0254919955134087;-0.032935658203324225;0.0163148771285816;1;4.154866505489279
53.7038093;86.8449037;30.0;-5.557640558577475;1.6291211828599796;-0.0071377587437544;-0.004384623228306239;0.0448659121035994;1;5.791498541343883
53.7039422;86.8454206;31.0;-5.270956917811324;1.6443193296548235;0.0214132762312633;0.023146731926175224;0.0387478331803813;0;5.521524374273693
53.7040813;86.8459181;31.0;-3.565026345180325;1.5460316696172989;-0.003059039461609;-0.033955338023860415;0.0101967982053635;0;3.8858250247549573
53.704244;86.8464136;31.0;-4.428758181586912;0.9818328616670933;0.0265116753339451;-0.021719180177424358;0.0254919955134087;0;4.536363925893888
53.704405;86.8469586;34.0;-2.7079969554885763;0.7017327322844773;-0.0122361578464362;-0.0003059039461608126;-0.0050983991026817;0;2.7974677946410176
53.7045949;86.8474813;35.0;-3.468828207774739;0.24861528083748352;-0.0367084735393086;0.003772815335984392;0.0081574385642908;1;3.477919810022824
53.7047693;86.8480141;34.0;-5.090953689896466;-0.2920067784337115;-0.0071377587437544;-0.005404303048842873;0.0367084735393086;1;5.099326267157413
53.7049408;86.8484928;33.0;-2.2366232659283423;-0.2615243371876974;-0.058121749770572;0.006831854797593628;-0.0132558376669725;1;2.2526110961348436
53.7051164;86.8489756;33.0;-1.510533609598144;0.0557524554196176;-0.0438462322830631;-0.01866014071581512;-0.0265116753339451;1;1.512197941440318
53.7052576;86.8495008;34.0;-4.684413147495995;0.06826482379525167;-0.0652595085143265;0.031304170490465966;0.0285510349750178;1;4.68536502591342
53.7053487;86.8500271;32.0;-4.2665096521404555;0.06385774420964796;-0.0142755174875089;-0.014581421433669917;0.0224329560517997;0;4.267011391325637
53.7054186;86.8505834;30.0;-1.0162801375920376;-0.2031607796946373;-0.0387478331803813;0.029264810849393252;-0.0336494340776996;0;1.037111862359311
53.7054758;86.851127;27.0;0.7083261028953269;-0.3595767007170432;-0.0305903946160905;-0.0064239828693790635;-0.0652595085143265;1;0.7949572592185089
53.7054722;86.8516866;25.0;0.06675513255453769;-0.5778280508798908;-0.1437748546956255;-0.01764046089527893;-0.0550627103089629;1;0.5991766959326571
53.7054051;86.8521059;24.0;-3.3859092048712562;-0.640347139640367;-0.116243499541144;-0.053329254614051136;0.0071377587437544;1;3.4478889416660556
53.7052728;86.8525112;25.0;-0.09871049967488243;-0.7511147396202027;-0.0948302233098807;-0.021719180177424358;-0.0520036708473539;1;0.7634853541973098
53.7051098;86.8528346;22.0;2.6913644598351762;-0.8311965221360591;0.0275313551544814;-0.012542061792597092;-0.1009483022330988;0;2.8169288754939505
53.7049642;86.8530986;22.0;1.761102675128014;-0.7781359253023448;-0.0336494340776996;-0.027837259100642386;-0.0856531049250535;0;1.9256454593208308
53.7048316;86.8534524;21.0;0.28145641152450906;-0.7986758063796642;0.023452635872336;0.02212705210563881;-0.0560823901294993;0;0.8471427160837901
53.7048005;86.8537797;21.0;3.13862309088311;-0.8057544295984527;0.1182828591822167;0.0211073722851024;-0.1060467013357805;1;3.2425585487726347
53.70487;86.8541052;18.0;2.50484431318893;-0.6015525619001711;-0.0428265524625267;-0.03599469766493324;-0.0999286224125624;1;2.576420895668914
53.705008;86.8543456;15.0;1.4154318193212072;-0.4556896520951961;-0.147853573977771;-0.07270317120424208;-0.0836137452839808;1;1.4943095306902061
53.7051599;86.8544975;16.0;2.334863540125016;-0.46264287206921706;-0.092790863668808;-0.0003059039461608126;-0.0938105434893443;1;2.3820655579689616
53.7053031;86.8546919;17.0;2.5847525406944287;-0.4559409088573161;-0.0876924645661262;0.002753135515448202;-0.0978892627714897;1;2.626122193908277
53.7054462;86.8548606;15.0;3.7035579043357965;-0.2651960925409531;-0.0356887937187723;0.03334353013153879;-0.1136942999898032;1;3.713212060772216
53.7055735;86.8550135;14.0;4.217976274442709;-0.038297106223839084;-0.0560823901294993;0.043540328336902245;-0.1213418986438258;1;4.218522935174034
53.7057172;86.8550804;14.0;2.803665382605205;0.2276236390391948;-0.0453757520138676;0.00785153461813004;-0.1009483022330988;1;2.8132563085398137
53.7058645;86.8551765;15.0;2.563357053440943;-0.014724797435530679;-0.0805547058223717;-0.022738859997960326;-0.0999286224125624;1;2.5646647468460824
53.7060126;86.8552222;18.0;1.981270120165279;-0.32847794580257705;-0.0214132762312633;0.005812174977057216;-0.0866727847455898;1;2.0084291320177012
53.706212;86.8552424;19.0;-1.1269616948753964;-0.6644393273508364;-0.0326297542571632;0.002753135515448202;-0.0326297542571632;1;1.3086584666404528
53.7064136;86.855188;21.0;3.044938772402541;-0.653364050476636;-0.0198837565004588;0.018048332823493385;-0.1040073416947078;1;3.1143108505587715
53.7066374;86.8551046;19.0;0.46284110755692076;-0.7623834103755351;-0.0061180789232181;0.005812174977057216;-0.0601611094116447;1;0.8919012199509873
53.7068435;86.8550547;21.0;0.9282738752460711;-0.8594864078401692;-0.0163148771285816;0.020087692464565987;-0.0672988681553992;1;1.2651780301372912
53.7070535;86.8550087;21.0;1.0539172102498604;-0.3624475072522162;-0.040787192821454;-0.020699500356887945;-0.0723972672580809;1;1.115245836877434
53.7072702;86.854995;20.0;0.19070761220437582;-0.4095887693335367;-0.0734169470786173;0.01498929336188437;-0.0550627103089629;1;0.4577361701189892
53.7074811;86.8550779;17.0;-1.0987130563399952;-0.7185499118592986;-0.0142755174875089;-0.013561741613133504;-0.0336494340776996;1;1.3128930445411444
53.7076335;86.8552047;17.0;0.42487576588102804;-0.9591309570706579;-0.0418068726419904;-0.004384623228306239;-0.0601611094116447;1;1.0498568587404522
53.7077517;86.8553997;15.0;-0.5185546708861861;-1.2863866001035653;-0.0418068726419904;0.08330784133781999;-0.0397675130009177;1;1.3876012562058289
53.7078514;86.8556018;14.0;-2.5702970820759425;-1.6317588483492989;-0.0805547058223717;0.05169776690119299;-0.0071377587437544;1;3.0455792700116118
53.7079606;86.8557366;12.0;-4.270504517362938;-1.878003555005015;-0.0978892627714897;0.03946160905475682;0.0214132762312633;1;4.666228508463198
53.7080186;86.855897;11.0;-1.2883732274671131;-2.006569927008629;-0.0836137452839808;0.013969613541347958;-0.0295707147955541;1;2.3860468779195965
53.7080522;86.8560842;9.0;-4.391947210368765;-2.270852895963267;-0.0744366268991536;-0.004384623228306239;0.0244723156928724;1;4.944847215556296
53.7080501;86.8562357;7.0;-4.739875808898804;-2.354611299077277;-0.0866727847455898;-0.03701437748546965;0.0316100744366268;1;5.293215395687392
53.7080123;86.8563259;10.0;-2.0532717750225418;-2.44165906208364;-0.0805547058223717;0.016008973182420783;-0.0163148771285816;1;3.191255711814631
53.7078645;86.8564853;13.0;-1.8070796947577994;-2.37463282055585;-0.1070663811563169;-0.022738859997960326;-0.0214132762312633;1;2.985947297867275
53.7077214;86.8564446;11.0;0.38241372372690074;-2.2692493888343552;-0.0387478331803813;0.10370143774854701;-0.0530233506678902;1;2.3015721668885254
53.7076079;86.8564079;10.0;0.9736339244814696;-2.1294312487977267;-0.0897318242071989;0.020597532374834415;-0.0683185479759355;1;2.3431799466820693
53.7075073;86.8563841;10.0;-5.1140737995772145;-1.9591008823246279;-0.0499643112062812;0.006831854797593628;0.0367084735393086;1;5.476707361822574
53.7074461;86.8563229;8.0;-4.274326914899904;-1.7621807712937176;-0.0795350260018354;-0.05128989497297831;0.023452635872336;1;4.624010971712347
53.7074035;86.8562035;9.0;-1.2697920481576177;-1.5425933975836528;-0.0805547058223717;-0.009483022330988078;-0.0305903946160905;1;1.999613786825627
53.7074054;86.8560774;7.0;1.4660542772748117;-1.304261243073097;-0.0642398286937901;0.009890894259202643;-0.0774956663607627;1;1.9632980644031
53.7074534;86.8559718;4.0;-3.516681141004169;-1.0511067896407078;-0.0010196798205363;-0.01764046089527893;0.0091771183848271;1;3.6704049872555093
53.7074807;86.8559735;2.0;-3.432455259165763;-0.7870525191651483;-0.0367084735393086;-0.012542061792597092;0.0076475986540226;1;3.5217251860598804
53.7074705;86.8560145;4.0;7.385251230036404;-0.5160209135250686;-0.0509839910268175;0.09452431936371963;-0.1662078107474253;1;7.40343249319466
53.7074467;86.8560675;4.0;0.20599523563229827;-0.2419344545991411;-0.0458855919241358;0.018048332823493385;-0.0550627103089629;1;0.32104797923615447
53.7074287;86.8561007;2.0;-3.5730530255457187;0.03128437573397891;-0.040787192821454;-0.01866014071581512;0.0101967982053635;1;3.573422761250722
53.7074163;86.8561395;2.0;-1.792797653977374;0.29971309559563086;-0.0336494340776996;-0.015601101254206107;-0.0214132762312633;1;1.817988903209269
