lat;lon;vel;acc_X;acc_Y;acc_Z;fb_tilt;tilt;hole;acc
53.7253588;86.8450516;7.0;0.0020393596410727;-0.013561741613133504;0.0448659121035994;-4.534571976068197;0.717408138053256;1;0.04691513500156362
53.7252095;86.8449279;6.0;-0.0387478331803813;-0.020699500356887945;-0.0499643112062812;0.8004375826902623;0.3209069646017759;1;0.06653041624338134
53.725143;86.844887;5.0;-0.095849903130417;0.0007137758743755995;-0.0071377587437544;-1.5926210488941879;-0.01575395317035877;1;0.09611795360905893
53.725093;86.8448882;6.0;-0.0387478331803813;-0.0288569389211788;0.0356887937187723;-3.9852622600418064;-0.296691722679288;1;0.06006502723862184
53.7249986;86.8448706;11.0;-0.0040787192821454;0.04659936779851115;0.0112164780258998;-2.6740307305519955;-0.5260234513411515;1;0.048103496853232564
53.7249207;86.8448439;3.0;-0.0091771183848271;-0.0003059039461608126;0.0326297542571632;-3.868234441686906;-0.7078662465720891;0;0.033897108165096744
53.7249148;86.8448124;0.0;-0.0652595085143265;-0.007443662689915698;-0.0683185479759355;1.871413744476186;-0.8463372157882407;0;0.09477149130045859
53.7249125;86.8448101;0.0;-0.0601611094116447;-0.0003059039461608126;-0.0652595085143265;1.725947755058756;-0.9455534664057472;0;0.08875954097670635
53.7249056;86.8448032;0.0;-0.0601611094116447;-0.0013255837666972248;-0.0662791883348628;1.780169491422647;-1.009632105840748;0;0.08952121013642873
53.7248977;86.8448209;0.0;-0.0601611094116447;-0.0003059039461608126;-0.0642398286937901;1.6678900038297617;-1.0426902415093817;0;0.08801254600039507
53.7248972;86.8448204;0.0;-0.0601611094116447;-0.0013255837666972248;-0.0642398286937901;1.6641784671870634;-1.04884498082779;0;0.08802199639050408
53.72488355;86.84478114999999;1.0;-0.0591414295911083;0.02212705210563881;-0.0433363923727949;0.5328944007121805;-1.0322134312121118;0;0.07658562549757304
53.7248831;86.8447551;0.0;-0.0448659121035994;-0.014581421433669917;-0.0509839910268175;0.8739611339734128;-0.9969127000784885;0;0.0694617539437121
53.72488315;86.84478075;0.0;-0.0486897114306107;0.004792495156520804;-0.0438462322830631;0.5196605878971412;-0.9470598948431217;0;0.06569739792748068
53.7248808;86.8447784;0.0;-0.0469052717446721;-0.004384623228306239;-0.0458855919241358;0.6129110826352755;-0.8103377884442038;0;0.0657633407342119
53.7248776;86.8447752;0.0;-0.0469052717446721;-0.004384623228306239;-0.0448659121035994;0.5549242055402344;-0.7653204446347299;0;0.06505597211005032
53.7248775;86.8447751;0.0;-0.0458855919241358;-0.005404303048842873;-0.0448659121035994;0.5524610999548498;-0.9231330794289763;0;0.06440220575849834
53.7248765;86.8447997;0.0;-0.0458855919241357;-0.003364943407770049;-0.0458855919241357;0.6156794947122166;-0.9226788098112846;0;0.06497921157257996
53.7248757;86.8447989;0.0;-0.0458855919241358;-0.005404303048842873;-0.0448659121035994;0.5524610999548498;-0.7833589555887968;0;0.06440220575849834
53.7248759;86.8447735;0.0;-0.0448659121035994;-0.005404303048842873;-0.0443560721933312;0.5236086962386439;-0.6125910481510708;0;0.06332154215392775
53.7248767;86.8447743;0.0;-0.0474151116549403;-0.007443662689915698;-0.0489446313857448;0.7783430537232112;-0.601838469996852;0;0.06855054973505416
53.7248774;86.8447494;0.0;-0.0463954318344039;-0.0064239828693790635;-0.0443560721933312;0.5208870890233896;-0.41159836037055486;0;0.06450786612055079
53.7248745;86.8447721;0.0;-0.0458855919241358;-0.005404303048842873;-0.0448659121035994;0.5524610999548498;-0.5466598810582823;0;0.06440220575849834
53.7248743;86.8447719;0.0;-0.0458855919241358;-0.005404303048842873;-0.0448659121035994;0.5524610999548498;-0.5851934480995769;0;0.06440220575849834
53.7248729;86.8447705;0.0;-0.0469052717446721;-0.005404303048842873;-0.0448659121035994;0.5523420558466854;-0.654853275769097;0;0.06513264218326456
53.7248695;86.8447671;0.0;-0.0469052717446721;-0.004384623228306239;-0.0448659121035994;0.5549242055402344;-0.5762039004603059;0;0.06505597211005032
53.7248711;86.8447687;0.0;-0.0479249515652085;-0.004384623228306239;-0.0443560721933312;0.5258081637249812;-0.7084420559333839;0;0.06544835401904156
53.7248782;86.8447502;0.0;-0.0469052717446721;-0.007443662689915698;-0.0499643112062812;0.8361985918003878;-0.6401145189769442;0;0.06893435301793217
53.7248941;86.8447661;0.0;-0.0469052717446721;-0.004894463138574556;-0.0463954318344039;0.6405669414739656;-0.6159936215688218;0;0.0661558491892986
53.72490005;86.84477204999999;0.0;-0.0484347914754766;-0.005404303048842873;-0.0428265524625267;0.43629451011865106;-0.6304861399046984;0;0.06487872619389336
53.7249032;86.8447496;0.0;-0.0474151116549403;-0.004894463138574556;-0.0458855919241358;0.6115281594103461;-0.5154437861414651;0;0.06616370703711845
53.7248988;86.8447708;0.0;-0.0479249515652085;-0.004384623228306239;-0.0438462322830631;0.4968128402089089;-0.7105946367421199;0;0.06510390148679346
53.7248918;86.8447638;0.0;-0.0469052717446721;-0.004384623228306239;-0.0438462322830631;0.4969320906409984;-1.082113294499448;0;0.06435698504215422
53.7248868;86.8447588;0.0;-0.0469052717446721;-0.004384623228306239;-0.0448659121035994;0.5549242055402344;-1.440368623222863;0;0.06505597211005032
53.724831;86.8446774;7.0;-0.1182828591822167;-0.03191597838278781;-0.0356887937187723;-0.03209163438476881;-1.912414702084888;1;0.12760546402702264
53.7247679;86.8445887;9.0;-0.023452635872336;-0.022738859997960326;-0.0244723156928724;-0.6296359275566006;-2.149807810339504;0;0.04081637071983287
53.7246997;86.8444437;8.0;-0.0509839910268175;0.02824513102885695;-0.0662791883348628;1.8965111378809811;-2.457037224306058;0;0.08826146143242881
53.7246484;86.8443412;7.0;-0.0458855919241358;0.019068012644029797;-0.0938105434893443;3.456885520596053;-2.636219484051221;0;0.10615787640202376
53.7245937;86.8442609;11.0;-0.1101254206179259;-0.020699500356887945;-0.0173345569491179;-1.0326512825966332;-2.7818665292531124;1;0.11338679132033906
53.7245169;86.8440561;11.0;-0.0346691138982359;-0.021719180177424358;0.0061180789232181;-2.342887062687974;-2.7854431417007364;1;0.04136545824451849
53.724448;86.8437824;12.0;-0.104517181604976;0.026205771387784238;-0.037728153359845;0.20606917307579886;-2.86846020805391;1;0.11416653301480399
53.7244106;86.843617;7.0;-0.1091057407973896;0.01498929336188437;-0.0953400632201488;3.4950883358910767;-2.903128586500621;1;0.14566560762670702
53.7243906;86.843469;9.0;-0.1167533394514122;0.0063220148873252;-0.1024778219639032;3.8481392515862964;-2.8796480359312895;1;0.15547673182749144
53.724383;86.8432822;11.0;-0.1866014071581523;0.00887121443866623;-0.0560823901294993;1.1827919243434017;-2.6517310634919404;1;0.19504875821613604
53.7244692;86.8430356;11.0;-0.1182828591822167;-0.012542061792597092;-0.058121749770572;1.263135366536591;-2.4807844473203433;1;0.13238684181867327
53.7245883;86.8430523;11.0;-0.0642398286937901;-0.011522381972060902;-0.0713775874375446;2.028269761928162;-2.2206654529602936;0;0.09671753132355011
53.7247056;86.8431184;14.0;-0.0560823901294993;0.01498929336188437;-0.0825940654634444;2.7853781057305538;-1.8570169847158633;0;0.10095391546594779
53.7248422;86.8432294;15.0;-0.003059039461609;-0.014581421433669917;-0.0662791883348628;1.737612602884926;-1.5006620093267982;0;0.06793310223876269
53.7250475;86.8433323;17.0;-0.0550627103089629;0.003772815335984392;-0.0571020699500356;1.2755199802202952;-1.4743581523684424;0;0.07941525416887467
53.7252232;86.8434568;18.0;-0.0152951973080452;-0.012542061792597092;-0.0469052717446721;0.6519869018181601;-1.0488077415925599;0;0.05090531300505765
53.7254258;86.843557;20.0;-0.0336494340776996;0.0007137758743755995;-0.0428265524625267;0.45264323830627085;-0.7456819753463271;0;0.05446932609803286
53.7256721;86.8437009;21.0;-0.0265116753339451;0.0007137758743755995;-0.0418068726419904;0.3948295555202521;-0.3351237615598328;0;0.04950952438788883
53.7259348;86.8438612;20.0;-0.058121749770572;-0.015601101254206107;-0.0520036708473539;0.9264799008939941;-0.055655411616972295;0;0.07953561427647933
53.7261706;86.8440458;18.0;-0.0183542367696543;0.00785153461813004;-0.0825940654634444;2.757958005190466;0.3904434141142956;0;0.08497237346947514
53.7263375;86.8441103;17.0;-0.0091771183848271;0.0002039359641071714;-0.0642398286937901;1.6762137323013606;0.6239962331090128;0;0.06489234687029037
53.7265301;86.8442517;18.0;-0.0020393596410727;-0.005404303048842873;-0.0693382277964719;1.9451781386607983;0.7914491408525659;0;0.06957841125769398
53.7267221;86.8443413;19.0;-0.0499643112062812;0.018048332823493385;-0.0601611094116447;1.5014325639916302;0.8321341041968866;0;0.08025916644013686
53.7269921;86.8445345;23.0;-0.0193739165901906;-0.011522381972060902;-0.0509839910268175;0.8849220659635653;0.5535550370748896;0;0.05574478694350122
53.7272174;86.8447086;25.0;-0.0316100744366268;-0.002345263587233637;-0.0652595085143265;1.7232425196370178;0.4153096596108534;0;0.07254998634537532
53.7274667;86.8448811;27.0;-0.0540430304884266;-0.011522381972060902;-0.0428265524625267;0.4209327608665845;0.3660635893490891;0;0.06991085771544098
53.7277281;86.8450401;27.0;-0.0438462322830631;0.0007137758743755995;-0.0652595085143265;1.7328779134791699;0.39508517523882136;0;0.07862445556536858
53.7279828;86.845218;27.0;-0.0050983991026817;0.02824513102885695;-0.0560823901294993;1.302972661103445;0.6577088748587343;0;0.06300012367356816
53.7282245;86.8453829;23.0;-0.0305903946160905;-0.008463342510451666;-0.0591414295911083;1.3547328158868108;0.808690068526184;0;0.06712010952983746
53.7284427;86.8455243;21.0;-0.0020393596410727;-0.002345263587233637;-0.0703579076170082;2.0151849725829845;1.063661914296387;0;0.07042651782732624
53.7286216;86.8457288;19.0;-0.0122361578464362;0.005812174977057216;-0.0734169470786173;2.223088290838593;1.3343843059934484;0;0.07465623252717302
53.7288116;86.8458932;19.0;-0.0316100744366268;0.009890894259202643;-0.0693382277964719;2.0039011663727164;1.6481628903010173;0;0.0768428033656454
53.7290246;86.8460294;20.0;-0.0081574385642908;0.004792495156520804;-0.0703579076170082;2.04376015732044;1.6613570052046565;0;0.07099117535298959
53.7293841;86.8462609;19.0;-0.0101967982053635;-0.009483022330988078;-0.0825940654634444;2.6771803163316843;1.8128583713558604;0;0.08375966843266909
53.7295634;86.8463634;18.0;-0.003059039461609;-0.012542061792597092;-0.1029876618741715;3.8076685310618537;2.3490906826043703;0;0.10379363918249365
53.7297348;86.8465092;16.0;0.020393596410727;-0.004384623228306239;-0.1080860609768532;4.140946360268596;2.891224217226353;0;0.11008051722675473
53.7298747;86.8466235;13.0;0.0275313551544814;0.02824513102885695;-0.1029876618741715;4.047279329950712;3.217352877085478;0;0.11028246207710528
53.7301087;86.8468575;10.0;0.0285510349750178;0.01498929336188437;-0.1468338941572346;6.475044250740645;3.731180080809694;0;0.15033307349685662
53.7301885;86.8469885;10.0;0.0509839910268175;0.00887121443866623;-0.1315386968491893;5.550023469862611;3.8961135303853984;0;0.1413523772542306
53.7302713;86.8470969;11.0;0.040787192821454;-0.005404303048842873;-0.1213418986438258;4.8761219544024;3.8628931799254147;0;0.1281275066337697
53.7303563;86.8472331;12.0;0.0336494340776996;0.011930253900275356;-0.1244009381054349;5.171837998519883;3.820425304924804;0;0.12942259761489386
53.7304343;86.8473623;11.0;0.0254919955134087;-0.011522381972060902;-0.133578056490262;5.52038889207741;3.8285194506564286;0;0.13647602096075834
53.7304979;86.8475539;11.0;0.0382379932701131;-0.0003059039461608126;-0.1345977363107984;5.6579680465475;3.6887174173274877;0;0.13992422351594705
53.730541;86.8477506;11.0;0.0214132762312633;0.003772815335984392;-0.1091057407973896;4.24863175660406;3.575078349720185;0;0.11125118071042209
53.73061;86.8482292;19.0;0.0142755174875089;-0.01050270215152449;-0.0438462322830631;0.48428732030120036;3.422622850008577;0;0.04729259178180166
53.7306746;86.8485754;22.0;0.0836137452839808;-0.026817579280105974;-0.0326297542571632;-0.18589314569040272;3.182171810857653;0;0.09367572696137484
53.7307801;86.8488345;20.0;0.0989089425920261;-0.04721117569083311;-0.07545630671969;2.1030997924700268;3.022154710795282;1;0.13306212180240987
53.7309378;86.849069;16.0;-0.0101967982053635;-0.002345263587233637;-0.0907515040277353;3.173140570380153;2.794345730131093;0;0.09135267066829827
53.7311231;86.8491775;13.0;-0.0163148771285816;-0.0064239828693790635;-0.1152238197206077;4.530411301854386;2.6306382481408113;0;0.11655029559222016
53.7312674;86.8492194;11.0;-0.0183542367696543;-0.019679820536351533;-0.1366370959518711;5.6309485282328335;2.5449115023034614;0;0.1392618732241541
53.7313879;86.8492119;10.0;-0.0805547058223717;0.006831854797593628;-0.1407158152340165;6.038157229675962;2.276555133344519;0;0.1622857835026781
53.7315258;86.8492474;10.0;-0.0142755174875089;0.006831854797593628;-0.1386764555929438;5.948028837864733;2.0663099260792306;0;0.1395765882063797
53.7316284;86.8492476;10.0;0.0040787192821454;0.025186091567248048;-0.133578056490262;5.80253803886785;1.9781077506093425;0;0.1359929128121461
53.731724;86.8492664;11.0;-0.0071377587437544;-0.0013255837666972248;-0.1172631793616804;4.679199376296795;1.863860881346615;0;0.11748769299895288
53.7318323;86.8492723;13.0;-0.0010196798205363;-0.01050270215152449;-0.1029876618741715;3.81933242898626;1.727662202972123;0;0.10352683225970319
53.7319559;86.8492679;14.0;0.0081574385642908;0.006831854797593628;-0.0856531049250535;2.928957996541028;1.6390009117487911;0;0.08631148490906529
53.732112;86.8492448;16.0;0.020393596410727;-0.01050270215152449;-0.0672988681553992;1.8094640332384468;1.614212163358409;0;0.07110093657642676
53.7322769;86.8492049;16.0;0.0183542367696543;0.0007137758743755995;-0.0876924645661262;3.0143080628049743;1.57280774415058;0;0.08959551230433738
53.7324775;86.8491495;15.0;0.0152951973080452;-0.005404303048842873;-0.087182624655858;2.9553784833299908;1.5756652787155117;0;0.0886789692882139
53.7326379;86.8490283;14.0;-0.0010196798205363;0.013969613541347958;-0.0876924645661262;3.0822178829544375;1.8425517625103116;0;0.08880404377680286
53.7327652;86.8489252;12.0;0.0050983991026817;0.013969613541347958;-0.1264402977465075;5.307157595239289;2.2154421480294735;0;0.12731179313060637
53.7328675;86.8487971;11.0;-0.0244723156928724;0.003772815335984392;-0.1193025390027531;4.826858063342064;2.136755386345954;0;0.1218450827216038
53.7330006;86.8485462;11.0;-0.0458855919241358;-0.007443662689915698;-0.1244009381054349;5.032133995851237;2.1412457835700467;0;0.13280244373497727
53.7330552;86.8483704;12.0;0.0142755174875089;-0.0003059039461608126;-0.1147139798103395;4.541377826646275;2.208413638734994;0;0.11559922638446776
53.7330958;86.848155;13.0;0.0020393596410727;0.009890894259202643;-0.0999286224125624;3.763156634081989;1.878626807054848;0;0.10043763415306452
53.7331456;86.8475904;13.0;-0.0071377587437544;-0.0003059039461608126;-0.1070663811563169;4.109162434945409;1.6328381053906753;0;0.10730447870903642
53.7331534;86.8473678;12.0;0.0;0.005812174977057216;-0.1040073416947078;3.972295547965291;1.378014714651951;0;0.10416961411257906
53.7331538;86.8471378;11.0;0.0112164780258998;0.02212705210563881;-0.1244009381054349;5.2495158893717715;1.2698367172305858;0;0.1268503418036522
53.7331598;86.846939;11.0;-0.0040787192821454;-0.003364943407770049;-0.1264402977465075;5.182282049455456;1.2343834594924332;0;0.1265508107020477
53.7331765;86.8467253;13.0;-0.0040787192821454;0.018048332823493385;-0.1050270215152442;4.104947178470528;1.1583870264577274;0;0.10664451939529618
53.7331952;86.846488;14.0;-0.0091771183848271;-0.0003059039461608126;-0.0938105434893443;3.3574101624865103;1.0159464615261071;0;0.09425885183280966
53.733208;86.8462192;15.0;-0.0326297542571632;0.0007137758743755995;-0.095849903130417;3.4760550999070396;0.8716509817802092;0;0.10125420617925965
53.7332246;86.8459542;16.0;-0.0438462322830631;0.0007137758743755995;-0.0846334251045171;2.8364174718290416;0.9137640796152984;0;0.09531955836207526
53.7332781;86.8454189;18.0;-0.0443560721933312;0.006831854797593628;-0.092790863668808;3.332317129785829;0.9407027061615256;0;0.10307414690793577
53.7332857;86.8450937;17.0;0.0071377587437544;0.005812174977057216;-0.0876924645661262;3.0406067992808197;1.0076963008023463;0;0.08817424408255095
53.7332871;86.8447879;17.0;-0.0265116753339451;-0.0059141429591109684;-0.1009483022330988;3.7287430233812966;0.8264921748569043;0;0.10453901539472416
53.7333017;86.8444953;15.0;-0.0632201488732537;0.003262975425716408;-0.0999286224125624;3.713695973667142;0.5132818055594917;0;0.11829270395699668
53.7333028;86.8439588;14.0;-0.0295707147955541;-0.014581421433669917;-0.095849903130417;3.3945727057299973;0.4025709373907975;0;0.10136196996239079
53.7332949;86.8436949;13.0;-0.0061180789232181;0.004792495156520804;-0.113184460079535;4.488220835781799;0.2819905576871309;0;0.11345096254784202
53.7332928;86.8434368;12.0;0.0224329560517997;0.025186091567248048;-0.0978892627714897;3.7328202528470484;0.18830243101015354;0;0.10353687503301197
53.7332887;86.8432023;13.0;-0.0300805547058223;-0.014581421433669917;-0.1203222188232894;4.760344395430391;0.21677841088227856;0;0.12487951779613739
53.7332755;86.8429331;14.0;-0.0571020699500356;-0.007443662689915698;-0.0744366268991536;2.218966987037584;0.4177707643254782;0;0.09411092354739592
53.7332501;86.8426005;17.0;-0.0438462322830631;-0.002345263587233637;-0.0815743856429081;2.6482526969630094;0.5041617326591723;0;0.09264109638671068
53.7332651;86.8418987;20.0;-0.0050983991026817;0.018048332823493385;-0.078515346181299;2.571495141961944;0.573481433511948;0;0.08072419449636545
53.7332922;86.8415162;20.0;0.0122361578464362;-0.0003059039461608126;-0.0652595085143265;1.7323828621425639;0.8308897569205154;0;0.06639744413453452
53.7332937;86.8411593;20.0;-0.0367084735393086;-0.0003059039461608126;-0.078515346181299;2.485013993785053;1.0195101102103332;0;0.08667332457440191
53.7333225;86.8408041;19.0;-0.0499643112062812;-0.007443662689915698;-0.0866727847455898;2.9111783196295917;1.185045143988198;0;0.1003195500593713
53.7333665;86.8404897;19.0;-0.0622004690527174;0.003772815335984392;-0.07545630671969;2.3230445281467436;1.2693687190289429;0;0.09786105818819572
53.7334343;86.8401479;18.0;-0.0183542367696543;-0.014581421433669917;-0.0800448659121036;2.5102415821035216;1.574474146341506;0;0.08340669288078423
53.7335408;86.8398704;18.0;0.0010196798205363;0.01498929336188437;-0.0703579076170082;2.0856145982506904;1.3950824835503823;0;0.07194410209786832
53.733637;86.8395826;19.0;0.0071377587437544;-0.016620781074742297;-0.0805547058223717;2.5304093683269935;1.6102671710141712;0;0.08256063585963591
53.7337612;86.8393228;19.0;0.0198837565004588;-0.012542061792597092;-0.0815743856429081;2.6051421212231567;1.5335611901718793;0;0.08489433125713844
53.7339059;86.8391347;19.0;0.0224329560517997;-0.009483022330988078;-0.0897318242071989;3.0783606570444473;1.5997057325475899;0;0.09297830663818116
53.7340203;86.8389163;17.0;0.0081574385642908;0.0007137758743755995;-0.0836137452839808;2.7828364835837744;1.7543255312428998;0;0.084013758875219
53.734126;86.8386892;15.0;-0.0224329560517997;-0.01050270215152449;-0.0703579076170082;1.9819068057836415;1.5909841700766514;0;0.07459074630240052
53.7342177;86.8381153;20.0;0.0101967982053635;0.016008973182420783;-0.0632201488732537;1.675930124834002;1.3897522380314018;0;0.06600794754840308
53.7342412;86.8377292;23.0;0.0356887937187723;-0.012542061792597092;-0.0356887937187723;0.017401319249286562;1.4819929994365082;0;0.05200656985623534
53.7342463;86.8373247;25.0;-0.0152951973080452;-0.012542061792597092;-0.058121749770572;1.2849025368448275;1.6692988253496595;0;0.06139531066045959
53.7342541;86.8368717;25.0;-0.0193739165901906;-0.01050270215152449;-0.0397675130009177;0.253252216413693;1.8633569262766485;0;0.04546548676529767
53.7342817;86.8364385;24.0;-0.0356887937187723;0.003772815335984392;-0.061180789232181;1.5120155389824288;1.8943143013508879;0;0.07092963487663725
53.7343546;86.836025;24.0;-0.029060874885286;-0.04109309676761508;-0.0530233506678902;0.9144479854065377;1.857495039409307;0;0.07310713212198161
53.7345029;86.8356869;25.0;-0.0560823901294993;0.002753135515448202;-0.0530233506678902;1.038743088865898;1.7296277624566516;0;0.07722881556681958
53.7346953;86.8353929;26.0;0.0723972672580809;0.00785153461813004;-0.0152951973080452;-1.1191262534615158;1.5552096604987304;1;0.07441071134581177
53.7348917;86.8350773;30.0;-0.1009483022330988;-0.03497501784439683;-0.0081574385642908;-1.5505497638049297;1.5209375922256565;1;0.1071464203830026
53.7351238;86.834695;31.0;0.0040787192821453;-0.006169062914244794;-0.0056082390129499;-1.6806476464294497;1.5450102655738736;0;0.00928146718190759
53.7353775;86.8341551;28.0;-0.0163148771285816;-0.016620781074742297;-0.0346691138982359;-0.047089929549170906;1.5585719094809174;0;0.041765692113792156
53.7356363;86.8337995;27.0;-0.0050983991026817;-0.01050270215152449;0.0040787192821454;-2.231260299188467;1.5843308488932788;0;0.012366744797092218
53.7358655;86.8333631;25.0;0.058121749770572;0.0527174467217294;-0.0356887937187723;0.1535474392456262;1.5841913567341523;0;0.08620299868538475
53.7359025;86.8328625;21.0;0.061180789232181;0.002753135515448202;-0.0672988681553992;1.8535094354818962;1.509861936785185;1;0.09099344141880107
53.7358743;86.8325015;16.0;-0.0224329560517997;0.031304170490465966;-0.1147139798103395;4.751780546859036;1.4958637559467132;0;0.12100613939484689
53.7357532;86.8318684;18.0;-0.0275313551544814;0.003772815335984392;-0.0672988681553992;1.8632018096959282;1.6583852090503635;0;0.07281035164864563
53.7356952;86.8314776;25.0;-0.0132558376669725;-0.009483022330988078;-0.0428265524625267;0.4290641599484224;1.643284447204045;0;0.04582312233587643
53.7356468;86.8310452;29.0;-0.0152951973080452;-0.022738859997960326;-0.0132558376669725;-1.257507315763744;1.5247099574275187;0;0.03044201121726356
53.7355722;86.8303818;29.0;-0.0244723156928724;-0.0064239828693790635;-0.0101967982053635;-1.419687034962636;1.5512552828122665;0;0.02727886516918526
53.7355242;86.8299498;29.0;-0.0356887937187723;-0.0008157438564291297;-0.0101967982053635;-1.4166336575614147;1.4667519095374564;0;0.03712586872763097
53.735464;86.8294544;29.0;0.0071377587437544;-0.024778219639033372;-0.0173345569491179;-1.030933583694001;1.2435023308289832;0;0.03107080032742049
53.7354231;86.8289271;30.0;-0.0193739165901906;0.004792495156520804;-0.0173345569491179;-1.002310132835152;1.3800593738175992;0;0.02643489206505579
53.7353749;86.8283669;30.0;-0.0367084735393086;-0.0064239828693790635;-0.0061180789232181;-1.6519331246215387;0.9111544369211222;0;0.03776520190867409
53.7353296;86.8278864;29.0;-0.0214132762312633;-0.007443662689915254;-0.0122361578464362;-1.3042911801285322;0.7877066337818903;0;0.025761600727449454
53.735268;86.8273896;29.0;-0.0152951973080452;0.0017334556949117896;0.003059039461609;-2.175553246628658;0.5958018042459008;0;0.015694127939007516
53.7352104;86.8268968;30.0;-0.0142755174875089;-0.029366778831446894;-0.0010196798205363;-1.9432488838341426;0.47953889873840305;0;0.03266860641973726
53.7351422;86.8262398;30.0;-0.0224329560517997;0.00785153461813004;-0.023452635872336;-0.6462271042880383;0.5858900439942178;0;0.03339027167367844
53.7351097;86.8257465;29.0;-0.0091771183848271;-0.027072499235240244;-0.0035688793718771;-1.8009169356266825;0.7818935675346843;0;0.02880757915310179
53.7350361;86.8251353;28.0;-0.0285510349750178;0.016008973182420783;-0.0061180789232181;-1.6439112623269707;0.7587150779695104;0;0.03329984549830349
53.7349911;86.8246039;29.0;-0.0193739165901906;-0.002345263587233637;-0.0112164780258998;-1.3589932983573554;0.706014049761361;0;0.022509071163483392
53.73491;86.8241388;29.0;0.0112164780258998;-0.011522381972060902;-0.0010196798205363;-1.9422457279194432;0.6766920410961086;0;0.016112554501132838
53.7348183;86.8236119;29.0;-0.061180789232181;-0.015601101254206107;-0.0132558376669725;-1.2535590105440466;0.6401528147988829;0;0.0645151188766608
53.734701;86.8231362;30.0;-0.0387478331803813;-0.03497501784439683;-0.0015295197308045;-1.9153857741625255;0.4895860074841578;0;0.0522205503609207
53.7346162;86.8226418;30.0;-0.0418068726419904;0.01498929336188437;-0.0122361578464362;-1.288927907469548;0.3732394300682804;0;0.04606752733146352
53.7344859;86.8215643;31.0;-0.0244723156928724;-0.011522381972060902;-0.0122361578464362;-1.3071424222469323;0.5492379769510061;0;0.029688096613366525
53.7344607;86.8210271;31.0;-0.0035688793718772;0.012949933720811546;0.0081574385642908;-2.473504963748699;0.6591601483360816;0;0.01571564466621084
53.7344007;86.8205063;27.0;-0.0214132762312633;-0.020699500356887945;0.0244723156928724;-3.3731598174857775;0.6960973292499799;0;0.03854726902587002
53.7343415;86.8200887;20.0;-0.0193739165901906;-0.04109309676761508;0.049454471296013;-4.7191753575397115;0.6951938843194925;0;0.06715456780565572
53.7342769;86.8197937;13.0;-0.0346691138982359;-0.025797899459569784;0.0652595085143265;-5.638082278415689;0.7452741475928466;0;0.07827057254515504
53.7341903;86.8195791;0.0;-0.0254919955134087;-0.004384623228306239;0.0020393596410727;-2.116298995635495;0.8852718246059208;0;0.025946594070426432
53.73419325;86.81958205000001;0.0;-0.0265116753339451;-0.0059141429591109684;0.0040787192821453;-2.2322375126974907;0.7403557611073035;0;0.027467835133767982
53.7341953;86.8195585;0.0;-0.0295707147955541;-0.002345263587233637;-0.0061180789232181;-1.6504365099946086;0.711837610278514;0;0.030287923740730922
53.734193;86.8195818;0.0;-0.0285510349750178;-0.007443662689915698;-0.0010196798205363;-1.9420316143954446;0.7042831196088064;0;0.02952303269182117
53.7341924;86.8195812;2.0;-0.0214132762312633;-0.009483022330988078;-0.0469052717446721;0.6597172840300867;0.5212719713743394;0;0.05242671674755095
53.7341648;86.819528;5.0;-0.0163148771285816;-0.016620781074742297;0.0040787192821454;-2.2298419080385417;0.5846233377314347;0;0.023644482025152746
53.7341255;86.8194631;7.0;0.020393596410727;-0.005404303048842873;-0.0520036708473539;0.9603282820176515;0.4336004542532039;0;0.056120290872440026
53.7340404;86.8194036;12.0;0.0081574385642908;-0.012542061792597092;-0.0265116753339451;-0.5001997260111122;0.4494558277840055;0;0.03044201121726381
53.7338922;86.8193322;17.0;-0.0356887937187723;0.00887121443866623;-0.0367084735393086;0.1197238870059758;0.5341293382636527;0;0.051960566512539115
53.7336913;86.8192593;19.0;-0.0438462322830631;-0.013561741613133504;0.003059039461609;-2.1727627861371075;0.6129557750035526;0;0.04599750692623898
53.7334889;86.8192361;18.0;-0.0489446313857448;-0.0064239828693790635;0.0326297542571632;-3.854772931446119;0.8196935236780645;0;0.059173857067757296
53.7333182;86.8192446;17.0;-0.0305903946160905;-0.011522381972060902;0.0489446313857448;-4.768951851463552;0.7026346444776397;1;0.05885672833724831
53.7331396;86.819194;19.0;-0.0418068726419904;0.04150096869582964;0.0061180789232181;-2.365365405810198;0.769793270906052;1;0.0592247911985054
53.7328962;86.8191042;28.0;-0.0805547058223717;0.003772815335984392;0.0214132762312633;-3.227342506611433;0.7114688906766282;1;0.08343754049973351
53.7326151;86.8188999;33.0;-0.0040787192821454;-0.012542061792597092;-0.0173345569491179;-1.0192092553471395;0.6349716991372891;1;0.021781325249260665
53.7322971;86.8186587;32.0;-0.0173345569491179;-0.0003059039461608126;0.037728153359845;-4.159655120041242;0.5418575689181355;1;0.04152100670492555
53.7318219;86.8183627;33.0;-0.0438462322830631;-0.022738859997960326;-0.0035688793718772;-1.8002488705984085;0.46283315228865085;1;0.04952054865808916
53.7315175;86.8181095;32.0;0.0275313551544814;0.05985520546548384;0.0152951973080452;-2.931662368301796;0.43507946704555356;1;0.06763552467933925
53.731217;86.8179114;30.0;0.0066279188334862;-0.017130620985010836;0.035178953808504;-3.980826916234091;0.5702872813377882;1;0.03968559278196853
53.7308576;86.8176544;29.0;0.0152951973080452;-0.0308962985622514;-0.0050983991026817;-1.7166715761148568;0.7685614168231589;1;0.034849935422465804
53.7305978;86.8174458;29.0;-0.0163148771285816;-0.013561741613133504;-0.0040787192821454;-1.769464591001533;0.8144159662185455;1;0.021603981167475975
53.730339;86.817187;28.0;-0.0540430304884266;0.00785153461813004;-0.0112164780258998;-1.353243657579858;0.8126392812828651;1;0.05575038223670035
53.7300891;86.8169115;27.0;-0.0509839910268175;-0.022738859997960326;0.0050983991026817;-2.2852654394427625;0.5473657361599542;0;0.056057263297807115
53.7298994;86.8165426;28.0;-0.0815743856429081;0.0007137758743755995;0.0010196798205363;-2.0582712268401178;0.2724610692072331;0;0.08158388085861779
53.7297609;86.8161481;29.0;0.0010196798205363;-0.022738859997960326;-0.023452635872336;-0.6863695289806659;0.016450511490766706;0;0.032682130137180944
53.7294691;86.8151907;32.0;-0.0540430304884266;-0.033955338023860415;-0.0010196798205363;-1.9435723315034983;-0.1946112903349646;1;0.0638330155297714
53.7293335;86.8146711;31.0;-0.0367084735393086;-0.04721117569083311;0.0326297542571632;-3.7835906834409667;-0.598432806710945;1;0.06812567799721109
53.7292033;86.8141569;31.0;-0.0244723156928724;-0.03803405730600584;0.0418068726419904;-4.305703861840496;-1.112705347187184;0;0.06158975848817521
53.729075;86.8136958;31.0;-0.0173345569491179;-0.0003059039461608126;0.0142755174875089;-2.817498544903791;-1.1438922120772967;0;0.022458202095952846
53.728775;86.812679;30.0;-0.0239624757826042;-0.003874783318037922;0.0484347914754766;-4.761470263985622;-1.4791265505203905;0;0.05417696204722574
53.7286439;86.8120615;29.0;-0.0418068726419904;0.023146731926175224;0.0244723156928724;-3.4337727794684416;-1.6574072309933081;1;0.053688732843469436
53.7286308;86.8116132;24.0;-0.0948302233098807;0.08177832160701537;0.0071377587437544;-2.443021179186521;-1.757291976842307;1;0.12542492869340735
53.7287564;86.811278;21.0;-0.1519322932599164;-0.01050270215152449;-0.029060874885286;-0.3709942766635852;-1.7221177834033834;1;0.15504277776407102
53.7289606;86.8111494;22.0;-0.0836137452839808;-0.009483022330988078;-0.0530233506678902;0.9964699313020646;-1.2952688554797507;0;0.09946186117801381
53.7291895;86.8110967;26.0;-0.0795350260018354;-0.04007341694707889;-0.0509839910268175;0.7982135912797803;-0.8060516279050152;0;0.10262098444250899
53.729445;86.8109426;30.0;-0.0328846742122973;0.032833690221270584;-0.0224329560517997;-0.6720573733872326;-0.3401162435579206;0;0.05160126479861969
53.7298195;86.8107795;30.0;-0.0356887937187723;-0.0003059039461608126;-0.0091771183848271;-1.4746995988261844;0.03457019582032239;0;0.036851093283300156
53.730128;86.8106528;33.0;-0.0499643112062812;-0.005404303048842873;-0.0040787192821454;-1.767850521694318;0.18027873236365632;0;0.050420976158186324
53.7304686;86.810507;33.0;-0.0479249515652085;-0.0013255837666972248;0.0010196798205363;-2.058279274849084;0.458851782451537;0;0.047954122886218246
53.7307976;86.8103496;33.0;0.0081574385642908;-0.03701437748546965;0.0265116753339451;-3.4644245709376023;0.6626913092085995;1;0.046254479497444725
53.7311252;86.8101396;28.0;0.0152951973080452;-0.0008157438564291297;0.0091771183848271;-2.525305511757782;1.0165109530351875;1;0.017855755390922743
53.7314425;86.8098169;25.0;-0.0601611094116447;-0.1073722851024781;0.0112164780258998;-2.5794696788001077;1.3224950109825737;1;0.12358792850870677
53.7316109;86.8094733;23.0;0.0499643112062812;-0.009483022330988078;-0.0142755174875089;-1.190801086867964;1.753991632585648;1;0.05282187526379869
53.7317521;86.8091281;21.0;-0.0010196798205363;0.0843275211583564;-0.0678087080656673;2.2352170774217335;2.073109978870498;1;0.10821363805539647
53.7318128;86.808856;17.0;0.0856531049250535;-0.012542061792597092;-0.0836137452839808;2.703938201953645;2.3466059385389815;0;0.12035371243848679
53.7318257;86.8085873;14.0;0.0795350260018354;0.002753135515448202;-0.0968695829509534;3.5306821687092063;2.436476932863494;0;0.12536792339897274
53.73184;86.8083456;13.0;0.0071377587437544;0.0007137758743755995;-0.0907515040277353;3.189025773158132;2.449125291957556;0;0.09103456793536695
53.7318316;86.8081324;14.0;-0.0254919955134087;-0.002345263587233637;-0.0825940654634444;2.709060834549901;2.2771259481813604;0;0.08647035183419224
53.7317923;86.8074019;23.0;-0.0642398286937901;0.0017334556949117896;-0.040787192821454;0.3348665476914694;2.3441754294719783;0;0.076114095655852
53.731773;86.8069474;25.0;-0.0499643112062812;-0.009483022330988078;0.0193739165901906;-3.0981370650837645;2.5364448122400836;0;0.05442158350224475
53.7317832;86.8065224;25.0;-0.0265116753339451;-0.009483022330988078;0.0122361578464362;-2.6942209413003604;2.602354095609467;0;0.030700491859014797
53.7317855;86.8060639;25.0;0.0193739165901906;0.0007137758743755995;0.0428265524625267;-4.453571151143379;2.2306136031559873;0;0.04701033626627292
53.7317749;86.8056181;24.0;0.0040787192821454;0.0063220148873252;0.0499643112062812;-4.878509109450558;1.583752501473013;0;0.05052757878165372
53.7317353;86.8052201;22.0;-0.0275313551544814;-0.016620781074742297;0.0275313551544814;-3.5506935627916105;1.0792581135309804;0;0.04233439968653023
53.731714;86.8048404;22.0;0.0020393596410727;-0.014581421433669917;0.0489446313857448;-4.76187076899846;0.7412594940621131;0;0.051111190362369364
53.7316838;86.8044774;23.0;-0.0254919955134087;-0.019679820536351533;0.0703579076170082;-5.945923576477053;0.4524670835941389;1;0.07737811276996948
53.7316469;86.8040565;21.0;0.0107066381156316;0.019068012644029797;0.0693382277964719;-6.043048323004656;0.33217427684871237;1;0.07270495883973392
53.7315872;86.8037152;22.0;0.0152951973080452;0.009890894259202643;0.0693382277964719;-6.005458166814395;0.002054104769654952;1;0.07169074336268379
53.7315117;86.8033325;23.0;0.0040787192821454;0.010910574079738833;0.058121749770572;-5.362969527243942;-0.08840819231579422;1;0.05927743562372617
53.7314396;86.802902;23.0;-0.0642398286937901;-0.013561741613133504;0.0683185479759355;-5.848457535355713;-0.11777182839535305;1;0.0947528386051262
53.7313507;86.8025059;24.0;0.020393596410727;-0.011522381972060902;0.058121749770572;-5.287914282789176;-0.1571645015686176;1;0.06266419916720134
53.7312564;86.8021044;25.0;-0.0815743856429081;-0.005404303048842873;0.037728153359845;-4.14200383117924;-0.20649097114276804;1;0.0900388829362382
53.7311451;86.8017371;27.0;-0.1310288569389212;-0.009483022330988078;0.0183542367696543;-3.0329634868525925;-0.3319523739384449;1;0.13264752945549654
53.7310947;86.8012515;29.0;-0.1488732537983073;-0.019679820536351533;0.0336494340776996;-3.8702609974603464;-0.37609127075658577;1;0.15389225271789245
53.7311735;86.8008183;26.0;-0.0652595085143265;-0.007443662689915698;-0.0244723156928724;-0.6113825449136432;-0.2188467216235388;0;0.07009355035339775
53.7312999;86.8004327;25.0;0.0071377587437544;-0.002345263587233637;-0.0428265524625267;0.4464894198448368;0.025901100718018766;0;0.04348058712808738
53.7314501;86.7999429;27.0;0.0305903946160905;-0.025797899459569784;0.023452635872336;-3.3091333293955785;0.29092788231116273;1;0.046382431896727784
53.731497;86.7992986;29.0;0.0081574385642908;-0.03497501784439683;0.0163148771285816;-2.9030818565222742;0.5261291341019381;0;0.03944579689734725
53.7314428;86.798758;30.0;-0.0907515040277353;-0.03446517793412873;0.0489446313857448;-4.698520501895858;0.6063142909387484;1;0.10871642431028371
53.731408;86.7982368;29.0;-0.0509839910268175;-0.022738859997960326;-0.0132558376669725;-1.2583451544193638;0.7385849906262449;0;0.057377176013486186
53.7314099;86.7977267;28.0;-0.0254919955134087;-0.003364943407770049;0.0275313551544814;-3.571239140983754;1.0148750070823045;0;0.037671477221305434
53.7314191;86.7972495;26.0;0.0142755174875089;0.002753135515448202;0.0081574385642908;-2.468618670711924;1.3617489329372465;0;0.016670751591718155
53.7314222;86.7968174;23.0;0.0509839910268175;-0.02528805954930169;0.003059039461609;-2.170735662477525;1.5852587656821207;0;0.05699307869574442
53.7314308;86.7964164;20.0;0.0295707147955541;-0.008463342510451666;0.0265116753339451;-3.505265573327441;1.6054894688238326;0;0.04060694853078391
53.7314437;86.7961221;15.0;0.0244723156928724;-0.01866014071581512;-0.0122361578464362;-1.3119940018449494;1.882070996431254;0;0.03311825245613863
53.7314417;86.7958385;13.0;0.0163148771285816;-0.02375853981849696;-0.0152951973080452;-1.1441596930931128;1.795926157767274;0;0.03262800163540289
53.7314346;86.7955754;13.0;0.0020393596410727;0.0017334556949117896;-0.0122361578464362;-1.2977390302653702;1.3463098922395171;0;0.012525470659211191
53.73142;86.795356;15.0;-0.0479249515652085;-0.0288569389211788;-0.0295707147955541;-0.35547859061060016;0.6715327933128861;0;0.06327678152330621
53.7313998;86.7950798;18.0;-0.0305903946160905;-0.015601101254206107;-0.0397675130009177;0.2413484221718858;0.2572233441429832;0;0.05254161867881773
53.7314179;86.7946627;21.0;-0.0479249515652085;-0.019679820536351533;-0.0734169470786173;2.1136642832699177;0.15483300194927097;0;0.08985624317327694
53.7314514;86.7942866;25.0;-0.0846334251045171;-0.0502702151524419;-0.0428265524625267;0.3275028387472245;0.1587825172535835;0;0.1073500105832331
53.7315499;86.7938731;29.0;-0.0061180789232181;0.02824513102885695;-0.0050983991026817;-1.6994012680617832;0.2084483844846201;1;0.029346413579145386
53.7316684;86.7934028;26.0;-0.0428265524625267;0.05781584582441124;-0.023452635872336;-0.5755709528313842;0.022592882744665976;0;0.07567570120968833
53.7317712;86.7930192;25.0;-0.058121749770572;-0.01050270215152449;-0.003059039461609;-1.8268383513789368;-0.12545849978081502;0;0.05914222071671223
53.731889;86.792625;21.0;-0.0723972672580809;0.024166411746711636;0.0249821556031406;-3.4624819174119725;-0.44686563325667805;1;0.08030870352414565
53.732127;86.7921718;17.0;-0.0418068726419904;0.013969613541347958;0.0285510349750178;-3.657078430466557;-0.47884027335557633;0;0.052517866490775375
53.7322802;86.7921458;12.0;-0.0489446313857448;0.03946160905475682;-0.0662791883348628;1.9421752953544522;-0.173108411401385;1;0.09135494697609492
53.7324067;86.7921699;14.0;-0.0509839910268175;-0.01764046089527893;-0.0836137452839808;2.691260573383291;0.18650409866269912;0;0.0995078469369873
53.7325309;86.7922685;12.0;-0.040787192821454;0.013969613541347958;-0.1254206179259712;5.242826117763208;0.37664164630946084;0;0.1326238161179263
53.7326502;86.7923622;12.0;0.0020393596410727;-0.003364943407770049;-0.1060467013357805;4.033240636052503;0.9673492155496604;0;0.1061196715792287
53.7327508;86.7924628;13.0;0.0326297542571632;0.009890894259202643;-0.1142041399000713;4.576166111370457;1.5557875439646356;0;0.11918521813733718
53.7328552;86.7925928;13.0;0.0193739165901906;-0.0064239828693790635;-0.0983991026817579;3.5830911023355556;1.8934158640200938;0;0.1004937789543456
53.7329706;86.7927338;14.0;0.0010196798205363;-0.007443662689915254;-0.0876924645661262;2.974743065149295;2.129745241756984;0;0.08801372735465159
53.7330846;86.7929502;15.0;0.0142755174875089;-0.01050270215152449;-0.1019679820536351;3.7615367746649984;2.3146630691393986;0;0.10349669809279066
53.7332094;86.7931262;15.0;0.0020393596410727;-0.0003059039461608126;-0.0876924645661262;3.010052881574791;2.387379633780254;0;0.08771670825248296
53.7333223;86.7933159;14.0;-0.0244723156928724;0.017028653002957195;-0.1254206179259712;5.269043697332234;2.54059563051246;0;0.1289154787424659
53.7334161;86.7934609;13.0;-0.0193739165901906;0.00887121443866623;-0.0836137452839808;2.821259769721987;2.638030222221181;0;0.08628618365691511
53.7335296;86.7936;17.0;0.0662791883348628;-0.015091261343938012;-0.0734169470786173;2.127981311836443;2.5202354282667216;0;0.10005361109736992
53.7336831;86.7938047;20.0;0.0423167125522584;-0.004384623228306239;-0.0593963495462424;1.381369290656043;2.070385318346221;0;0.0730606283952176
53.7339332;86.7939268;21.0;0.0010196798205363;0.004792495156520804;-0.078515346181299;2.5109155043822042;1.827685136147046;0;0.07866808338030683
53.734201;86.7940666;23.0;-0.0142755174875089;-0.016620781074742297;-0.0718874273478127;2.0443769787708304;1.6777285131947783;1;0.07515213219701576
53.7344196;86.794234;20.0;0.061180789232181;0.0343632099520752;-0.0601611094116447;1.5579185515337124;1.3236848167129358;1;0.09242985586336723
53.7345737;86.7943881;20.0;-0.0438462322830631;0.11389823595391046;-0.1040073416947078;4.686427875426416;0.8972234099906451;0;0.16035219788089183
53.7347571;86.7945715;19.0;-0.0683185479759355;0.011930253900275356;-0.0734169470786173;2.2393778745916304;0.6182761554574729;0;0.10099407444998806
53.7350556;86.7948956;15.0;-0.0601611094116447;-0.045171816049760505;-0.0887121443866625;2.8435465709900116;0.6346668571528751;0;0.11631722405797579
53.7351812;86.7950212;14.0;-0.0244723156928724;0.00887121443866623;-0.1121647802589986;4.454669451207642;0.579318756035982;0;0.11514569297866878
53.7352885;86.7951797;12.0;-0.037728153359845;-0.01764046089527893;-0.0989089425920261;3.547603761628733;0.48183744530219874;0;0.10731998109026372
53.7354139;86.7953307;13.0;-0.0652595085143265;-0.016620781074742297;-0.0876924645661262;2.919983922030143;0.3677588502761342;0;0.1105668221337091
53.7355258;86.7955194;16.0;-0.0367084735393086;-0.021719180177423913;-0.0693382277964718;1.8798877741943358;0.34922210661195363;0;0.08140653936337632
53.7356826;86.7957274;15.0;-0.0749464668094218;-0.019679820536351533;-0.0652595085143265;1.6521108250218015;0.011765397668924038;0;0.10130681948955965
53.7358315;86.7959787;15.0;-0.0438462322830631;0.01498929336188437;-0.0825940654634444;2.7883725739302845;-0.3436168145291987;0;0.09470454398120871
53.7359301;86.7961541;12.0;0.0295707147955541;-0.002345263587233637;-0.0275313551544814;-0.42733984261805635;-0.3715770966327283;0;0.04047101371915208
53.7360268;86.796302;14.0;-0.0091771183848271;-0.0013255837666972248;-0.0917711838482716;3.23629304649054;-0.3799747231835022;0;0.09223842398417771
53.7361495;86.7964247;15.0;-0.0713775874375446;-0.06556541246048742;-0.0815743856429081;2.36799015405572;-0.6061393812446649;1;0.12668055767376482
53.7363317;86.7964789;19.0;-0.0275313551544814;-0.011522381972060902;-0.0081574385642908;-1.5381183217200305;-0.5949542294621306;1;0.030940016271528405
53.73651;86.7965292;16.0;-0.0081574385642908;0.06699296420923839;0.0560823901294993;-5.4397385399555755;-0.6659752118613174;1;0.08774870677171166
53.7366723;86.7965891;15.0;-0.0132558376669725;-0.021719180177423913;-0.0081574385642908;-1.5425968794016243;-0.9937281625196683;1;0.02672047573982749
53.737015;86.7967782;18.0;-0.0764759865402263;-0.04211277658815127;-0.0020393596410727;-1.8881760352238934;-1.3058950743918198;1;0.08732823974528545
53.7372219;86.7969083;21.0;-0.0693382277964719;-0.014581421433669917;-0.0458855919241358;0.5834838728702683;-1.5722794137552207;0;0.08441501780613467
53.7374096;86.796968;20.0;-0.0764759865402263;0.0680126440297748;-0.0163148771285816;-1.0004716065301018;-1.6859143781564878;0;0.1036362459805567
53.7376579;86.7969859;19.0;-0.07545630671969;-0.05128989497297831;0.0458855919241358;-4.492794857328466;-1.8172149919482994;1;0.10212636827158497
53.7378421;86.7969653;11.0;-0.1376567757724074;-0.07882125012746011;0.0254919955134087;-3.3427353823452943;-1.978074664460462;1;0.16066119389250824
53.7379751;86.7969703;13.0;-0.0744366268991536;-0.02987661874171521;-0.0112164780258998;-1.3776346025809771;-2.1927650331974293;1;0.08098909278950531
53.7381152;86.7969056;15.0;-0.0713775874375446;-0.0003059039461608126;-0.0387478331803813;0.21267900056851818;-2.3813425644364985;1;0.08121728967284773
53.7383084;86.7968428;20.0;-0.0825940654634443;-0.0069338227796471585;-0.0137656775772407;-1.2193860335406677;-2.5307181528588245;1;0.08401994660364778
53.7385718;86.796927;20.0;-0.0917711838482716;0.020087692464565987;-0.0112164780258998;-1.3470545774401277;-2.3186757786717704;1;0.09461117773693413
53.7388234;86.7969738;17.0;-0.0509839910268175;0.020087692464565987;0.0214132762312633;-3.2501513150593055;-2.0347644667465685;1;0.058833758409011866
53.739028;86.796948;16.0;-0.147853573977771;-0.021719180177424358;-0.0040787192821454;-1.773633431304149;-2.143051176879611;1;0.1494959466894075
53.7392708;86.7969604;18.0;-0.0244723156928724;-0.009483022330988078;-0.0550627103089629;1.1212152492764766;-1.9111343928360882;1;0.06099773778158003
53.7394406;86.7970022;22.0;-0.0214132762312633;0.012949933720811546;-0.0336494340776995;-0.047949896516011004;-1.5444133748226103;1;0.04193463480321776
53.7397299;86.7970355;21.0;-0.0418068726419904;-0.07882125012746011;0.0601611094116447;-5.189438335312216;-1.0284766410901782;1;0.10761023723326289
53.739941;86.7970418;19.0;-0.0392576730906495;0.0017334556949117896;0.0244723156928724;-3.4032297237189715;-0.8325972371618797;1;0.046293239252726055
53.7401477;86.7970693;19.0;-0.0469052717446721;-0.0308962985622514;-0.0316100744366268;-0.24552039440411688;-0.2768618290178466;0;0.064450621317241
53.7403492;86.797066;18.0;-0.0397675130009177;-0.0003059039461608126;-0.0632201488732537;1.613483318855006;0.20887106663840793;0;0.07468825805345038
53.7407306;86.7970634;20.0;-0.0571020699500356;-0.06760477210156002;-0.0214132762312633;-0.8525946715807045;0.6133502637031569;1;0.09104713066560094
53.7409432;86.7970456;21.0;0.003059039461609;0.018048332823493385;-0.0061180789232181;-1.6430233014257654;0.9506182217345431;0;0.01930106032957763
53.7413965;86.7969357;21.0;-0.0285510349750178;0.009890894259202643;0.0448659121035994;-4.593455764830525;1.3652223585512837;0;0.05409197219809354
53.7416317;86.7968893;23.0;-0.0020393596410727;0.09146527990211084;0.0173345569491179;-3.0930500912775187;2.0414044171607952;1;0.09311575205054905
53.7418663;86.7968167;22.0;-0.0091771183848271;0.016008973182420783;0.0214132762312633;-3.246600194900452;2.4117741079255133;1;0.028267209327434237
53.7421255;86.7966919;21.0;-0.0392576730906495;-0.027837259100642386;0.0122361578464362;-2.681563483562807;2.6353708210414917;1;0.04965683688649032
53.7423617;86.7966209;20.0;0.0550627103089629;-0.05128989497297831;0.0509839910268175;-4.77268090793368;2.891259036234443;1;0.09089511941754916
53.7425333;86.7965365;20.0;0.0173345569491179;-0.06760477210156002;0.0356887937187723;-3.914366574776537;2.688421883949289;1;0.07838738465229696
53.7427741;86.7963677;18.0;0.0295707147955541;-0.0625063729988784;0.0336494340776996;-3.813241715101977;2.743535511767391;1;0.07690096392597669
53.742982;86.796166;17.0;0.0122361578464362;0.08024880187621075;0.0560823901294993;-5.489016921211498;2.743531967349743;1;0.09866523320829677
53.743166;86.7958892;20.0;0.0846334251045171;0.023146731926175224;0.0499643112062812;-4.917116942644089;2.5997716665485573;1;0.10097039287881493
53.7432748;86.7955884;20.0;-0.0035688793718772;-0.003874783318037922;-0.0280411950647496;-0.39998539066897365;2.3798040530696936;1;0.028531727364323613
53.7433544;86.7952072;19.0;0.0020393596410727;0.08228816151728358;-0.0163148771285816;-0.9815181665239918;2.146852303480462;0;0.08391469316729282
53.7434243;86.7948675;20.0;0.040787192821454;-0.002345263587233637;-0.020393596410727;-0.835391287754037;1.799498236931149;0;0.045661735995379
53.7435149;86.7945485;18.0;-0.003059039461609;0.02212705210563881;-0.0122361578464362;-1.2830968620263636;1.3467682144036772;0;0.025469348561677787
53.7435467;86.7942987;10.0;0.0091771183848271;-0.015601101254206107;0.0091771183848271;-2.517697722881358;1.0008833145503875;1;0.020293677932850283
53.7435324;86.794182;3.0;-0.1009483022330988;-0.012032221882328997;0.0489446313857448;-4.7551710017106155;0.5835542748528979;0;0.11283133885874568
53.7435383;86.7941879;3.0;-0.0565922300397675;-0.0008157438564291297;-0.0076475986540226;-1.5628887805284764;0.1959015298454816;0;0.05711244789086065
53.7435427;86.7941411;3.0;-0.0622004690527174;-0.0069338227796471585;-0.0040787192821454;-1.7683586219461207;-0.32791105994430225;0;0.06271851560504405
53.7435431;86.7941671;3.0;-0.0672988681553992;-0.007443662689915698;-0.0061180789232181;-1.6528279381652626;-1.0146169231980657;0;0.06798512086441984
53.7435446;86.794143;3.0;-0.0622004690527174;-0.009992862241256173;-0.0010196798205363;-1.9422640940480849;-1.2288097868246566;0;0.06300631232731517
53.7435452;86.7941436;2.0;-0.0642398286937901;-0.0064239828693790635;-0.0076475986540226;-1.5655142819607841;-1.4322486803743986;0;0.06501160597682987
53.7435485;86.7941725;1.0;-0.0632201488732537;-0.007443662689915698;-0.003059039461609;-1.8263670360674924;-1.6963680927030258;0;0.06373031508022917
53.7435417;86.7941913;1.0;-0.0540430304884266;-0.013561741613133504;-0.0050983991026817;-1.7122030923769045;-1.9631927454131306;0;0.05595144013664553
53.7435394;86.794189;1.0;-0.0489446313857448;-0.003364943407770049;-0.0428265524625267;0.44116887662169857;-1.7280384170718825;0;0.06512306336045227
53.7435366;86.7942118;2.0;-0.0729071071683491;0.024166411746711636;-0.1157336596308759;4.745047915317279;-1.849094385882783;0;0.1389019139678218
53.7435536;86.7941264;10.0;-0.0571020699500356;-0.002345263587233637;-0.0540430304884266;1.0812181713083766;-1.802271369264667;0;0.07865618728520579
53.7436207;86.7939375;16.0;-0.061180789232181;-0.0064239828693790635;-0.0948302233098807;3.372937545029073;-1.395738163723049;0;0.11303595790712118
53.7437468;86.7937308;19.0;-0.0489446313857448;0.02824513102885695;-0.0418068726419904;0.460346986889681;-1.139943818464038;0;0.07029352010269038
53.7438957;86.7934445;23.0;-0.0672988681553992;0.026205771387784238;-0.0560823901294993;1.2882898596915702;-0.6076128205861342;0;0.09143913052771213
53.7440602;86.7931482;25.0;-0.0627103089629856;-0.0003059039461608126;-0.0591414295911083;1.3769650689257835;-0.286337605431056;0;0.08619968167886358
53.7442022;86.7928038;27.0;-0.0254919955134087;-0.014581421433669917;-0.0418068726419904;0.3588531302476121;0.39370201864468557;0;0.051090843469114335
53.7443974;86.7924358;28.0;0.0050983991026817;-0.0064239828693790635;-0.0652595085143265;1.709986449296474;0.9181448641920888;0;0.06577282631032176
53.7445719;86.7920215;29.0;-0.0346691138982359;-0.021719180177424358;-0.0489446313857448;0.7410362187911099;1.2430695484360237;0;0.06379065125513857
53.7448377;86.7915449;29.0;-0.0540430304884266;0.017028653002957195;-0.040787192821454;0.3724763630864678;1.5182040371859389;0;0.06981560904069088
53.7450311;86.7912007;30.0;-0.003059039461609;-0.019679820536351533;-0.0418068726419904;0.34780143865868407;1.7345409015412405;0;0.046308397282504715
53.745247;86.7908022;30.0;0.0193739165901906;-0.04109309676761508;-0.0418068726419904;0.299176770273589;1.9132307061238076;0;0.061739823826278
53.7454533;86.7903685;29.0;-0.0214132762312633;0.0017334556949117896;-0.0346691138982359;-0.011413287262230787;2.0375816773242907;0;0.040785790737602
53.7456582;86.7899846;27.0;0.0458855919241358;0.017028653002957195;-0.0601611094116447;1.4985229952049979;2.1094206200001056;0;0.07755528128350335
53.7458189;86.7896077;24.0;0.0438462322830631;-0.02375853981849696;-0.0397675130009177;0.2224790965240624;2.1295081224668126;0;0.06378413117700663
53.7459961;86.7890681;21.0;0.0132558376669725;-0.013561741613133504;-0.0458855919241358;0.5918820742013118;2.121947748946291;0;0.04965003136013955
53.7460736;86.7887104;18.0;0.0632201488732537;-0.005404303048842873;-0.0397675130009177;0.2606222146347972;2.1043153527327396;0;0.07488290062008984
53.7460069;86.7884645;14.0;0.0305903946160905;0.04048128887529323;-0.0520036708473539;1.1006898678705999;1.7456456276309609;1;0.07265596171941435
53.7458651;86.7884251;14.0;0.0020393596410727;0.011930253900275356;-0.0520036708473539;1.012781098746998;1.417020041228822;0;0.05339355511174169
53.7456801;86.7885473;22.0;-0.0897318242071989;0.01142041399000715;-0.0601611094116447;1.468280369652581;0.9292552948279904;0;0.1086351012191487
53.7454704;86.7887472;27.0;-0.078515346181299;0.0017334556949117896;-0.061180789232181;1.496330679162277;0.3867789397957475;0;0.09955276704184571
53.7452427;86.7890571;27.0;-0.0448659121035994;0.0211073722851024;-0.0448659121035994;0.6214718616931654;0.19055499345795446;0;0.06686868701087022
53.7450067;86.7893075;28.0;-0.0438462322830631;-0.005404303048842873;-0.0642398286937901;1.6524546152722936;-0.19207460191773906;0;0.07796444168639671
53.744774;86.789638;29.0;-0.0448659121035994;0.02212705210563881;-0.0254919955134087;-0.5082733166771127;-0.7820238755938842;0;0.05614622283848853
53.7445369;86.7899385;30.0;-0.0550627103089629;-0.016620781074742297;-0.0418068726419904;0.3514260411122514;-0.9012880712100109;0;0.07110532350117596
53.7442001;86.7903185;30.0;-0.0499643112062812;-0.052309574793514946;-0.0520036708473539;0.8259973232513254;-1.2257706502695518;0;0.08909043602428028
53.7438571;86.7907179;32.0;-0.0428265524625267;-0.033955338023860415;-0.037728153359845;0.0879585350731964;-1.547500382920738;0;0.06641153613706098
53.7435051;86.7910571;32.0;-0.0774956663607627;-0.03803405730600584;0.0020393596410727;-2.112252849559066;-1.8005540051501057;0;0.08635002494267631
53.7432233;86.7912617;29.0;-0.0805547058223717;0.013969613541347958;-0.0586315896808402;1.3916563281911052;-1.8074674208332322;1;0.10060752477387497
53.7429587;86.7914579;29.0;-0.1254206179259712;-0.04211277658815127;-0.0479249515652085;0.6142392394594398;-1.8064247020433433;0;0.14071466993680357
53.7426689;86.7916033;28.0;-0.0275313551544814;0.056796166003874826;-0.020393596410727;-0.7618924917832797;-1.388766981812521;0;0.06633007435504285
53.7424042;86.7917226;28.0;-0.0744366268991536;0.03232385031100238;-0.040787192821454;0.4064665165961583;-1.0620061250257642;0;0.09082531487039479
53.7421233;86.7918001;26.0;-0.0469052717446721;-0.024778219639033372;-0.0530233506678902;0.9588242239053364;-0.7984245937031398;0;0.07500360259328726
53.7418535;86.7918375;27.0;0.0071377587437544;-0.025797899459569784;-0.040787192821454;0.27690771292673055;-0.9622262369753241;0;0.048786005315711006
53.741583;86.7918998;26.0;-0.0662791883348628;-0.039053737126542476;-0.0214132762312633;-0.821784422556562;-1.1442473011249508;0;0.07985395161689672
53.7410174;86.7920766;26.0;-0.0469052717446721;0.029264810849393252;-0.0428265524625267;0.52317693696286;-1.0491120491342492;1;0.06993316285795925
53.740775;86.7920902;20.0;-0.0091771183848271;-0.0288569389211788;-0.0020393596410727;-1.88643523220424;-0.7548537625050531;1;0.030349652609138897
53.7405957;86.7921925;19.0;-0.1193025390027531;-0.032935658203324225;-0.0856531049250535;2.7090734933474856;-0.6479712745022348;1;0.15051348038329274
53.7403908;86.7922948;19.0;-0.0280411950647496;0.002753135515448202;-0.0091771183848271;-1.4729614085712264;-0.4704009593839702;1;0.029632885071738984
53.7402156;86.7923756;19.0;-0.0591414295911083;0.010910574079738833;-0.0101967982053635;-1.410395776458265;-0.35198376865692405;0;0.060997737781580005
53.7400366;86.7925038;20.0;0.0091771183848271;0.01498929336188437;-0.0163148771285816;-1.0511295229426367;-0.318299970495854;1;0.023980692922817667
53.7398441;86.7926185;16.0;-0.0316100744366268;-0.046191495870296695;-0.0224329560517997;-0.7721839093274969;-0.302504904224957;1;0.06029998850619045
53.739684;86.7927144;16.0;-0.0336494340776996;0.00887121443866623;-0.023452635872336;-0.6452688688326671;-0.3472197391514418;1;0.041964377616338276
53.7395634;86.792901;19.0;-0.0938105434893443;-0.024778219639033372;-0.0560823901294993;1.1194479163382822;-0.622699035726201;1;0.11206967797260639
53.7394206;86.7931166;18.0;-0.0703579076170082;0.00887121443866623;-0.0071377587437544;-1.5884188971331337;-0.5550832411856481;1;0.07127328538621118
53.7392775;86.7933319;17.0;-0.0642398286937901;-0.05434893443458755;0.0509839910268175;-4.763316115741226;-0.5379639477485108;0;0.09838663326796583
53.739136;86.7934976;17.0;-0.0101967982053635;-0.014581421433669917;0.0081574385642908;-2.4606363954867674;-0.6564142144142249;1;0.01957386902473222
53.7390054;86.7937254;14.0;0.0163148771285816;-0.0625063729988784;0.037728153359845;-4.03340112186253;-0.44984689684406565;1;0.07481066392660617
53.7388829;86.7938589;13.0;-0.0285510349750178;-0.024778219639033372;-0.0326297542571632;-0.1769798414660495;-0.46618281602601996;0;0.04993818808795258
53.7387381;86.7939189;15.0;-0.0938105434893443;-0.0308962985622514;-0.0091771183848271;-1.4920606536668868;-0.3057387440106005;0;0.09919283661869474
53.7385778;86.7938866;14.0;-0.0387478331803813;0.01498929336188437;-0.0061180789232181;-1.64440518621614;-0.19904163429568378;0;0.04199409936376794
53.7384547;86.7938403;12.0;-0.0693382277964719;0.04557968797797496;-0.0071377587437544;-1.5726401786966868;-0.1883976448044269;1;0.08328412447765196
53.7383619;86.7937475;11.0;-0.0530233506678902;-0.002345263587233637;0.0040787192821454;-2.232819800918984;-0.16496356041615456;1;0.05323168162219
53.7383133;86.7936221;9.0;-0.0122361578464362;0.012949933720811546;-0.0418068726419904;0.4251482946517444;-0.12308726766179579;1;0.045444900069423845
53.7382899;86.7934707;9.0;-0.0326297542571632;0.04659936779851115;-0.0632201488732538;1.791525013011385;-0.057116653072316836;1;0.0850469821078923
53.7382889;86.7932905;10.0;-0.0285510349750178;-0.032935658203324225;0.0112164780258998;-2.621903466607905;0.03860039682130756;1;0.045008094369084116
53.7383409;86.7931633;2.0;-0.0040787192821454;-0.015601101254206107;0.0428265524625267;-4.414637071412106;0.16971599548811156;1;0.04576181713122948
53.738362;86.7931588;2.0;-0.0224329560517997;-0.019679820536351533;0.023452635872336;-3.317252005864619;0.34188225639712044;1;0.03795469645413281
53.7383648;86.7931616;3.0;-0.0601611094116447;-0.0308962985622514;-0.0183542367696543;-0.9817369579828428;0.560751293017367;1;0.0700772313799867
53.7383665;86.7932145;4.0;0.0132558376669725;0.002753135515448202;0.0010196798205363;-2.058579446278726;0.8319752188178802;1;0.013577066485657279
53.7383444;86.7932692;3.0;-0.0142755174875089;0.011930253900275356;0.0142755174875089;-2.8276588415076906;1.1612061472676882;1;0.023450197380776566
53.73832185;86.79329785;1.0;-0.0010196798205363;-0.004384623228306239;-0.0112164780258998;-1.3601755822287815;1.5540961918358218;1;0.012086109675826405
53.7383217;86.7933233;3.0;-0.0428265524625267;-0.011522381972060902;0.0193739165901906;-3.0962829401391794;2.016297465991312;1;0.04839656523121541
53.7383006;86.7933534;3.0;0.0275313551544814;-0.0308962985622514;0.0285510349750178;-3.5858560583963848;2.553462083203185;1;0.050276419717743
