lat;lon;vel;acc_X;acc_Y;acc_Z;fb_tilt;tilt;hole;acc
53.7510189;86.7654701;8.0;-0.0535331905781584;-0.1420413990007141;0.0805547058223717;-6.030305508740298;0.5724243231279158;1;0.17184476178716168
53.751039;86.7655926;6.0;0.0132558376669725;-0.026817579280105974;-0.0132558376669725;-1.260435243108025;0.43725569257348007;1;0.032720284579309866
53.7510615;86.7657175;9.0;-0.0469052717446721;-0.03446517793412873;-0.0448659121035994;0.4808799088835336;0.31770472867685906;1;0.07349083668295385
53.7510935;86.7658775;12.0;-0.0081574385642908;0.01753849291322518;0.0132558376669725;-2.7729883451692077;0.21267359490403392;1;0.023449088891693757
53.7511198;86.7661086;15.0;-0.0479249515652085;-0.0003059039461608126;-0.0152951973080452;-1.1249895268942796;0.12106445472098648;0;0.05030743106583649
53.7511397;86.7663845;14.0;-0.0173345569491179;-0.0502702151524419;0.0081574385642908;-2.4449462174537615;0.04177947159369766;0;0.05379707427012355
53.7511545;86.7666809;12.0;-0.0836137452839808;-0.03701437748546965;-0.0020393596410727;-1.8876885600585736;-0.026279191011850944;0;0.09146300634025158
53.7511606;86.7669686;13.0;-0.0499643112062812;0.020087692464565987;0.0173345569491179;-3.012136703563788;-0.08420936962967707;1;0.05657238414183469
53.7511421;86.7672061;14.0;-0.0367084735393086;0.0017334556949117896;-0.0428265524625267;0.4548781315835888;-0.13310890079380133;0;0.05643253045946012
53.7511235;86.7674435;15.0;-0.0316100744366268;0.022636892015907017;-0.0163148771285816;-1.0441644363068123;-0.17407562103824015;0;0.04216397635126029
53.7510863;86.7677391;18.0;-0.0356887937187723;0.013969613541347958;-0.0061180789232181;-1.6447307997710647;-0.20820736689701302;0;0.03881070714772431
53.7510477;86.7680077;21.0;-0.0020393596410727;-0.03191597838278781;0.0020393596410727;-2.1132323972935714;-0.2366019749041386;0;0.03204602395964047
53.7509974;86.7683926;21.0;-0.0285510349750178;0.004792495156520804;-0.0020393596410727;-1.8826390658921204;-0.26035728159363547;0;0.02902220866363553
53.7509423;86.7687471;23.0;-0.0428265524625267;-0.0003059039461608126;-0.0096869582950953;-1.4456730226047136;-0.2805711234995707;0;0.04390950163758118
53.750851;86.7692446;25.0;-0.0387478331803813;-0.016620781074742297;-0.0025491995513408;-1.8564340820023475;-0.5051984007203059;0;0.04223912118003553
53.7507452;86.7696252;24.0;-0.0693382277964719;0.017028653002957195;0.0081574385642908;-2.474294251753234;-0.34843382190671424;0;0.07186312448662896
53.7506583;86.7699735;21.0;-0.040787192821454;0.006831854797593628;-0.0214132762312633;-0.7659013468492986;-0.4821816079045851;0;0.046570352555958365
53.7505272;86.7702776;22.0;-0.0316100744366268;-0.007443662689915698;0.0071377587437544;-2.405735300937089;-0.44269853138349813;0;0.03324984992468947
53.7503484;86.770534;24.0;-0.0601611094116447;0.011930253900275356;-0.0346691138982359;0.005842176955457745;-0.3238010323572622;0;0.07045308724430586
53.7500443;86.7707419;24.0;-0.0509839910268175;-0.0625063729988784;0.0387478331803813;-4.086157635887549;-0.3566398036029792;0;0.0894863597576311
53.7497819;86.7708379;27.0;-0.0285510349750178;-0.0456816559600286;0.0438462322830631;-4.400155947845255;-0.531401147767478;1;0.0694583859214669
53.7494964;86.7709876;31.0;0.0091771183848271;-0.04109309676761508;0.0316100744366268;-3.739034991380829;-0.47893255657216693;1;0.0526503457699073
53.7492171;86.7711947;32.0;-0.0550627103089629;0.020087692464565987;0.0387478331803813;-4.26085545108622;-0.3928231164895708;1;0.07026245107661992
53.7489175;86.7714583;31.0;-0.0907515040277353;-0.04415213622922409;-0.0418068726419904;0.2842423406127672;-0.1511801996747062;1;0.10923855188075145
53.7486275;86.7717059;31.0;-0.0214132762312633;-0.005404303048842873;-0.0530233506678902;1.018204138699605;0.057485124491908346;0;0.05743875526550145
53.7483258;86.7720186;31.0;-0.092790863668808;0.013969613541347958;0.0316100744366268;-3.8280829177561166;0.32207404606020096;1;0.09901763120165524
53.7476698;86.7721562;26.0;-0.0122361578464362;-0.008463342510451666;-0.0591414295911083;1.3560258671281216;0.4190604946803498;0;0.06098409972584772
53.747412;86.7722568;25.0;-0.0020393596410727;0.0211073722851024;-0.0489446313857448;0.8623990246456481;0.4262020763781329;0;0.05334095137897317
53.7471707;86.7724763;27.0;-0.0509839910268175;-0.03497501784439683;-0.0397675130009177;0.19776787086779013;0.44164511518970717;0;0.07351240918727016
53.7466848;86.7731168;33.0;-0.0040787192821454;0.061894565106556554;-0.0356887937187723;0.17865950297286792;0.37878709182986103;1;0.07156300117947398
53.7464552;86.7735784;34.0;-0.0050983991026817;-0.0288569389211788;-0.0346691138982359;-0.07007354305541114;0.4039387044332201;1;0.04539453773087378
53.7462292;86.774018;30.0;-0.0632201488732537;0.025695931477516032;-0.061180789232181;1.585612626259123;0.4768087767547511;1;0.09165237088655216
53.7460583;86.7744615;23.0;0.0214132762312633;0.03538288977261139;-0.092790863668808;3.493287630354236;0.5015652659574363;0;0.10159046051682444
53.7459669;86.7748309;17.0;0.0183542367696543;0.027225451208320428;-0.0866727847455898;3.0906238852806487;0.4062433638098406;0;0.09268373544721054
53.7459653;86.7751109;15.0;-0.0224329560517997;0.013969613541347958;-0.0734169470786173;2.257121722941611;0.21013424581729434;0;0.07802842903750583
53.746035;86.7756414;14.0;-0.0193739165901906;-0.004384623228306239;-0.1040073416947078;3.9110029577133743;0.13036333727458116;0;0.10588720740154386
53.7460971;86.7758571;11.0;-0.0683185479759355;0.017028653002957195;-0.1284796573875803;5.428932608686292;-0.06857583144722179;0;0.14650741067627038
53.7461513;86.7759881;10.0;-0.0774956663607627;0.018048332823493385;-0.1407158152340165;6.13014963256931;-0.425446049447745;0;0.161654759532097
53.7461985;86.7761633;9.0;-0.0703579076170082;0.01142041399000715;-0.1590700520036708;7.118302820767184;-0.577882269561341;0;0.17430990351783557
53.7462345;86.7762761;9.0;-0.0448659121035994;0.00887121443866623;-0.1651881309268889;7.45281703194186;-0.8566330858608526;0;0.1714023544576436
53.7462657;86.7764353;9.0;-0.0300805547058223;0.02212705210563881;-0.1621290914652799;7.409502050642104;-0.7750217455319666;0;0.1663739417867255
53.7462898;86.7765874;10.0;-0.0265116753339451;0.006831854797593628;-0.1488732537983073;6.522021306013526;-0.5278867446133653;0;0.15136970920723583
53.7462965;86.7767733;10.0;-0.0397675130009177;0.00887121443866623;-0.1325583766697257;5.611756083185361;-0.5384897364083683;0;0.13867904225659994
53.7462988;86.7769548;11.0;-0.0469052717446721;0.03946160905475682;-0.1325583766697257;5.848194622731778;-0.285543547203313;0;0.14604467238466756
53.7462994;86.7771346;10.0;-0.0601611094116447;0.020087692464565987;-0.1498929336188436;6.680778614182987;-0.07146515489071703;0;0.1627598415551389
53.7462863;86.7773007;10.0;-0.092790863668808;0.019068012644029797;-0.1396961354134801;6.069540349187612;0.1238234271991776;0;0.16878608869233733
53.7462751;86.7774687;10.0;-0.0647496686040583;0.005812174977057216;-0.1376567757724074;5.866682303044318;0.7013796307411733;0;0.1522356360329412
53.7462665;86.7776393;12.0;-0.0122361578464362;-0.0003059039461608126;-0.1233812582848985;5.0310278540497135;1.2604644043214717;0;0.12398690266327332
53.7462533;86.7778565;13.0;0.0122361578464362;0.0211073722851024;-0.1091057407973896;4.359350015642219;1.6329000861432366;0;0.11180030142433417
53.7462455;86.7781047;12.0;0.0071377587437544;0.006831854797593628;-0.1254206179259712;5.19722124633295;1.9471883170403894;0;0.12580919378484187
53.7462348;86.7782988;10.0;0.0326297542571632;0.011930253900275356;-0.1407158152340165;6.100909310245996;2.051315247036584;0;0.1449412725140143
53.746218;86.7786916;10.0;0.0530233506678902;0.018048332823493385;-0.1254206179259712;5.2682665912589455;2.105136749644682;0;0.1373591985805468
53.7462033;86.7788305;11.0;0.0356887937187723;0.026205771387784238;-0.1386764555929438;6.099537172578785;2.0269927054809873;0;0.1455733209999401
53.7461934;86.779051;12.0;0.0132558376669725;-0.004384623228306239;-0.1111451004384623;4.314107728587816;2.0209320528130488;0;0.11201863909449714
53.7461891;86.7792771;17.0;-0.0142755174875089;0.01498929336188437;-0.0723972672580809;2.2031820837523046;2.1591587310648577;0;0.07529829760003075
53.7461974;86.7796182;21.0;0.0285510349750178;-0.005404303048842873;-0.0683185479759355;1.8857863124358007;2.1507782380224407;0;0.07424144453826732
53.7461904;86.7799952;26.0;0.0020393596410727;-0.015601101254206107;-0.0479249515652085;0.7017068819927821;2.1640769779405087;0;0.050441593260098436
53.7461857;86.7804769;30.0;0.0336494340776996;-0.026817579280105974;-0.0560823901294993;1.1245821831440521;2.2642855771787893;0;0.07068735003401656
53.7461652;86.780994;31.0;-0.0173345569491179;0.018048332823493385;-0.0509839910268175;0.9717276783325501;2.3678590738722045;0;0.05679433531041989
53.7461892;86.7820932;29.0;-0.0591414295911083;-0.002345263587233637;0.0305903946160905;-3.745023992392038;1.9851326019810533;0;0.06662567971992303
53.746209;86.7825738;22.0;-0.058121749770572;-0.045171816049760505;0.0499643112062812;-4.732718396349267;1.8207656460925643;0;0.0889666406915789
53.7462063;86.7829807;21.0;-0.0428265524625267;-0.037524217395737525;0.1029876618741715;-7.663983661335105;1.445599310234121;0;0.11768024041994815
53.7462249;86.7833577;19.0;-0.0224329560517997;-0.02987661874171521;0.0632201488732537;-5.511927805221315;1.0543554473439931;0;0.07343457692542489
53.7462447;86.7836591;21.0;-0.0112164780258998;0.018048332823493385;0.0703579076170082;-6.098034826788683;0.6902561137373502;0;0.07349684932877425
53.7462431;86.7840159;22.0;-0.023452635872336;-0.03191597838278781;0.0866727847455898;-6.7998899043188965;0.4430652623025666;0;0.0952933755360062
53.7462541;86.7843853;24.0;0.0107066381156316;0.0017334556949117896;0.0897318242071989;-7.136084677634143;0.3728696118011152;0;0.09038493925393193
53.7462769;86.7848689;25.0;0.0081574385642908;-0.0064239828693790635;0.1111451004384623;-8.301755247542737;0.21839510704264864;0;0.11162904958527654
53.7462941;86.7852957;26.0;-0.0305903946160905;-0.026817579280105974;0.0591414295911083;-5.29495424054957;0.028371334948401605;0;0.0717820555242947
53.7463237;86.7857349;27.0;0.0173345569491179;-0.0003059039461608126;0.040787192821454;-4.334575796742991;-0.033402468791031925;1;0.04431902007153314
53.746327;86.7862246;28.0;-0.003059039461609;0.0211073722851024;0.0591414295911083;-5.457400533777625;-0.15396586063988504;0;0.06286960777108133
53.7463066;86.7867418;30.0;-0.0591414295911083;-0.01866014071581512;0.0774956663607626;-6.343172499868722;-0.3230797208717542;0;0.09925466160494767
53.7462297;86.7873817;32.0;-0.1172631793616804;-0.016620781074742297;0.095849903130417;-7.350817564999462;-0.45460476202577604;1;0.1523617653076206
53.7460652;86.7879084;35.0;-0.0458855919241358;-0.04415213622922409;0.0652595085143265;-5.572895013966539;-0.6343339674544848;1;0.09117950499626401
53.7458225;86.7883569;36.0;-0.1294993372081166;0.05373712654226559;-0.0101967982053635;-1.388313564453671;-1.0711027180784995;0;0.1405764269001096
53.7455258;86.7887514;36.0;-0.0550627103089629;0.043540328336902245;-0.0224329560517997;-0.6586422051314993;-1.37092086742947;0;0.07369463871596087
53.745228;86.7891704;35.0;-0.0316100744366268;0.036402569593147804;-0.0622004690527174;1.6913535593011608;-1.5665201836079663;0;0.07869715515348132
53.7449261;86.7894573;34.0;-0.0418068726419904;0.049658407260120385;-0.020393596410727;-0.7718529573236703;-1.8421431052528638;0;0.06804168418167793
53.7446404;86.789786;35.0;-0.0520036708473539;-0.032935658203324225;-0.040787192821454;0.25838761471558325;-2.1410569196802394;0;0.07384263308645347
53.7442619;86.7902523;35.0;-0.0764759865402263;-0.019679820536351533;-0.037728153359845;0.1130480234140081;-2.2593131959107966;0;0.08751734347880917
53.7439606;86.7905654;36.0;-0.0520036708473539;0.016008973182420783;-0.0316100744366268;-0.16260540533228607;-2.0798345972635044;0;0.06292746467040032
53.7432894;86.7912254;37.0;-0.0509839910268175;0.03334353013153879;-0.0254919955134087;-0.4914812273813738;-2.0251202731633864;0;0.06603786927143464
53.7429437;86.7914685;35.0;-0.1366370959518711;-0.0502702151524419;-0.020393596410727;-0.8968940614045018;-1.9305592539807535;0;0.14701254809096143
53.7426179;86.7916035;33.0;-0.0744366268991536;0.024166411746711636;-0.0326297542571632;-0.090410640737276;-1.71323347463338;0;0.08479108292573141
53.7423177;86.7917129;31.0;-0.0836137452839808;-0.04007341694707889;0.0112164780258998;-2.6158848672921975;-1.6385910010132174;0;0.0933967158177114
53.7420042;86.7917834;32.0;-0.0469052717446721;-0.032935658203324225;-0.0550627103089629;1.0482432649526259;-1.6506546822599408;0;0.07947807348757582
53.7415664;86.7919088;31.0;-0.0591414295911083;0.06699296420923839;-0.0438462322830631;0.6852276356183049;-1.164674446759569;0;0.0995402332378252
53.741174;86.7919772;30.0;-0.0183542367696543;-0.020699500356887945;-0.0693382277964719;1.8856238417268183;-0.661387461964051;0;0.07465344704952855
53.7408734;86.7920862;28.0;-0.0560823901294993;0.020087692464565987;-0.0856531049250535;2.9873472516665514;-0.586354557962649;1;0.1043321822569171
53.7405916;86.792214;29.0;-0.0948302233098807;-0.1318446007953502;-0.040787192821454;0.05662012130637084;-0.577511850302967;1;0.16744958975805693
53.7403252;86.7923572;26.0;-0.0372183134495768;-0.0013255837666972248;0.003059039461609;-2.174916693861541;-0.7029390551739119;1;0.03736733534493946
53.7400608;86.7924768;26.0;0.0050983991026817;-0.06964413174263262;-0.0122361578464362;-1.34460290158969;-0.704444539495797;1;0.07089444490535415
53.7398109;86.7926621;24.0;-0.0438462322830631;-0.12164780258998675;-0.0040787192821454;-1.7918116333073315;-0.8125292677576001;1;0.12937277886547563
53.7395994;86.7929114;23.0;-0.0815743856429081;0.06495360456816557;0.0356887937187723;-4.177537909253925;-1.184140040282915;1;0.11021361593068522
53.7394311;86.7931271;20.0;-0.0295707147955541;0.010910574079738833;-0.0081574385642908;-1.527679231580723;-1.403982605404349;1;0.03255781940179117
53.7392393;86.7933449;22.0;-0.058121749770572;0.04150096869582964;-0.0336494340776996;0.00693849638810784;-1.5866495112647234;1;0.07894778409071827
53.7390689;86.7935841;21.0;-0.0280411950647496;0.049658407260120385;-0.078515346181299;2.7208924961734233;-1.7122379379840438;1;0.09704084510267075
53.7389351;86.7938343;16.0;0.040787192821454;0.015499133272152577;-0.0275313551544814;-0.39952552979453393;-1.7608450656823686;1;0.05159257453437079
53.7388437;86.7940501;12.0;0.061180789232181;0.0211073722851024;0.020393596410727;-3.1911658673020096;-1.712568074479759;1;0.06785653181837457
53.7388375;86.7942999;14.0;-0.1560110125420618;0.03538288977261139;0.0091771183848271;-2.538089069097537;-1.5475041444962754;1;0.16023608964558908
53.7388207;86.7945647;13.0;-0.1386764555929438;0.020087692464565987;0.0224329560517997;-3.298498884104945;-1.2457504558519803;1;0.14190811196543582
53.738713;86.7946874;12.0;-0.1407158152340165;0.027225451208320428;0.0142755174875089;-2.8320987719611916;-0.787404188666939;1;0.14403456616384372
53.7385873;86.7946385;11.0;-0.078515346181299;0.013969613541347958;0.0616906291424492;-5.568756372015972;-0.15256252306120865;1;0.10082431954868348
53.7385436;86.7944924;4.0;-0.0020393596410727;0.003772815335984392;-0.0010196798205363;-1.9413555379172664;0.6786773608451542;1;0.004408272931827626
53.7385369;86.7944345;3.0;-0.0305903946160905;-0.013561741613133504;0.0683185479759355;-5.8544064645495535;1.726218282932079;1;0.07607310349847532
53.7385339;86.7944059;5.0;0.0183542367696543;-0.0003059039461608126;-0.0418068726419904;0.39282972713803277;3.0099630630795087;1;0.0456594588746342
53.7386112;86.7945344;5.0;0.1193025390027531;-0.01866014071581512;-0.0152951973080452;-1.145606432081895;4.549814521167383;0;0.12171786937311005
53.7513138;86.7655858;11.0;-0.0336494340776996;-0.019679820536351533;0.0081574385642908;-2.4581070971952736;0.48086860458243486;0;0.03982616670008091
53.751304;86.7657552;6.0;0.0101967982053635;-0.01050270215152449;0.0214132762312633;-3.2138951492707832;0.22439216529993145;0;0.025938578316494664
53.7512765;86.7658813;7.0;-0.0428265524625267;0.00785153461813004;-0.0091771183848271;-1.4705368799611085;0.01957253670293957;1;0.04449696274505012
53.7512537;86.7660121;9.0;-0.0520036708473539;-0.0003059039461608126;-0.0010196798205363;-1.941673303882875;-0.1377464662322465;0;0.05201456628446123
53.7512259;86.7661891;12.0;-0.058121749770572;-0.02987661874171521;-0.0224329560517997;-0.7541522420384528;-0.2517210285293321;0;0.06909404938960208
53.7512018;86.766421;15.0;-0.0285510349750178;-0.06046701335780558;-0.0163148771285816;-1.1189152232765025;-0.326507335212022;0;0.06883020062645788
53.7511898;86.7666906;17.0;-0.0978892627714897;-0.01050270215152449;0.0061180789232181;-2.3452762686396844;-0.36626157130402204;0;0.09864099253424065
53.7511812;86.7669636;15.0;-0.0418068726419904;-0.003364943407769827;0.0158050372183134;-2.9016681172134366;-0.375139921829037;0;0.04482116292236705
53.7511472;86.7672624;14.0;-0.0418068726419904;-0.01866014071581512;-0.0275313551544814;-0.4531438562076511;-0.35729857181077396;0;0.05342275702619453
53.7510898;86.7675634;15.0;-0.0361986336290404;0.05169776690119299;-0.0020393596410727;-1.8768731312653433;-0.31689370627293645;1;0.06314395590177428
53.7510563;86.7678627;16.0;-0.0091771183848271;0.01498929336188437;0.0020393596410727;-2.118619484718656;-0.25808151023922976;0;0.017693428302152148
53.7510155;86.7681291;18.0;-0.0109615580707657;0.019068012644029575;-0.029060874885286;-0.3031700843530505;-0.18501816873336008;1;0.036445566405667054
53.7509401;86.7684889;18.0;-0.0112164780258998;-0.022738859997960326;-0.0010196798205363;-1.942879047703604;-0.10185986677903269;0;0.02537528089004617
53.7508907;86.7687979;19.0;-0.0305903946160905;0.025186091567248048;0.0101967982053635;-2.599011535421805;-0.012762789399998198;0;0.04091559781847073
53.7508064;86.7692256;21.0;-0.0193739165901906;-0.016620781074742297;-0.0010196798205363;-1.9425422678806115;-0.20000976701631856;0;0.025546795386399902
53.7507319;86.7695863;21.0;-0.0423167125522585;0.011930253900275245;0.0224329560517997;-3.2994187825226944;0.10202269236297234;1;0.04935861258764757
53.7506234;86.7699898;19.0;-0.040787192821454;0.03334353013153879;-0.0010196798205363;-1.9396151653021807;0.00129399908481731;0;0.05269180056539834
53.7504994;86.7702754;20.0;-0.0560823901294993;0.03181401040073417;-0.0081574385642908;-1.5180743664690843;0.0035494065845800282;0;0.06499161133827629
53.7503349;86.7704693;21.0;-0.0461405118792699;-0.003364943407769827;-0.0382379932701131;0.18017026863959584;0.22867411491748713;0;0.0600201117121899
53.7501066;86.7707018;21.0;-0.0744366268991536;-0.04415213622922409;0.0295707147955541;-3.6180964969170204;0.309961996749494;0;0.09145845904697807
53.7499002;86.7708282;23.0;-0.0326297542571632;-0.02987661874171521;0.0305903946160905;-3.700501819235063;0.2650445654155875;0;0.05378740980088934
53.749588;86.7709768;27.0;0.0132558376669725;-0.007443662689915698;0.0550627103089629;-5.128167782274489;0.5807945716037326;0;0.05712291495593637
53.749309;86.7711842;27.0;0.0214132762312633;0.049658407260120385;0.0367084735393086;-4.211481246817753;0.788127643037102;0;0.0653605220309208
53.7488225;86.7715937;25.0;-0.035178953808504;-0.008463342510451666;-0.0040787192821454;-1.7684099551680732;0.9304756765846356;0;0.036411851209360684
53.7485408;86.771824;27.0;-0.040787192821454;-0.07882125012746011;-0.0091771183848271;-1.5129664840220074;1.358564791946017;0;0.08922221736629969
53.7482659;86.7720611;28.0;-0.0884572244315284;-0.05179973488324663;-0.0030590394616091;-1.8339484347576602;1.6631661936682614;1;0.1025536484506139
53.747667;86.772179;24.0;-0.0101967982053635;-0.011522381972060902;-0.040787192821454;0.30894560214374245;1.9079180190178107;1;0.043592832876580154
53.7474197;86.7722133;22.0;0.0540430304884266;-0.014581421433669917;-0.0683185479759355;1.8468553267003056;2.0008785631446813;0;0.08832152055382367
53.7471867;86.7723643;23.0;-0.0336494340776996;-0.011522381972060902;-0.0356887937187723;0.019570052485308853;2.0812452567703907;0;0.05038590772389247
53.7469714;86.7726098;28.0;0.0560823901294993;0.09044560008157443;-0.0683185479759355;2.28742872589076;1.9987080775170931;1;0.12646369065583077
53.7467494;86.772951;31.0;0.040787192821454;0.06699296420923839;-0.0489446313857448;1.0000675540058759;1.9431106011832924;0;0.09245122656450373
53.7465472;86.7733632;33.0;-0.0270215152442133;0.0506780870806568;-0.0050983991026817;-1.6924165795026433;1.8506241429337544;0;0.05765782227641025
53.746347;86.7738286;31.0;0.0499643112062812;0.05016824717038837;-0.0683185479759355;2.108367894296035;1.712271888131557;0;0.09839059617670533
53.746112;86.774464;25.0;0.0295707147955541;0.013969613541347958;-0.0713775874375446;2.1384984370989297;1.4443931903365403;0;0.0785132935522319
53.7460288;86.7748672;18.0;-0.0438462322830631;-0.027837259100642386;-0.0876924645661262;2.8721114158757723;1.1862206781334956;0;0.10191846457506079
53.7460007;86.7751463;14.0;-0.023452635872336;0.0007137758743755995;-0.1009483022330988;3.766896177275595;1.0089361575391202;0;0.10363925573403295
53.746032;86.7754336;14.0;-0.0091771183848271;0.005812174977057216;-0.1019679820536351;3.8557658480177386;0.9487116388079069;0;0.1025449669359911
53.7460843;86.7756395;13.0;-0.0836137452839808;0.011930253900275356;-0.1223615784643621;5.034620877734747;0.5912989668821202;0;0.14868068214408253
53.7461439;86.7758527;11.0;-0.0652595085143265;0.018048332823493385;-0.1447945345161619;6.369950805720643;0.2336420638626009;0;0.15984368299995794
53.7462019;86.7760131;10.0;-0.0591414295911083;0.018048332823493385;-0.1396961354134801;6.082329289656819;-0.29635164815440085;0;0.152769307327254
53.7462374;86.7761766;9.0;-0.0438462322830631;0.018048332823493385;-0.168247170388498;7.713130688611823;-0.6724377023172767;0;0.1748008716993831
53.7462711;86.7763127;8.0;-0.0356887937187723;0.011930253900275356;-0.1733455694911797;7.944271555063876;-0.6195320791245602;0;0.17738294004060123
53.7462846;86.7764542;9.0;-0.0122361578464362;0.029264810849393252;-0.1417354950545528;6.3063159631257495;-0.7206486352774548;0;0.14524153424985853
53.7462804;86.7766036;10.0;-0.0275313551544814;0.00887121443866623;-0.1560110125420618;6.94198842458205;-0.3949756896210279;0;0.1586698143840168
53.7462596;86.7769412;11.0;-0.0489446313857448;0.00887121443866623;-0.1539716529009891;6.819725181418113;0.08463731396956731;0;0.1618071237126657
53.746266;86.7771268;10.0;-0.0438462322830631;0.003772815335984392;-0.1366370959518711;5.802190389221004;0.22829668758186528;0;0.1435493720332506
53.7462632;86.7773032;10.0;-0.0520036708473539;0.02824513102885695;-0.1437748546956255;6.404220602300205;0.5588394421497964;0;0.1554779021314137
53.74626;86.7774792;11.0;-0.037728153359845;-0.0008157438564291297;-0.1254206179259712;5.137959704056326;1.0965096670294532;0;0.13097484642066098
53.746246;86.7776956;12.0;-0.0163148771285816;0.003772815335984392;-0.1152238197206077;4.596648914727352;1.5470038644874067;0;0.11643426464012756
53.7462279;86.7779079;12.0;-0.0285510349750178;0.04252064851636583;-0.1152238197206077;4.859001506444433;1.937315199801108;0;0.1260939958102848
53.7462122;86.7781226;12.0;0.0173345569491179;0.018048332823493385;-0.1345977363107984;5.803787048293008;2.4016358348626046;0;0.13690427240346087
53.746205;86.7783202;11.0;0.0244723156928724;0.006831854797593628;-0.1254206179259712;5.19524405843688;2.495598973326371;0;0.1279683549799694
53.7462015;86.7785215;10.0;0.0336494340776996;0.016008973182420783;-0.1427551748750892;6.249992486955618;2.522950847555521;0;0.14753850883658212
53.7462001;86.7786993;10.0;0.0723972672580809;0.018048332823493385;-0.1417354950545528;6.191450578331802;2.457295504111268;0;0.1601750829015073
53.7461966;86.778875;11.0;0.0402773529111858;0.0007137758743753775;-0.1223615784643621;4.975449472564839;2.4921286087726986;0;0.12882208862544223
53.7461953;86.7792065;14.0;0.0254919955134087;0.013969613541347958;-0.0846334251045171;2.9041838758863667;2.5231244765078444;0;0.08948635975763104
53.7461949;86.7794877;19.0;0.0061180789232181;0.020087692464565987;-0.0713775874375446;2.166031216719305;2.6085797523471856;0;0.07440232702453621
53.7461817;86.7798329;22.0;-0.037728153359845;-0.015601101254206107;-0.0458855919241358;0.585124756477275;2.509016368288608;0;0.061419015479868215
53.746156;86.780268;28.0;0.0020393596410727;-0.014071581523401822;-0.0469052717446721;0.6482889382051837;2.3999382756488843;0;0.04901298717438996
53.7461197;86.7807693;31.0;0.0479249515652085;0.01498929336188437;-0.0418068726419904;0.42748172154474107;2.2928398700407024;0;0.06533983852229677
53.7461084;86.7813212;32.0;-0.0050983991026817;-0.020699500356887945;0.0275313551544814;-3.545046712607701;2.256307695827904;0;0.03482008766613346
53.7461104;86.7818864;30.0;-0.0540430304884266;-0.033955338023860415;0.0152951973080452;-2.846353737057727;1.9670172597372286;0;0.06563198294566196
53.7461316;86.782394;26.0;-0.0285510349750178;0.06393392474762916;0.0183542367696543;-3.1227806985686968;1.5955539302680735;0;0.07238498697365861
53.7461781;86.7828245;22.0;-0.0499643112062812;-0.03191597838278781;0.0683185479759355;-5.783350612863956;1.1729158280481382;0;0.09045709517770786
53.7462225;86.7833297;20.0;-0.0265116753339451;-0.0003059039461608126;0.0764759865402263;-6.37037783894787;0.8081980335261201;0;0.08094157784190809
53.7462388;86.783986;19.0;-0.0112164780258998;-0.009483022330988078;0.1029876618741715;-7.824816012754866;0.5624977499030868;0;0.10402978222674596
53.7462469;86.7843269;19.0;0.0101967982053635;0.0007137758743755995;0.1152238197206077;-8.577166981562726;0.3415628248187583;1;0.11567632774533798
53.746258;86.7846196;20.0;-0.0183542367696543;0.009890894259202643;0.1080860609768532;-8.229008207821739;0.2879117708223402;0;0.11007862814431911
53.746276;86.7849704;22.0;-0.0244723156928724;0.002753135515448202;0.0805547058223717;-6.616775798798573;0.341131782272843;0;0.08423499641281453
53.7462923;86.7853195;21.0;-0.0305903946160905;0.002753135515448202;0.040787192821454;-4.340980424981682;0.3511955397812132;0;0.051058271574633524
53.7462832;86.786104;23.0;0.0071377587437544;-0.0003059039461608126;0.0560823901294993;-5.208860662698009;0.3288740479464134;1;0.05653561408303336
53.7462741;86.7865301;26.0;-0.0224329560517997;-0.025797899459569784;0.0326297542571632;-3.8214802366707556;-0.03329391981597407;0;0.04725960216327374
53.7461862;86.7874406;29.0;-0.0387478331803813;0.04252064851636583;0.0836137452839808;-6.986743251149785;-0.14727927029999943;0;0.10149215992795406
53.7456851;86.7885779;35.0;-0.1142041399000713;-0.014581421433669917;-0.0652595085143265;1.657253612759261;-0.1452178344986379;0;0.132340495967307
53.7453849;86.7889177;35.0;-0.0591414295911083;0.002753135515448202;-0.0560823901294993;1.2131313491154505;-0.08176697936342592;0;0.08155073838956826
53.7450784;86.7892512;34.0;-0.0311002345263587;0.017028653002957195;-0.0367084735393086;0.13761393412749845;-0.2448701253336707;0;0.05103637565771846
53.744799;86.7895862;33.0;-0.0448659121035994;-0.03191597838278781;-0.0571020699500356;1.1643039213269266;-0.423087254734964;0;0.07932355348569077
53.7444379;86.7899931;34.0;-0.020393596410727;-0.0288569389211788;-0.0224329560517997;-0.751179363209183;-0.8333247271586446;0;0.04185521730544757
53.744059;86.7904334;35.0;-0.0428265524625267;0.043540328336902245;-0.0805547058223717;2.809393216335181;-1.062540964226633;1;0.10108874525702478
53.7437526;86.7907414;35.0;-0.0356887937187723;0.003772815335984392;-0.0448659121035994;0.5769694169811248;-1.053400614780207;0;0.057453234909345424
53.7431259;86.7913179;34.0;-0.0275313551544814;0.003772815335984392;-0.0530233506678902;1.0454842488426257;-1.0608545069799278;0;0.059863890353465
53.742796;86.7915768;33.0;-0.0815743856429081;-0.06862445192209643;-0.0520036708473539;0.7779814861482373;-1.290498113609544;1;0.11860892705115388
53.7424645;86.7916805;31.0;-0.0764759865402263;-0.03803405730600584;-0.0652595085143265;1.5876598317270023;-1.3650731727395402;0;0.10748939242543361
53.7421474;86.7918242;31.0;-0.0856531049250535;-0.012542061792597092;-0.0346691138982359;-0.045950594145239165;-1.3263508198771947;0;0.09325076490732075
53.7418371;86.7918979;31.0;-0.023452635872336;0.01498929336188437;-0.0550627103089629;1.1986350785551378;-0.8455760743801739;0;0.06169770750536669
53.7415051;86.7919755;30.0;-0.0606709493219129;-0.016620781074742297;-0.0305903946160905;-0.27953375425052984;-0.675744953782698;0;0.06994988704726245
53.7412275;86.7920051;29.0;-0.0326297542571632;-0.05536861425512396;-0.0418068726419904;0.2674194392148541;-0.656396300001238;0;0.0766694131157868
53.7409147;86.7921019;28.0;-0.0938105434893443;-0.03497501784439683;-0.0825940654634444;2.5441530947238933;-0.806943894157444;0;0.12979002116018692
53.7406346;86.7922058;28.0;-0.07545630671969;0.044560008157438435;-0.0387478331803813;0.3151547114334785;-1.0457781732173497;1;0.0958156726581908
53.7403655;86.7923463;25.0;-0.0622004690527174;0.012949933720811546;-0.0163148771285816;-1.0549228428486273;-1.0068063253896478;1;0.06559553604836371
53.7398744;86.7926488;22.0;-0.0040787192821454;0.0017334556949117896;-0.0112164780258998;-1.3562596585787616;-1.2125465360382184;1;0.01206027358455271
53.7396659;86.7927987;20.0;-0.029060874885286;-0.05434893443458755;0.0020393596410727;-2.110781347013974;-1.2666541523284485;0;0.06166441527347015
53.7394929;86.7930353;20.0;-0.0836137452839808;-0.0064239828693790635;0.0061180789232181;-2.3471025084021107;-1.1749359500512;0;0.08408303542350991
53.7393096;86.7932616;21.0;-0.0499643112062812;-0.026817579280105974;-0.0392576730906495;0.18690229381790235;-1.0216629132540471;0;0.06896941241778991
53.7391172;86.7934788;21.0;0.0193739165901906;-0.04415213622922409;0.0142755174875089;-2.783157150731577;-0.7088134303091067;1;0.05028469128058556
53.7389665;86.7937377;20.0;-0.0081574385642908;0.07005200367084741;-0.0968695829509534;3.946635910739781;-0.4474570817796577;1;0.11982296575916587
53.7388284;86.793958;17.0;-0.0356887937187723;0.005812174977057216;-0.0122361578464362;-1.2953106271461643;-0.2609918854909967;0;0.038173222734109225
53.7387141;86.7941765;17.0;-0.1417354950545528;-0.013561741613133504;-0.0061180789232181;-1.6574870430656248;-0.09271444900791215;0;0.1425142178298407
53.7385359;86.7942543;14.0;-0.078515346181299;-0.011522381972060902;0.0275313551544814;-3.5544035102771545;0.06688853487487956;0;0.08399643081060937
53.7384456;86.7940872;12.0;-0.0448659121035994;0.006831854797593628;-0.0520036708473539;0.9943015527645378;0.21276635752721207;0;0.06902177982682883
53.7384009;86.7938889;12.0;-0.0744366268991536;0.02212705210563881;0.0050983991026817;-2.2978622805945927;0.339868310318876;1;0.07782294990823516
53.7384474;86.7937306;3.0;-0.0050983991026817;-0.032935658203324225;0.0509839910268175;-4.825697054063399;0.4431436846196626;0;0.06091074285968799
53.738475300000005;86.7937073;4.0;-0.0565922300397675;-0.018150300805547026;0.0374732334047109;-4.104586006434696;0.5175417717993571;0;0.07025921392963164
53.7384733;86.7938077;5.0;0.0254919955134087;0.009890894259202643;0.020393596410727;-3.179581999628998;0.558011863227752;0;0.03411114772425569
53.7384322;86.7938946;6.0;0.0346691138982359;0.07158152340165203;-0.171306209850107;8.44717079817867;0.5595032502746351;0;0.18886947737577664
53.7384168;86.79387919999999;2.0;-0.0066279188334862;-0.009992862241256173;0.0257469154685428;-3.4602463819029814;0.5169652243097975;1;0.02840229321692692
53.7383791;86.7939183;5.0;-0.0010196798205363;-0.0003059039461608126;0.0876924645661262;-7.010060650818207;0.4253470767030252;1;0.08769892625250314
53.7383388;86.7939548;3.0;-0.0275313551544814;0.02824513102885695;-0.0438462322830631;0.5824369696497982;0.27959809882411046;1;0.05897673294528794
53.7383174;86.793959;3.0;-0.0672988681553992;-0.013561741613133504;0.0489446313857448;-4.758585727778287;0.07466758204283952;0;0.08431272402233032
53.7383161;86.7939833;3.0;-0.0601611094116447;0.002753135515448202;-0.020393596410727;-0.83059588284853;-0.19449518227099594;0;0.06358331239696406
53.7513288;86.7654984;10.0;-0.046395431834404;-0.015601101254206107;-0.0285510349750178;-0.3913761679452663;-2.1521573499161404;0;0.0566664985118148
53.7513088;86.76576;12.0;-0.0897318242071989;-0.05638829407566015;0.0652595085143265;-5.522363054141163;-1.636162466357225;0;0.1244598065073469
53.7512502;86.765983;11.0;-0.1024778219639033;-0.01050270215152449;0.0836137452839808;-6.706117614117064;-1.2247507113908207;0;0.13267731210483397
53.7511979;86.7661611;11.0;-0.0795350260018354;0.006831854797593628;-0.0163148771285816;-1.0618836700815792;-0.9087390384136902;0;0.0814780327254454
53.751165;86.7663842;13.0;0.0214132762312633;-0.012542061792597092;-0.0418068726419904;0.36381587592717546;-0.6789444008225969;0;0.04861734580444838
53.7511686;86.7665926;16.0;-0.023452635872336;0.025186091567248048;-0.0428265524625267;0.5148342186948307;-0.5261837520143038;0;0.05494068559473696
53.7511893;86.7668949;18.0;-0.0713775874375446;-0.06352605281941481;0.0356887937187723;-3.9176452169052514;-0.441274045385573;1;0.10200004594273714
53.7511405;86.7671789;16.0;-0.0101967982053635;0.005812174977057216;-0.0112164780258998;-1.3536474937993306;-0.4150322343331694;1;0.01623469897812483
53.7510912;86.7674624;15.0;-0.0163148771285816;0.004792495156520804;-0.0453757520138676;0.6102006011510119;-0.4382752722538541;1;0.04845721923893281
53.7510431;86.7677215;19.0;-0.0963597430406852;0.06393392474762916;0.0142755174875089;-2.8691319118540717;-0.501820112544392;1;0.11651839859884172
53.7510005;86.7680629;22.0;-0.0397675130009177;-0.0625063729988784;-0.0020393596410727;-1.8901043765425245;-0.5964837086015442;1;0.0741124870956218
53.7509669;86.7684389;22.0;-0.0193739165901906;-0.026817579280105974;0.0469052717446721;-4.615001876314064;-0.7130830138220761;1;0.05739891741078369
53.7509001;86.7688073;22.0;-0.0458855919241358;-0.014581421433669917;-0.0071377587437544;-1.5973323487039084;-0.8424349816027483;0;0.04867291851880928
53.7508304;86.7691728;20.0;-0.0713775874375446;0.026205771387784238;0.0254919955134087;-3.49553674411131;-0.9753565653403853;0;0.0801956624618114
53.7507223;86.7696023;18.0;-0.0458855919241358;0.018048332823493385;-0.0122361578464362;-1.2868489631969258;-1.0597649720944333;0;0.05080308477621027
53.7506414;86.7699566;21.0;-0.095849903130417;0.03538288977261139;-0.0336494340776996;-0.011902911148896855;-1.2362625568412198;0;0.10757061509780699
53.7503966;86.7703774;23.0;-0.1029876618741715;-0.039053737126542476;-0.037728153359845;0.06937120344887582;-1.3958513023819306;0;0.11642622744812159
53.7501996;86.7706156;24.0;-0.0520036708473539;-0.02375853981849696;-0.020393596410727;-0.8602698408154654;-1.3285791101680369;0;0.06070213151505183
53.7499917;86.7707917;25.0;-0.0876924645661262;0.027225451208320428;0.0040787192821454;-2.239262272191341;-1.1696092507439029;0;0.09191207475713123
53.7497618;86.7708946;22.0;-0.0122361578464362;0.056796166003874826;0.0438462322830631;-4.661339758961768;-0.8193108635736785;0;0.07278749973039968
53.7492998;86.771175;25.0;0.0091771183848271;-0.0003059039461608126;0.0214132762312633;-3.2262762701304055;-0.6405656963518149;1;0.023298958732737265
53.7487712;86.7716192;25.0;-0.0326297542571632;0.00785153461813004;-0.0356887937187723;0.05899875761021178;-0.24454676429100353;0;0.04899017713627535
53.7485355;86.7718443;27.0;-0.0214132762312633;-0.04415213622922409;-0.0683185479759355;1.7427242719912912;0.20373869702478897;0;0.08411518014068893
53.748266;86.7720612;26.0;-0.0774956663607627;0.009890894259202643;-0.0520036708473539;0.9974427636661827;0.2874321850623418;0;0.09384982618814645
53.7480154;86.772169;26.0;-0.0978892627714897;-0.003364943407770049;-0.0275313551544814;-0.4356774608882352;0.6483481167486815;0;0.1017428431228725
53.7477842;86.7721938;23.0;-0.0336494340776996;0.010910574079738833;-0.0632201488732537;1.6551205284110297;0.974746155756788;0;0.07244385594413981
53.7475326;86.7722238;22.0;0.0142755174875089;-0.021719180177424358;-0.0509839910268175;0.8564229780913788;1.1685729182077758;0;0.057226571871275
53.7472946;86.7722674;20.0;0.0214132762312633;0.0017334556949117896;-0.0397675130009177;0.28073687778805523;1.2322483722105357;0;0.04519942873400908
53.7470858;86.7723914;22.0;0.0316100744366268;-0.02375853981849696;-0.0305903946160905;-0.2892987424370217;1.2925890174887171;0;0.049994372312934694
53.7466289;86.7730609;28.0;0.0152951973080452;-0.0308962985622514;-0.0418068726419904;0.3220398937686406;1.130810799266133;0;0.05418799613976712
53.7464478;86.7734686;30.0;-0.0458855919241358;-0.004384623228306239;-0.0336494340776996;-0.08316148747528951;0.9045437201494659;0;0.05707010496601501
53.7461279;86.7743007;25.0;0.0438462322830631;-0.027837259100642386;-0.0642398286937901;1.573093183912479;0.740018777755139;1;0.082608478198452
53.7460115;86.7746451;19.0;-0.0346691138982359;0.003772815335984392;-0.0938105434893443;3.3762055252779657;0.4091605075010918;0;0.1000829639040254
53.7459549;86.7749469;13.0;-0.0254919955134087;0.006831854797593628;-0.0907515040277353;3.219237893982215;0.2927225281388264;0;0.0945111187031828
53.7459261;86.7751741;13.0;-0.0356887937187723;0.020087692464565987;-0.1080860609768532;4.290244322550418;0.24906013688564244;0;0.11558460954272455
53.7459474;86.7754002;14.0;-0.0540430304884266;-0.0013255837666972248;-0.092790863668808;3.286715761437141;0.1381627266362615;0;0.10738971411219442
53.7459915;86.7756747;14.0;-0.0392576730906495;-0.014581421433669917;-0.1111451004384623;4.247056616348362;-0.016609772794546007;0;0.11877296030239572
53.7460166;86.7759302;10.0;-0.0805547058223717;0.025186091567248048;-0.1539716529009891;6.945707985053085;-0.21074479194015971;0;0.17558664452521813
53.7460403;86.7761331;9.0;-0.0632201488732537;-0.0003059039461608126;-0.1702865300295707;7.642225000821156;-0.48504247555706037;0;0.18164356060783582
53.746068;86.7762632;9.0;-0.0530233506678902;0.00530233506678901;-0.1743652493117161;7.928813762101928;-0.6003842997389839;0;0.1823261655406252
53.7460937;86.7764169;8.0;-0.0540430304884266;-0.002345263587233637;-0.1651881309268889;7.344986957105512;-0.5672597977621101;0;0.17381964217195248
53.7461172;86.7765428;8.0;-0.0367084735393086;0.013969613541347958;-0.1723258896706434;7.906583040366092;-0.3661290141982616;0;0.17674522449803134
53.7461215;86.7766751;8.0;-0.0326297542571632;0.002753135515448202;-0.1600897318242072;7.115182015911929;0.0154344567632001;0;0.16340441503703582
53.7461256;86.7768072;9.0;-0.0356887937187723;0.003772815335984392;-0.1560110125420618;6.894722343558074;0.4947285319372401;0;0.16008547768945153
53.7461328;86.7769936;10.0;-0.020393596410727;0.017028653002957195;-0.1356174161313347;5.853655567887263;0.8194038121230718;0;0.13819535938590102
53.7461434;86.7771834;10.0;-0.0183542367696543;0.006831854797593628;-0.1600897318242072;7.155261756279977;1.3413996908426635;0;0.1612832120306342
53.7461594;86.777353;10.0;-0.0112164780258998;-0.0003059039461608126;-0.1458142143366982;6.293056525895436;1.6781586794350825;0;0.1462453009814617
53.7461693;86.7775421;11.0;0.0081574385642908;0.004792495156520804;-0.1366370959518711;5.817293755471748;2.1328515790969926;0;0.1369642573955566
53.7461683;86.7777459;12.0;0.0061180789232181;0.003772815335984392;-0.1182828591822167;4.770949171310746;2.4414209735242203;0;0.11850105401046132
53.7461605;86.7779685;12.0;0.0530233506678902;0.00785153461813004;-0.1213418986438258;4.962930538959529;2.7800956804579853;0;0.13265360409125054
53.7461651;86.7781523;11.0;0.0209034363209952;0.013459773631079974;-0.1274599775670439;5.3601405290574675;3.093030560417443;0;0.12986210008165258
53.7461684;86.7783348;10.0;0.0163148771285816;0.02212705210563881;-0.1458142143366982;6.47993013080322;3.2086188171171135;0;0.14838317543857502
53.746174;86.7785196;10.0;0.0265116753339451;0.006831854797593628;-0.1560110125420618;6.924181833455103;3.1864360175638584;0;0.1583950100331045
53.7461754;86.7787002;10.0;0.0489446313857448;0.005812174977057216;-0.1254206179259712;5.181493964937384;3.062357107875803;0;0.13475789297990234
53.7461783;86.7788567;10.0;0.0356887937187723;0.010910574079738833;-0.1396961354134801;6.033957502831418;2.8858075081106813;0;0.144595092839667
53.7461853;86.7790429;12.0;0.017589476904252;0.013204853675945594;-0.1052819414703783;4.088934103279469;2.6749850021569594;0;0.10755484674407058
53.746174;86.7793644;17.0;-0.0091771183848271;0.004792495156520804;-0.0723972672580809;2.1605277692276053;2.4143094633077213;0;0.07313379395404289
53.7461368;86.7797368;21.0;-0.023452635872336;-0.0064239828693790635;-0.058121749770572;1.304308562723406;2.148604570050069;0;0.06300342436454898
53.7461035;86.7803435;27.0;0.0101967982053635;0.011930253900275356;-0.0356887937187723;0.06849767145179175;1.8705137025768563;0;0.03898712157709288
53.7460661;86.7808181;28.0;0.0050983991026817;0.019068012644029797;-0.0173345569491179;-0.9876156671630063;1.5706226812450503;0;0.026269176694851275
53.7460551;86.7812679;27.0;-0.0285510349750178;-0.008973182420719983;-0.0010196798205363;-1.9421194192432596;1.2571672691429892;0;0.029945272545706055
53.7460681;86.7817417;26.0;-0.0010196798205363;-0.013561741613133504;0.0152951973080452;-2.8645583787964446;0.9081732916076315;0;0.020467135686505794
53.7460836;86.7821412;22.0;-0.0448659121035994;-0.012542061792597092;0.0254919955134087;-3.4407741648115824;0.6128996608770554;0;0.053104568712615305
53.7460982;86.7824886;18.0;-0.0469052717446721;-0.007443662689915698;0.0326297542571632;-3.853079270620557;0.6104336292110792;0;0.05762129375990822
53.7461364;86.7827828;17.0;-0.0622004690527174;-0.0003059039461608126;0.0764759865402263;-6.363511534990301;0.48412828024827936;0;0.09857772793538715
53.7461515;86.7830795;15.0;-0.0367084735393086;0.002753135515448202;0.078515346181299;-6.498696805863055;0.3210631845082159;0;0.08671649999118833
53.7461737;86.7833833;14.0;-0.0193739165901906;0.01498929336188437;0.0764759865402263;-6.438668943597783;0.4002867894591109;1;0.08030320091274798
53.746191;86.783631;13.0;-0.0254919955134087;0.0007137758743755995;0.0448659121035994;-4.56990215986188;0.5926806170764676;0;0.051607183416094285
53.7462052;86.7838244;13.0;-0.0173345569491179;-0.005404303048842873;0.0509839910268175;-4.902548218534904;0.7026584161169909;0;0.054120797269520626
53.7462124;86.7840876;14.0;-0.0101967982053635;-0.0003059039461608126;0.1019679820536351;-7.820143334761002;0.6098293547946789;0;0.10247701027525945
53.7462386;86.7846258;17.0;-0.0265116753339451;0.003772815335984392;0.1029876618741715;-7.900065344889264;0.5119632322414187;0;0.10641222468720701
53.7462501;86.7849445;19.0;-0.023452635872336;-0.012542061792597092;0.095849903130417;-7.406214000164354;0.47180694153912994;0;0.0994712690855004
53.7462629;86.7852389;19.0;-0.0265116753339451;-0.019679820536351755;0.0672988681553992;-5.774773017125008;0.6120240040958451;0;0.07496200317729863
53.7462659;86.7855747;19.0;-0.0244723156928724;0.019068012644029797;0.0316100744366268;-3.84511728449238;0.6761150358720776;0;0.04429085850887941
53.7462678;86.7859094;21.0;0.0061180789232181;-0.008463342510451666;0.0764759865402263;-6.336598280357386;0.5106131697463461;0;0.07718572130556803
53.7462663;86.7862663;23.0;-0.0050983991026817;-0.01764046089527893;0.084123585194249;-6.725570780206451;0.538805046216706;0;0.08610433856631244
53.746264;86.7868016;24.0;-0.0418068726419904;-0.007443662689915698;0.0723972672580809;-6.1068209224075;0.3884685411483584;0;0.08393203810692816
53.7462232;86.7872472;28.0;-0.0265116753339451;-0.014581421433669917;0.0571020699500356;-5.22019181933108;0.1906304840546056;1;0.06462300807465991
53.74612;86.7876816;31.0;-0.0101967982053635;-0.021719180177424358;0.0622004690527174;-5.483593809472345;-0.20536682383517757;1;0.06666780206065281
53.7459342;86.7881614;34.0;-0.0723972672580809;0.00785153461813004;0.0254919955134087;-3.4679173357059883;-0.4436656840256936;1;0.0771547324378313
53.7456729;86.7885145;34.0;-0.0887121443866625;0.005812174977057216;-0.0265116753339451;-0.4785168138386937;-0.7767643179400379;0;0.09277119633084667
53.7454213;86.7888517;34.0;-0.0734169470786173;0.024166411746711636;-0.058121749770572;1.39899092286316;-1.0334595183867075;0;0.09670678037991484
53.7450801;86.7892273;32.0;-0.0178443968593861;0.023656571836443208;-0.037728153359845;0.2125703851284948;-1.357847994262202;0;0.04797363282337549
53.744733;86.7896482;32.0;-0.0316100744366268;-0.019679820536351533;-0.0418068726419904;0.346685941296323;-1.6018388579095344;0;0.05598487958668569
53.7444791;86.7899831;33.0;-0.0662791883348628;-0.002345263587233637;-0.0489446313857448;0.7894568572591067;-1.8715500030918788;0;0.08242577272375584
53.7442051;86.7903491;34.0;-0.1040073416947078;-0.046191495870296695;-0.0173345569491179;-1.0553971969020393;-1.991759440534544;0;0.11511589065701378
53.7439114;86.7906698;34.0;-0.0846334251045171;0.031304170490465966;-0.0367084735393086;0.16194232066717662;-2.117849772798201;0;0.09741806693116112
53.7435943;86.7909671;35.0;-0.0489446313857448;0.05781584582441124;-0.058121749770572;1.5252652636468191;-2.4069407595543453;0;0.09547977150303362
53.7432612;86.791274;35.0;-0.0866727847455898;0.013969613541347958;-0.0632201488732537;1.6544918649013258;-2.471226434468977;0;0.10818553018590941
53.7429345;86.7915105;33.0;-0.0866727847455898;-0.015601101254206107;-0.0356887937187723;0.005294564782147848;-2.1802980300320334;0;0.09502239721771083
53.7426141;86.7917021;31.0;-0.0907515040277353;-0.005404303048842873;-0.0428265524625267;0.42925228093512136;-2.2469788264499897;0;0.10049455492993309
53.742314;86.7918116;30.0;-0.0601611094116447;-0.025797899459569784;-0.0642398286937901;1.5772949265952985;-2.2170921196224604;0;0.09171502762782908
53.7419738;86.7919066;31.0;-0.095849903130417;0.005812174977057216;-0.0453757520138676;0.6011803478292319;-2.022945855603444;0;0.1062070815854492
53.7416712;86.7919368;30.0;-0.0520036708473539;0.023146731926175224;-0.0504741511165494;0.9536758109845045;-1.893092446308152;1;0.07607754538231638
53.7410896;86.7920208;28.0;-0.0774956663607627;0.04150096869582964;-0.0836137452839808;2.9693876609601357;-1.7067876985985855;0;0.12132257460095916
53.7408084;86.792098;25.0;-0.0458855919241358;-0.007443662689915698;-0.0101967982053635;-1.4207035248632756;-1.8081648139802367;0;0.04759065406264621
53.740569;86.7922682;21.0;-0.0489446313857448;-0.013561741613133504;-0.0219231161415315;-0.7623399423767394;-1.5076057737495767;0;0.055318358602031124
53.7403771;86.7924091;18.0;-0.0418068726419904;-0.007443662689915698;0.0642398286937901;-5.645407164979705;-1.187972318349336;1;0.07700635236753099
53.7402443;86.7926347;13.0;-0.0723972672580809;0.05373712654226559;0.0601611094116447;-5.627258840066304;-1.1165195303293958;1;0.10839004641154715
53.7401982;86.7928702;13.0;-0.0744366268991536;-0.01050270215152449;0.0132558376669725;-2.7495359171837777;-0.8971164417869111;0;0.07633371082857536
53.7401632;86.7931168;12.0;-0.0040787192821454;-0.004384623228306239;-0.0265116753339451;-0.48798765586628257;-0.632371946885113;0;0.027179584265570735
53.7401417;86.7934025;15.0;-0.0071377587437544;0.027225451208320428;-0.0275313551544814;-0.3788977019716555;-0.4038528078298973;1;0.039371922864179086
53.7401294;86.7940558;13.0;-0.1080860609768532;0.004792495156520804;-0.0305903946160905;-0.2496995802231965;-0.17526522230769181;0;0.11243369970825225
53.7401006;86.7942574;14.0;-0.0224329560517997;-0.020699500356887945;0.040787192821454;-4.287772273447201;0.05041080888906557;1;0.05094410594466498
53.7399735;86.7945143;12.0;-0.0122361578464362;-0.06148669317834199;0.0265116753339451;-3.430626055012167;0.27019528496788237;0;0.06806765697350675
53.7397476;86.794826;15.0;-0.0142755174875089;0.01498929336188437;-0.0336494340776996;-0.04365691204308919;0.4811082051362623;1;0.0395063757990309
53.7396105;86.7949705;14.0;-0.0402773529111858;-0.0288569389211788;0.0050983991026817;-2.283703954256899;0.6801695686017126;0;0.049809454472450075
53.7394752;86.7950144;12.0;-0.078515346181299;0.0506780870806568;-0.0560823901294993;1.3694132305300606;0.8643993745717378;0;0.10898698352904909
53.7393621;86.7950037;11.0;0.0214132762312633;0.018048332823493385;0.0458855919241358;-4.67479167177788;1.0308176222538434;0;0.053756471823328315
53.7393132;86.7948524;1.0;-0.0244723156928724;-0.01866014071581512;0.0489446313857448;-4.7500425303221885;1.1764443108555356;1;0.057815845824411016
53.73933345;86.79482145;5.0;-0.0201386764555929;-0.008463342510451666;0.0405322728663199;-4.301141358636193;1.2982994395843193;1;0.04604410493800572
53.7393905;86.7948785;5.0;0.0499643112062812;-0.01764046089527893;0.0622004690527174;-5.493497466717977;1.3934030076476995;1;0.081709954138367
53.7394139;86.7949531;4.0;-0.0183542367696543;0.003772815335984614;-0.0856531049250535;2.9132324686314766;1.4587750142531832;1;0.08767876895952745
53.7394306;86.7949954;3.0;-0.0295707147955541;-0.012542061792597092;-0.003059039461609;-1.826975264998361;1.4914354586082754;1;0.032265898561128076
53.75115;86.7654988;8.0;-0.0224329560517997;-0.022738859997960326;0.0683185479759355;-5.8207413900248355;0.4776345085468303;0;0.0754169561091471
53.7511253;86.7656277;7.0;-0.0479249515652085;-0.03701437748546965;0.0183542367696543;-3.0128978685342815;-0.05146124120084661;0;0.06327513832905428
53.7510993;86.7658321;12.0;-0.0152951973080452;0.027225451208320428;-0.0356887937187723;0.10084463543805589;-0.504943118484618;0;0.0474221282872221
53.7510879;86.7660767;16.0;-0.0163148771285816;-0.008463342510451666;0.0224329560517997;-3.2741501115087717;-0.8873849619929921;0;0.029000705153356357
53.751087;86.7663574;17.0;-0.0086672784745589;-0.0288569389211788;-0.0061180789232181;-1.6593078018722296;-1.2033606104144754;0;0.030745333463257824
53.7510904;86.7667448;18.0;-0.0254919955134087;-0.0308962985622514;-0.0254919955134087;-0.5839117999863082;-1.4574439024375776;0;0.0474790999847204
53.7510839;86.7671479;19.0;-0.0632201488732537;-0.058427653716732975;-0.0346691138982359;-0.1272657120945484;-1.6542086767508053;0;0.09280369281923902
53.7510391;86.7674615;20.0;-0.0458855919241358;0.0007137758743755995;-0.0703579076170082;2.0232189822905706;-1.7982287720426662;0;0.08400138205095568
53.7509979;86.7678811;23.0;-0.0418068726419904;-0.0502702151524419;-0.0040787192821454;-1.77766930738884;-1.8940780270016688;1;0.06550988538044429
53.7509571;86.7683011;24.0;-0.040787192821454;-0.004384623228306239;-0.0244723156928724;-0.6053858714686842;-1.9463302803163218;1;0.04776729272713998
53.7509139;86.7686675;26.0;-0.058121749770572;-0.013561741613133504;-0.0173345569491179;-1.021794530028209;-1.959559370675131;0;0.06214938050050535
53.7508617;86.7690505;27.0;-0.0601611094116447;-0.009483022330988078;0.0254919955134087;-3.44399474458395;-1.938339136766607;0;0.06602369751404076
53.7507369;86.7695913;22.0;-0.0672988681553992;0.030284490669929554;0.0601611094116447;-5.5415808044289285;-1.8872434172792545;1;0.09521369185035701
53.7506166;86.7700342;22.0;-0.0672988681553992;0.09452431936371963;-0.0418068726419904;0.6362746336715381;-1.810846050901643;0;0.12333612287677878
53.7504242;86.770405;23.0;-0.07545630671969;-0.022738859997960326;-0.040787192821454;0.2775822181425718;-1.8302314339664303;0;0.08873728120715241
53.7502341;86.7706245;21.0;-0.0622004690527174;0.031304170490465966;-0.0254919955134087;-0.4956608122782966;-2.02877204715306;0;0.07415316092878216
53.7500474;86.770745;20.0;-0.0489446313857448;-0.012542061792597092;0.0244723156928724;-3.3829086268090043;-1.8201988117149366;0;0.056140666996993965
53.7498385;86.7708689;22.0;-0.0693382277964719;0.05883552564494765;0.0509839910268175;-5.092384789327265;-1.6102125202258306;1;0.10425342321907387
53.7496072;86.770996;25.0;0.0045885591924135;0.06087488528602003;0.0193739165901906;-3.18181588236528;-1.4254738941416032;1;0.06404806927684896
53.7493773;86.7711757;28.0;0.0050983991026817;-0.012542061792597092;0.023452635872336;-3.326838517651041;-1.1719878945055409;1;0.027079939379177548
53.7490474;86.7713834;26.0;-0.0040787192821454;-0.008463342510451666;0.058121749770572;-5.2985075412701885;-0.8439428151208404;1;0.058876157430871365
53.7487906;86.7715618;20.0;-0.0010196798205363;0.012949933720811546;-0.0081574385642908;-1.5264921939192864;-0.47250249283383927;0;0.015338980873578259
53.7486013;86.7717821;20.0;-0.0071377587437544;0.003772815335984392;-0.037728153359845;0.16875833693590403;-0.2021036825935325;0;0.03858231837756079
53.7483907;86.7719555;22.0;-0.0652595085143265;-0.002345263587233637;-0.0571020699500356;1.2536545327747404;0.10192508101693476;0;0.08674647027633929
53.7481624;86.7721368;23.0;-0.0723972672580809;0.005812174977057216;-0.058121749770572;1.336975235307809;0.23766376679697176;1;0.09302302661596702
53.7479468;86.7721772;22.0;-0.0550627103089629;-0.024778219639033372;-0.0489446313857448;0.730504155746472;0.384787928388731;0;0.0777266953918368
53.7476978;86.7722098;22.0;0.0035688793718772;-0.044661976139491966;-0.0672988681553991;1.6859747821562094;0.46813063074344075;1;0.0808490362815374
53.7472359;86.7723623;20.0;-0.003059039461609;-0.015601101254206107;-0.0520036708473539;0.9312466942526294;0.3806918506420476;1;0.05437953534530796
53.7470259;86.7725619;25.0;0.0530233506678902;-0.012542061792597092;-0.061180789232181;1.4530568140759783;0.29349988853868414;1;0.08192599099877847
53.746802;86.7729012;30.0;-0.0254919955134087;-0.015601101254206107;-0.0540430304884266;1.0450416673376668;0.07522474691955161;1;0.06175666231243919
53.7465317;86.7734501;31.0;-0.0142755174875089;-0.02375853981849696;-0.0397675130009177;0.2242984392612728;-0.12677770656838327;0;0.04847384556770214
53.7462791;86.7739911;29.0;0.0244723156928724;-0.020699500356887945;-0.0489446313857448;0.7445595045744438;-0.4905068474083092;0;0.05850590134236757
53.7460882;86.774517;25.0;0.0101967982053635;0.0527174467217294;-0.0713775874375446;2.3088362776322935;-0.5877512957577635;0;0.08931888865689949
53.7459851;86.7748747;18.0;-0.046395431834404;-0.0013255837666972248;-0.0836137452839808;2.768206903313814;-0.6911464631448063;0;0.09563237771716114
53.7459436;86.7751404;14.0;-0.0632201488732538;-0.01050270215152449;-0.0917711838482716;3.1791451213519837;-0.7679335802153251;0;0.11193321294840633
53.745939;86.7753918;14.0;-0.0356887937187723;-0.004384623228306239;-0.0999286224125624;3.6782354208699957;-0.6549433576961254;0;0.10620096277919401
53.7459738;86.7755802;13.0;-0.0550627103089629;0.002753135515448202;-0.1193025390027531;4.811703735146453;-0.5514531990799614;0;0.13142517884423296
53.7460436;86.7760084;9.0;-0.0295707147955541;0.0007137758743755995;-0.1549913327215254;6.812645162312018;-0.6720318380574537;0;0.15778862401425975
53.7460702;86.7761374;8.0;-0.0479249515652085;0.01498929336188437;-0.1723258896706434;7.911875983820648;-0.8630543507732056;0;0.17949287492486987
53.746093;86.7762626;8.0;-0.0591414295911083;0.006831854797593628;-0.1774242887733251;8.11120281211619;-1.0151446240802904;0;0.1871463629910442
53.7461114;86.776409;8.0;-0.0316100744366268;0.004792495156520804;-0.1733455694911797;7.875788770344576;-0.9003270253723088;0;0.17626925789239534
53.7461186;86.7765442;8.0;-0.0520036708473539;0.025186091567248048;-0.1835423676965432;8.648277717946488;-0.7841202642747225;0;0.1924227682206209
53.7461201;86.7766993;9.0;-0.020393596410727;0.023146731926175224;-0.1631487712858162;7.479690110106649;-0.15572278093176295;0;0.16603972881662207
53.7461171;86.7768499;10.0;-0.0183542367696543;0.01498929336188437;-0.1427551748750892;6.244909267482127;0.11919013022123592;0;0.1447086620645166
53.7461109;86.7771509;10.0;-0.0010196798205363;0.012949933720811546;-0.1488732537983073;6.5770653881896095;0.19854024161706563;0;0.14943890466275855
53.7461189;86.7773125;10.0;-0.0020393596410727;0.002753135515448202;-0.1345977363107984;5.686705800812824;0.6489542850691199;0;0.13464133601128325
53.7461199;86.7774927;11.0;0.0219231161415315;0.018048332823493385;-0.1264402977465075;5.335468137108558;1.052826429605217;0;0.12958979216469227
53.7461434;86.7779002;12.0;0.0305903946160905;0.017028653002957195;-0.1223615784643621;5.092355389751488;1.398956232588743;0;0.12727176886550098
53.7461575;86.7780935;11.0;-0.0061180789232181;0.01498929336188437;-0.1488732537983073;6.5943995850096435;1.6670299906313728;0;0.1497509782996244
53.7461603;86.7783011;10.0;0.0040787192821454;0.0211073722851024;-0.1498929336188436;6.705719764192761;1.8940493369931468;0;0.1514267105388858
53.7461545;86.7784745;10.0;0.0224329560517997;0.011930253900275356;-0.1447945345161619;6.334827737550636;1.994686399806921;0;0.14700688997832384
53.7461618;86.7786098;10.0;0.0346691138982359;0.006831854797593628;-0.1560110125420618;6.921962903916722;2.064704072505755;0;0.15996267606183517
53.7461689;86.7787961;10.0;0.0418068726419904;0.016008973182420783;-0.1565208524523299;7.03015440699939;1.9795488263209267;0;0.16279704872897144
53.74617;86.7789764;12.0;0.0265116753339451;0.01498929336188437;-0.0999286224125624;3.790713669685206;1.868599602186682;0;0.10446663305464388
53.7461552;86.7793968;15.0;0.0387478331803813;-0.003364943407770049;-0.0836137452839808;2.7601098616462796;1.8290574456864543;0;0.09221700396741685
53.7461561;86.7797049;21.0;-0.0530233506678902;0.00887121443866623;-0.0560823901294993;1.2339769273385226;1.6000258407929033;0;0.07768789252067669
53.7461385;86.7802249;27.0;-0.0214132762312633;0.012949933720811546;-0.0469052717446721;0.7200475489211291;1.3424281909656077;0;0.053163273975286106
53.7461139;86.7807379;30.0;0.0571020699500356;0.011930253900275356;-0.0520036708473539;1.007778147414395;1.1613612655775558;0;0.07814959457542771
53.7460886;86.7812502;30.0;-0.0010196798205363;0.01498929336188437;-0.0091771183848271;-1.4662041201670175;0.7988764162716648;0;0.0176050607574689
53.7460842;86.7817834;29.0;0.0163148771285816;-0.0064239828693790635;0.0295707147955541;-3.682757463710591;0.6532594112301031;0;0.03437833540395452
53.7460968;86.7822824;24.0;-0.0244723156928724;-0.01866014071581512;0.0499643112062812;-4.807244369843949;0.6804091030828774;0;0.058681577017184426
53.7461137;86.7826065;18.0;-0.0418068726419904;-0.0003059039461608126;0.0326297542571632;-3.8666845611465344;0.6507811316467664;0;0.05303403661999284
53.7461115;86.7828859;16.0;-0.0275313551544814;-0.01050270215152449;0.0774956663607627;-6.383821008559426;0.4470289830002817;0;0.08290874847580607
53.7461207;86.7831511;14.0;-0.0285510349750178;0.016008973182420783;0.0693382277964719;-6.029069937601784;0.1068728959640819;0;0.07667619353134052
53.7461302;86.783391;14.0;-0.0122361578464362;0.004792495156520804;0.0565922300397675;-5.254359960571094;0.14572448278929895;0;0.058097952369615756
53.7461443;86.7836611;15.0;0.0061180789232181;-0.015601101254206107;0.058121749770572;-5.275343340177946;0.18854270250717808;0;0.06048936308515493
53.7461548;86.7839276;17.0;-0.0152951973080452;-0.003364943407770049;0.0887121443866625;-7.052063036442344;0.2465112292537276;0;0.09008390792205667
53.7461729;86.7842785;17.0;-0.0346691138982359;-0.011522381972060902;0.1111451004384623;-8.266799835389794;0.15887413824359897;0;0.1169954960512361
53.746168;86.7845808;19.0;-0.020393596410727;-0.007443662689915698;0.0938105434893443;-7.3188105212077925;0.19870072174508457;0;0.09628979675215343
53.7461766;86.7849222;21.0;0.0050983991026817;-0.009483022330988078;0.0764759865402263;-6.332258941130176;-0.051590475525522095;0;0.07723016187501563
53.7462032;86.7852816;22.0;-0.0285510349750178;-0.02375853981849696;0.0382379932701131;-4.138206696988302;-0.31114625741338164;0;0.053308291491821515
53.7462336;86.7856448;20.0;0.0458855919241358;-0.0003059039461608126;0.0530233506678902;-5.031064094576626;-0.3247550133990864;0;0.07012172872585676
53.7462481;86.7860433;23.0;-0.0193739165901906;-0.014581421433669917;0.0397675130009177;-4.244206501714974;-0.4012708057906309;0;0.04657704998546075
53.7462232;86.7864536;27.0;-0.061180789232181;-0.019679820536351533;0.0764759865402263;-6.2814822926048;-0.3137521425104417;0;0.09989474873443766
53.7461956;86.7869636;28.0;-0.040787192821454;-0.0064239828693790635;0.0769858264504945;-6.370715331031265;-0.32408981268827897;0;0.08735948791302639
53.7461503;86.7874815;29.0;-0.0275313551544814;0.011930253900275356;0.07545630671969;-6.365364998384581;-0.38306019297656446;0;0.08120320620851838
53.7460203;86.7879403;30.0;0.0295707147955541;-0.024778219639033372;0.0571020699500356;-5.187978359757671;-0.6603173080499645;1;0.06891323337776961
53.7458192;86.7883024;31.0;-0.0703579076170082;-0.013561741613133504;0.0122361578464362;-2.690005661783775;-0.8672485915883761;0;0.07269029893092861
53.7455205;86.7887205;31.0;-0.0662791883348628;0.013969613541347958;-0.0448659121035994;0.5993921657493382;-1.034936131127425;0;0.08124672902776292
53.7452674;86.7890306;31.0;-0.0652595085143264;0.011930253900275356;-0.0596512695013765;1.4473471205288768;-1.1891599163113722;0;0.08921551637906001
53.7449572;86.7894116;30.0;-0.0295707147955541;-0.021719180177424358;-0.0469052717446721;0.6274009861685208;-1.4039165050091902;0;0.05955043642611665
53.7446539;86.7897995;31.0;-0.0458855919241358;-0.01764046089527893;-0.0295707147955541;-0.33724942484916887;-1.7119868541244485;0;0.05736811466612951
53.7443195;86.7901819;32.0;-0.0520036708473539;0.0017334556949117896;-0.0499643112062812;0.8614505768746752;-1.9824028137782634;0;0.0721375009586849
53.7439564;86.790638;33.0;-0.0295707147955541;0.04557968797797496;-0.0550627103089629;1.3002855186865805;-2.2913393368120696;1;0.07735526611846362
53.7436531;86.7909747;33.0;-0.0142755174875089;-0.045171816049760505;-0.0428265524625267;0.3461982842256881;-2.6489862352461193;0;0.06386232818019653
53.743336;86.7912208;34.0;-0.0346691138982359;-0.03803405730600584;-0.0188640766799225;-0.9594648751092181;-2.331206858132162;0;0.054812319442178195
53.7429968;86.7915216;33.0;-0.061180789232181;0.036402569593147804;-0.0224329560517997;-0.6690499244275434;-2.171398830790977;0;0.07464230409947499
53.7427019;86.7916875;31.0;-0.0836137452839808;-0.03701437748546965;-0.0530233506678902;0.9175768198447853;-1.9805136047163474;0;0.10570145815976861
53.7421039;86.7918831;30.0;-0.1060467013357805;0.018048332823493385;-0.0703579076170082;2.074688880932669;-2.1028810967048304;0;0.1285374667019359
53.7418118;86.7918726;29.0;-0.040787192821454;0.003772815335984392;-0.0356887937187723;0.049967899145401784;-1.9318542087787334;0;0.05432788631002488
53.7415043;86.7918979;28.0;-0.0703579076170082;0.010910574079738833;-0.0652595085143265;1.7653817381446593;-1.5242225173245147;0;0.0965819819765798
53.7412184;86.7919704;28.0;-0.0703579076170082;0.06699296420923839;-0.0443560721933312;0.7141536589103024;-1.469715779100639;0;0.10679772262648567
53.740883;86.792019;25.0;-0.0627103089629856;-0.04823085551136952;-0.040787192821454;0.22431079104016227;-1.81987021437167;0;0.08900782758750032
53.7406177;86.7921377;25.0;-0.0591414295911083;-0.05128989497297831;-0.0846334251045171;2.5953996085427677;-1.9215457536744718;1;0.11528737426683405
53.7403715;86.7923267;26.0;-0.0469052717446721;-0.08901804833282356;-0.0336494340776996;-0.23182617377806625;-1.7229837263811394;1;0.10609713408087844
53.7401373;86.7925021;25.0;-0.0397675130009177;-0.14917915774446833;-0.0387478331803813;-0.06999636538104403;-1.670640619757;1;0.15917685375644847
53.7398766;86.7926766;25.0;0.0305903946160905;-0.0288569389211788;-0.0387478331803813;0.1558481389936328;-1.6130956664255627;1;0.057182949756404144
53.7396719;86.7929327;25.0;0.0540430304884266;-0.01764046089527893;0.0061180789232181;-2.343974756604386;-1.6556785534475487;1;0.057177494652018435
53.7394914;86.7932898;22.0;-0.0520036708473539;-0.01866014071581512;0.0193739165901906;-3.088161433331463;-1.7265713729257484;0;0.05854853778855292
53.739352;86.7936112;21.0;-0.0520036708473539;-0.04007341694707889;0.0020393596410727;-2.112204354202547;-1.4160596627171995;0;0.06568424099553857
53.7390438;86.7941222;18.0;-0.1142041399000713;-0.003364943407770049;0.0142755174875089;-2.80990021201531;-1.3023255931722684;1;0.1151420809868778
53.7388596;86.7942452;18.0;-0.0040787192821454;-0.03803405730600584;-0.0132558376669725;-1.2683704323742786;-1.395359297754469;1;0.040483857256840144
53.7386969;86.7944153;16.0;-0.0744366268991536;0.04659936779851115;-0.0193739165901906;-0.8393919638639145;-1.463334590282693;1;0.0899314246934206
53.7385682;86.7944146;10.0;-0.092790863668808;0.0007137758743755995;-0.0438462322830631;0.5016387831263023;-1.4911051029832683;1;0.10263111585587714
53.738474;86.7943972;11.0;-0.0866727847455898;-0.021719180177424358;-0.0285510349750178;-0.4050623569437046;-1.4635244680825545;1;0.09380328353143859
53.7383707;86.7942939;9.0;0.0509839910268175;-0.046191495870296695;0.1315386968491893;-9.157844880358542;-1.3654463178069105;1;0.1484434249151547
53.7383448;86.7941656;8.0;-0.0112164780258998;0.0022432956051799957;-0.0193739165901906;-0.8876706495438755;-1.1817242843826952;1;0.022498675483711823
53.7383703;86.7940375;6.0;-0.0683185479759355;-0.020699500356887945;0.0571020699500356;-5.1948868363498715;-0.8972120000362704;1;0.09141411108326637
53.7383958;86.7939606;1.0;-0.0372183134495768;-0.011522381972060902;0.0020393596410727;-2.1154374136262843;-0.49676309699399557;1;0.03901444770961983
53.73840065;86.79396545;2.0;-0.0463954318344039;-0.0288569389211788;0.0387478331803813;-4.154612427105775;0.03476879251777465;1;0.06698248722745462
53.7384158;86.7940574;4.0;0.020393596410727;-0.007443662689915698;-0.0300805547058223;-0.29010366051891223;0.7125300362726756;1;0.03709645077652077
53.7384063;86.7940991;4.0;0.0917711838482716;-0.015601101254206107;0.0734169470786173;-6.117951691413403;1.5516670020443533;1;0.11855544130743959
53.7383968;86.7941152;3.0;-0.0142755174875089;-0.01764046089527893;0.0703579076170082;-5.954649778654845;2.5673260576064374;1;0.07392706827933528
53.7383749;86.7941445;3.0;0.0295707147955541;0.029264810849393252;-0.0244723156928724;-0.5565437540877691;3.774653570732583;1;0.048267489710387634
53.7511144;86.7653608;11.0;0.0112164780258998;0.020087692464565987;-0.0861629448353217;3.0247230094031465;3.11464912584158;0;0.089181712422173
53.7511307;86.7655563;15.0;-0.0020393596410727;0.12919343326195576;-0.0305903946160905;0.011899475171873064;2.1694712594055754;1;0.13278130300808616
53.7511288;86.7658104;18.0;-0.0091771183848271;-0.026817579280105974;0.020393596410727;-3.1377549236704763;1.3451288433571527;1;0.03491848843889893
53.7511401;86.7661289;20.0;-0.0020393596410727;0.07311104313245642;0.0132558376669725;-2.8193537470929764;0.6346860815935549;1;0.07433102210998223
53.7511289;86.7665273;21.0;-0.0336494340776996;-0.03701437748546965;-0.0326297542571632;-0.19872495749203511;0.03120717801202444;1;0.059724780596241235
53.7511239;86.7668807;20.0;-0.0469052717446721;0.06750280411950638;0.0066279188334862;-2.406720685364083;-0.472243663490195;1;0.08246612874084283
53.7510926;86.7672078;19.0;-0.0392576730906495;-0.0008157438564291297;-0.0091771183848271;-1.4750368399664417;-0.8826022390158599;1;0.04032430825669226
53.7510526;86.7675518;20.0;-0.0397675130009177;-0.04211277658815127;0.011726317936168;-2.6442216122882156;-1.2068043446677281;1;0.05909693371556426
53.7510105;86.7678937;25.0;-0.0713775874375446;-0.027837259100642386;0.0224329560517997;-3.247301617280516;-1.4517857765485571;1;0.07983051108356128
53.7509612;86.7683564;27.0;-0.0999286224125624;0.056796166003874826;-0.0397675130009177;0.40086320069219994;-1.6244823307611038;1;0.12162643273684522
53.7508888;86.7688216;26.0;-0.0530233506678902;-0.019679820536351533;0.0122361578464362;-2.686588802223141;-1.7318298034081239;1;0.05786617847444185
53.750796;86.7692408;26.0;-0.046395431834404;0.07209136331192001;0.0142755174875089;-2.8803044762442775;-1.780763990592376;0;0.08691082302457069
53.7506597;86.7696421;25.0;-0.1070663811563169;0.02824513102885695;0.0723972672580809;-6.235219697748219;-1.7782206884166158;1;0.13229649166620036
53.7505545;86.7700233;23.0;-0.0438462322830631;0.03334353013153879;0.0101967982053635;-2.603742737238345;-1.7311356929836847;0;0.0560201551291503
53.7503804;86.7703356;22.0;-0.1060467013357805;-0.01050270215152449;-0.0254919955134087;-0.5627926108041319;-1.7169034543254469;0;0.10957212899245646
53.750197;86.7705874;22.0;-0.0418068726419904;0.002753135515448202;0.0061180789232181;-2.3511949742879223;-1.8118175058791879;0;0.04234176714522852
53.7500098;86.7707842;20.0;-0.0764759865402263;-0.002345263587233637;0.0601611094116447;-5.424861704017909;-1.73309267456168;0;0.09733157691229688
53.7498241;86.7708545;18.0;-0.0219231161415315;0.00530233506678901;0.0405322728663199;-4.332850744692482;-1.4384111968288167;1;0.04638537401191664
53.7495988;86.770962;20.0;-0.0305903946160905;-0.013561741613133504;0.0632201488732537;-5.567536888015084;-1.3092604452568142;0;0.07152957641357802
53.74939;86.771086;20.0;-0.0265116753339451;-0.0064239828693790635;0.0193739165901906;-3.102439712266598;-1.0137678225130307;0;0.03345870781967306
53.7491899;86.7712187;18.0;0.0091771183848271;0.006831854797593628;0.0112164780258998;-2.64702246423585;-0.6434121387822778;0;0.016021957468737323
53.748818;86.7715636;24.0;-0.0938105434893443;0.003772815335984392;-0.0499643112062812;0.8585553057067514;-0.225486994803485;0;0.1063535829186949
53.7485859;86.7717923;28.0;-0.0520036708473539;0.026205771387784238;-0.0428265524625267;0.5146131521835877;0.1193822414947936;0;0.07228580656985359
53.7483208;86.7720136;29.0;-0.0734169470786173;-0.033955338023860415;-0.0489446313857448;0.7034067319195074;0.20997210130718025;0;0.09454411689864975
53.7480395;86.7721675;28.0;-0.0795350260018354;0.08330784133781999;-0.0642398286937901;1.9936576744838006;0.45145519292742287;0;0.1318816605145974
53.7477571;86.7722179;26.0;-0.0265116753339451;-0.0003059039461608126;-0.0418068726419904;0.3923928933480565;0.7185298708153198;0;0.049505324020153584
53.7475086;86.772251;25.0;-0.0050983991026817;-0.05536861425512396;-0.0652595085143265;1.5383809268273008;0.751540654294176;1;0.08573494368969047
53.7472615;86.7723623;23.0;-0.0244723156928724;0.011930253900275356;-0.0662791883348628;1.8364480162199768;0.9375292350475528;1;0.0716530250570404
53.7470164;86.7725524;25.0;0.032119914346895;0.019068012644029797;-0.0397675130009177;0.3202883905849241;0.7883121860388018;1;0.05455944550783952
53.7468006;86.7727718;29.0;0.0122361578464362;-0.052309574793514946;-0.0418068726419904;0.2749357129562813;0.8274934211935527;1;0.0680722393786545
53.7465955;86.7731811;31.0;-0.0193739165901906;0.0007137758743755995;-0.0632201488732537;1.6193321244306578;0.6871311348787428;1;0.06612598085169599
53.7464157;86.7736669;32.0;0.0316100744366268;-0.0308962985622514;-0.0683185479759355;1.7897296518274648;0.6935288185866468;0;0.08137076912673903
53.7462295;86.7741207;28.0;-0.0214132762312633;-0.02987661874171521;-0.0744366268991536;2.1331012519805217;0.6770395412817491;0;0.08301778225487592
53.7460695;86.7745751;24.0;-0.0265116753339451;0.03946160905475682;-0.0571020699500356;1.4008224384704882;0.7037525147175323;0;0.07430164137340262
53.7459812;86.7748964;18.0;-0.0367084735393086;0.011930253900275356;-0.0968695829509534;3.5955035970557274;0.9171103701338108;0;0.10427635920381377
53.7459538;86.7751762;14.0;-0.0509839910268175;0.00887121443866623;-0.1019679820536351;3.8662594649691;0.7684805853651793;0;0.11434830628710621
53.745959;86.7754118;14.0;-0.0244723156928724;0.016008973182420783;-0.1101254206179259;4.383846484187091;0.7610471171175766;0;0.11394204546172662
53.745991;86.7756486;13.0;-0.0295707147955541;-0.005404303048842873;-0.1254206179259712;5.107669941660436;0.7096353571505918;0;0.12897272993116096
53.7460349;86.7758461;10.0;-0.0397675130009177;0.003772815335984392;-0.1486183338431732;6.478222896387297;0.5162949278598714;0;0.153893139483729
53.7460711;86.7760615;9.0;-0.0438462322830631;0.027225451208320428;-0.1662078107474253;7.6862554024384355;0.45887615891045996;0;0.17403664451019762
53.7461002;86.7762186;9.0;-0.0479249515652085;0.0211073722851024;-0.168247170388498;7.7409816760862284;0.48655058696053355;0;0.176208491540691
53.746139;86.7766158;8.0;-0.0183542367696543;0.00887121443866623;-0.1590700520036708;7.116325984730343;0.5087207141299439;0;0.16037100079959551
53.746143;86.7767734;9.0;-0.0265116753339451;0.013969613541347958;-0.1672274905679616;7.622172586157852;0.7767929377222229;0;0.1698912965197594
53.7461543;86.7769383;10.0;-0.0112164780258998;0.023146731926175224;-0.1427551748750892;6.313684511384533;1.1037237928866745;0;0.1450538539018699
53.7461551;86.7770671;10.0;-0.003059039461609;-0.002345263587233637;-0.1468338941572346;6.333962798630784;1.3639342058413533;0;0.14688447997354676
53.7461572;86.7772484;10.0;0.0071377587437544;0.006831854797593628;-0.147853573977771;6.467255779160354;1.8384543742489161;0;0.1481833363703883
53.7461571;86.7774019;10.0;0.0091771183848271;-0.005404303048842873;-0.1366370959518711;5.738914811437;2.0307789657299664;0;0.1370515303944239
53.7461684;86.7775668;11.0;0.0040787192821454;-0.0064239828693790635;-0.1361272560416029;5.702922681588676;2.296203969552147;0;0.13633977168935238
53.746178;86.7777556;12.0;0.020393596410727;-0.0013255837666972248;-0.116243499541144;4.620443382257184;2.5232822814068037;0;0.11802629847817009
53.7461893;86.7779717;12.0;0.0107066381156316;-0.0003059039461608126;-0.1284796573875803;5.318604715939404;2.694609156601051;0;0.1289253584031993
53.7461918;86.778179;11.0;-0.0010196798205363;0.005302335066789232;-0.1458142143366982;6.339670702849354;2.8861606668216204;0;0.1459141514957527
53.746184;86.7783504;10.0;0.0122361578464362;-0.01050270215152449;-0.1539716529009891;6.662971842670796;2.9037981710122422;0;0.15481375975148076
53.7461792;86.7784992;9.0;0.0244723156928724;0.00785153461813004;-0.1529519730804527;6.7612377210297385;2.8604581853251925;0;0.15509625043963773
53.7461803;86.7786795;10.0;0.0316100744366268;0.00785153461813004;-0.1498929336188436;6.586933350518352;2.6892021350195674;0;0.15339079160957425
53.7461706;86.7789002;11.0;0.0244723156928724;0.009890894259202643;-0.1274599775670439;5.333312911865292;2.458559925087487;0;0.1301643956925613
53.7461631;86.7790719;13.0;0.020393596410727;0.00785153461813004;-0.1029876618741715;3.9249881599348804;2.257544736841957;0;0.10528059587944964
53.7461644;86.7793036;15.0;-0.0020393596410727;0.0007137758743755995;-0.0876924645661262;3.0151391000913224;2.010959957614313;0;0.08771907891345973
53.7461555;86.7795507;19.0;-0.0101967982053635;0.012949933720811546;-0.0652595085143265;1.7824442050749134;1.8051241301964993;0;0.06730883247052923
53.746123;86.779979;24.0;-0.0265116753339451;-0.021719180177424358;-0.040787192821454;0.2852744253854982;1.695035884895974;0;0.053274635755173445
53.7461135;86.7804559;28.0;0.0168247170388498;0.036402569593147804;-0.0275313551544814;-0.3636722313887897;1.7301533122020851;0;0.048643537012264246
53.746102;86.7809308;26.0;-0.0142755174875089;0.005812174977057216;-0.0040787192821454;-1.7649659386509131;1.5326857654064348;0;0.015943893140718396
53.7461028;86.781418;27.0;-0.0254919955134087;-0.0013255837666972248;-0.0061180789232181;-1.6500416970457887;1.4923763864034805;0;0.02624937898863335
53.7461113;86.7820409;26.0;-0.0479249515652085;-0.0308962985622514;0.0193739165901906;-3.0754872748781747;1.3106911451810996;0;0.060222345449334844
53.7461566;86.7828798;20.0;-0.0545528703986948;-0.01764046089527893;0.0734169470786173;-6.120518144105898;0.9476144604088874;0;0.09315175600963811
53.7461758;86.7832062;19.0;-0.0214132762312633;0.018048332823493385;0.061180789232181;-5.564376713932833;0.5326403502345085;0;0.06728565737017458
53.7461914;86.7834778;18.0;-0.0295707147955541;-0.003364943407770049;0.0520036708473539;-4.9656581912717535;0.1889616251978703;0;0.0599177085614714
53.7462088;86.7837768;19.0;-0.0122361578464362;0.011930253900275356;0.0856531049250535;-6.954053260890418;-0.035339004311476074;1;0.08734133557640483
53.7462078;86.7841086;20.0;-0.0152951973080452;0.0007137758743755995;0.0963597430406852;-7.507279438714716;-0.09680345739146556;1;0.09756870715325562
53.7462198;86.7845046;21.0;-0.0071377587437544;-0.0003059039461608126;0.0815743856429081;-6.6620039449887285;-0.18234989302246474;1;0.08188663853234061
53.7462368;86.7848288;23.0;-0.0091771183848271;-0.014581421433669917;0.0876924645661262;-6.9397201109095805;-0.2669425130666885;0;0.08936893025295044
53.7462694;86.7852454;23.0;-0.0152951973080452;-0.020699500356887945;0.0774956663607627;-6.341313651274471;-0.459128743584432;0;0.08165776558549398
53.7462737;86.7864785;26.0;-0.0479249515652085;-0.009992862241256173;0.0555725502192311;-5.145861230851446;-0.5805335509553258;0;0.07406056046351031
53.7462309;86.7870245;27.0;-0.1080860609768532;-0.020699500356887945;0.0662791883348628;-5.694689240144859;-0.8401638143360031;0;0.12846788197384218
53.7459255;86.7881015;32.0;-0.0489446313857448;0.012949933720811546;0.061180789232181;-5.542512185635196;-0.801600833035379;0;0.079412635618851
53.7456899;86.7884803;30.0;-0.1244009381054349;-0.0003059039461608126;0.0050983991026817;-2.2897925422869037;-1.0871332155573863;0;0.12450574545837934
53.7454463;86.7888511;30.0;-0.0861629448353217;-0.0064239828693790635;-0.0489446313857448;0.7740953081140001;-1.4145484203189915;0;0.09930205214439027
53.7451939;86.7891363;29.0;-0.0397675130009177;0.03232385031100238;-0.0418068726419904;0.4717487155895421;-1.7564119192530931;0;0.06613698654542594
53.7449553;86.7894097;30.0;-0.0316100744366268;-0.0003059039461608126;-0.0616906291424492;1.5273058698263622;-1.941895790784864;0;0.06931828118977393
53.7446939;86.7897115;30.0;-0.0336494340776996;-0.016620781074742297;-0.0550627103089629;1.0985591392148062;-2.0131148487974277;0;0.06663660288349589
53.7443504;86.7900848;31.0;-0.0469052717446721;0.003772815335984392;-0.0540430304884266;1.1016912541000807;-2.167311231156238;0;0.07165882916552559
53.7440729;86.7904473;31.0;-0.0836137452839808;0.0007137758743755995;-0.0458855919241358;0.6199392819474769;-1.8730034881845454;0;0.09537953356271762
53.7438225;86.7907089;31.0;-0.0815743856429081;-0.033955338023860415;-0.0479249515652085;0.6456128194423911;-1.8268199596915329;0;0.1005193829858704
53.7435298;86.791005;33.0;-0.0764759865402263;0.005812174977057216;-0.023452635872336;-0.6526368068509518;-1.4168463305109182;0;0.08020214476324923
53.7432428;86.7912556;32.0;-0.0560823901294993;0.036402569593147804;-0.0438462322830631;0.6009171020272603;-1.2402977354530398;0;0.07995544785092293
53.7429479;86.7914983;30.0;-0.0831039053737126;0.04150096869582964;-0.0509839910268175;1.0334196636113924;-0.9543282553920638;1;0.10596205373659863
53.7426624;86.7916224;29.0;-0.058121749770572;0.031304170490465966;-0.0418068726419904;0.4668009161059974;-0.6306229725439247;0;0.07814028081977151
53.7423559;86.7917511;28.0;-0.1080860609768532;-0.0003059039461608126;-0.0520036708473539;0.9588087711364364;-0.4975688166981582;0;0.11994612097236088
53.74205;86.7918036;27.0;-0.0265116753339451;-0.03191597838278781;-0.0591414295911083;1.2790822462577216;-0.17368860335280933;0;0.0722440814131034
53.7417707;86.7918571;28.0;0.0020393596410727;-0.016620781074742297;-0.0571020699500356;1.214833858119396;-0.23414068386662512;0;0.059506770571582074
53.7414183;86.7920167;28.0;0.0112164780258998;0.019068012644029797;-0.0591414295911083;1.450021789333603;-0.4601836882863699;0;0.06314354424308469
53.7410688;86.792256;26.0;-0.0295707147955541;0.04252064851636583;-0.0509839910268175;1.0465650614625908;-0.48627219086999274;1;0.07267599373104527
53.7408572;86.7925308;23.0;-0.023452635872336;0.02212705210563881;-0.0086672784745589;-1.4923239004453652;-0.38386525833905427;1;0.03338793615067557
53.7406554;86.7928922;19.0;0.0173345569491179;0.044560008157438435;-0.0040787192821454;-1.7554492893309936;-0.44776904269858075;1;0.04798663504139185
53.7405877;86.7931573;17.0;-0.092790863668808;-0.008463342510451666;-0.037728153359845;0.13351936956185595;-0.30823309303383883;1;0.10052455472568139
53.7404837;86.7933605;16.0;-0.0050983991026817;0.009890894259202643;-0.0571020699500356;1.300691025000709;-0.2665921970988534;1;0.05817619663776338
53.7403719;86.7935559;17.0;-0.0999286224125624;-0.019679820536351533;-0.0448659121035994;0.5073930016153967;-0.2357623149679018;1;0.11129229525220233
53.7402108;86.7937276;15.0;-0.0142755174875089;-0.11451004384623231;0.0275313551544814;-3.414953965320743;-0.21661471234077823;1;0.11863522266951079
53.7401148;86.7939388;14.0;-0.0254919955134087;0.04252064851636583;-0.0525135107576221;1.1381653078394351;-0.33976421148113456;1;0.0722185308463061
53.7400601;86.7941401;15.0;-0.0601611094116447;0.002753135515448202;-0.0912613439380034;3.219325119411769;-0.4475249378119468;1;0.10934153711274072
53.7399811;86.7943683;17.0;-0.0795350260018354;-0.08799836851228715;-0.0214132762312633;-0.8754871808698568;-0.528474832066939;1;0.12053240900642992
53.7398987;86.7946699;15.0;-0.0989089425920261;0.0017334556949117896;0.0183542367696543;-3.0481963799519542;-0.5711918349798677;0;0.10061243362882873
53.7397824;86.794784;13.0;-0.0764759865402263;0.04252064851636583;0.0244723156928724;-3.459464151133377;-0.5642538872844973;0;0.09085965167732489
53.7396629;86.7947413;2.0;-0.0066279188334863;-0.011012542061792585;0.0346691138982359;-3.9639451882897156;-0.4962389297145857;0;0.036975030077268184
53.7396769;86.7947297;3.0;-0.0163148771285816;-0.01050270215152449;0.0224329560517997;-3.271580184010017;-0.35572490300389203;0;0.02966006549936006
53.739707;86.7947342;5.0;-0.0346691138982359;-0.011522381972060902;0.0397675130009177;-4.250076524441008;-0.13128974788617898;1;0.054001554006131026
53.7397747;86.7947507;5.0;0.040787192821454;-0.022738859997960326;0.0336494340776996;-3.88292997043032;0.18848859490479608;0;0.05755810339136237
53.7398233;86.7947481;4.0;-0.0142755174875089;-0.0013255837666972248;0.0214132762312633;-3.2249549917759097;0.6150321846352704;0;0.025769671530989476
53.7398517;86.7948021;4.0;-0.0183542367696543;-0.005404303048842873;0.0356887937187723;-4.032633868488052;1.1597630805714862;0;0.04049412915400631
53.7398446;86.7948718;3.0;-0.0163148771285816;-0.020699500356887945;0.0458855919241358;-4.573672986911562;1.8341033419796808;0;0.0529162742166702
53.7398375;86.7949159;2.0;-0.0163148771285816;0.006831854797593628;0.0316100744366268;-3.8227211735470226;2.6494750281260977;0;0.036222179139102126
