lat;lon;vel;acc_X;acc_Y;acc_Z;fb_tilt;tilt;hole;acc
53.7277083;86.8538011;5.0;-4.327270333907153;4.776174977768363;0.0734169470786173;-0.04721117569083311;0.0978892627714897;0;6.445347625155054
53.7277236;86.8538676;6.0;3.3370551368191084;3.311800836391362;-0.1080860609768532;-0.01866014071581512;-0.0418068726419904;1;4.702727332375418
53.7277128;86.8540104;5.0;-0.8361222705222289;2.092389283422971;0.0815743856429081;-0.014581421433669917;0.0326297542571632;0;2.254738952748091
53.7276965;86.8540965;7.0;2.9143481541985006;1.098539279375396;-0.0509839910268175;-0.03599469766493324;-0.0346691138982359;0;3.114933880446236
53.7276677;86.8541957;7.0;3.7414475302810306;0.3108497847608449;-0.0560823901294993;0.0007137758743755995;-0.0479249515652085;0;3.75475730840417
53.7276047;86.8543119;9.0;3.2997107649846056;-0.2900802399084794;-0.0795350260018354;0.012949933720811546;-0.0397675130009177;0;3.3133915401747744
53.7275141;86.8543749;12.0;3.715162056219257;-0.7236518341203695;-0.0418068726419904;0.03334353013153879;-0.0458855919241358;0;3.7852145111733333
53.7273753;86.8544665;11.0;1.284303531996127;-1.0092660373626199;-0.0367084735393086;-0.026817579280105974;-0.0050983991026817;1;1.6338301651337443
53.727245;86.8545154;14.0;4.217360791155466;-1.1663238891230252;-0.1213418986438258;-0.026817579280105974;-0.058121749770572;1;4.3773470634027865
53.7270984;86.8545992;15.0;0.874808598365203;-1.2142264288893774;-0.0795350260018354;0.07005200367084741;0.0020393596410727;0;1.498653303719127
53.7269524;86.8545044;15.0;-1.3614067761575441;-1.1723746961494745;-0.0560823901294993;-0.03701437748546965;0.0428265524625267;0;1.797508295619769
53.7268152;86.8542904;18.0;-0.11271176334153377;-1.0601697303911077;-0.0214132762312633;0.002753135515448202;0.0193739165901906;0;1.0663593799615907
53.7266931;86.8540659;20.0;-0.35291863694125003;-0.8970125711020591;-0.0418068726419904;0.00785153461813004;0.023452635872336;0;0.9648476209307355
53.7265528;86.853772;19.0;-1.9168886838875379;-0.7373164690066902;-0.0683185479759355;0.0017334556949117896;0.0509839910268175;1;2.0549367936464935
53.7264675;86.8534563;19.0;-1.1005759741397694;-1.0560066076034236;-0.1498929336188436;-0.01764046089527893;0.037728153359845;1;1.532607360580216
53.7264747;86.8531819;18.0;-2.244841827485987;-0.7080213058700688;-0.113184460079535;-0.03701437748546965;0.0591414295911083;1;2.356569481683084
53.7265365;86.8529365;15.0;-0.0591752815326283;-0.5421844002492997;-0.0346691138982359;0.00785153461813004;0.0183542367696543;0;0.5465048812926079
53.7266537;86.8527209;19.0;1.97349460115852;-0.4271428217450275;-0.0713775874375446;-0.01764046089527893;-0.0173345569491179;0;2.020452100634542
53.7268153;86.8524985;20.0;2.1572750559525016;-0.34749395390672166;-0.0244723156928724;0.016008973182420783;-0.0198837565004588;0;2.1852200368091004
53.7270031;86.8522767;21.0;2.2480351349448924;-0.343063925118706;0.0622004690527174;0.019068012644029797;-0.0214132762312633;0;2.274911805546521
53.7271763;86.8520403;23.0;1.722576791633787;-0.3272409288998306;-0.0897318242071989;-0.04721117569083311;-0.0132558376669725;0;1.7556791360889743
53.7273783;86.8517559;26.0;2.151532266486919;-0.4062961300465133;-0.0907515040277353;-0.01050270215152449;-0.020393596410727;1;2.1914386768760856
53.7275749;86.8514917;25.0;1.8527265554850918;-0.510574584817673;-0.0764759865402263;-0.024778219639033372;-0.0152951973080452;1;1.9233124219893898
53.7277941;86.8512757;25.0;1.2267633491928631;-0.643675282268823;-0.0876924645661262;-0.026817579280105974;-0.0040787192821454;1;1.3881484618975093
53.7280127;86.8510591;25.0;1.0602552682309514;-0.5393639753800548;-0.07545630671969;0.03334353013153879;-0.0010196798205363;1;1.1919515031967698
53.728248;86.8508592;21.0;1.3045874710488836;-0.13645551651923826;-0.0356887937187722;-0.05434893443458755;-0.0056082390129499;1;1.3121898748288507
53.7286529;86.8504705;20.0;4.6339509508637216;-0.06291114280707077;-0.0499643112062812;0.005812174977057216;-0.0632201488732537;1;4.634647306893417
53.7288543;86.8503135;23.0;5.09773648857267;-0.16830442455123773;-0.0331395941674313;-0.017130620985010614;-0.0729071071683491;1;5.1006217188643115
53.7291723;86.8500683;22.0;3.1009724931113647;-0.179382365544821;-0.0734169470786173;0.05781584582441124;-0.0346691138982359;1;3.1070240559448705
53.7293841;86.8498449;25.0;1.5221455450525294;0.0003124865898151974;-0.0723972672580809;-0.004384623228306239;-0.0091771183848271;0;1.5238663072190974
53.7299011;86.8494147;27.0;2.0483008832392082;-0.032108356746435085;-0.0978892627714897;0.0017334556949117896;-0.0183542367696543;0;2.050889992812248
53.7301594;86.849289;23.0;1.6531996143794774;0.08791977803875106;-0.040787192821454;0.017028653002957195;-0.0112164780258998;0;1.6560381781387439
53.730356;86.849204;20.0;1.7685477165937544;0.6579290216528384;-0.0142755174875089;0.011930253900275356;-0.0132558376669725;0;1.887017597639614
53.7305182;86.849059;18.0;1.9371154029811144;0.4441737094340996;-0.0662791883348628;0.004792495156520804;-0.0163148771285816;0;1.9884917146987215
53.7306371;86.8487939;18.0;1.3472956975404777;0.4896996247002052;-0.0418068726419904;-0.008463342510451666;-0.0061180789232181;0;1.434140590612618
53.7307067;86.8485307;19.0;0.7649540727342699;0.4332136952913781;0.0101967982053635;0.005812174977057216;0.0040787192821454;0;0.8791659762948055
53.7307028;86.848194;19.0;0.7076845875727623;0.22481724908310818;0.0071377587437544;0.0007137758743755995;0.0050983991026817;0;0.7425706825435616
53.7306341;86.8478949;17.0;-1.3994811756138623;0.1254996527300456;-0.0836137452839808;0.005812174977057216;0.0418068726419904;0;1.4075826732854217
53.7305679;86.8475983;17.0;-3.660508930824247;-0.04033674819696609;-0.0122361578464362;0.011930253900275356;0.0805547058223717;0;3.660751618104952
53.7304716;86.8473228;17.0;-7.522046871398333;0.2549389428077449;-0.0540430304884266;-0.032935658203324225;0.1549913327215254;1;7.526559881460968
53.730343;86.8470662;18.0;-2.2812244584500982;0.5368220474190517;-0.0815743856429081;-0.046191495870296695;0.0601611094116447;1;2.3449557183066685
53.730175;86.8468982;18.0;-5.1496846482890914;0.5229157251576173;-0.0800448659121035;0.004792495156520804;0.107576221066585;1;5.176784717660214
53.7299661;86.8466637;18.0;-5.421339117307879;0.586294921473653;-0.0652595085143265;-0.021719180177424358;0.1152238197206077;1;5.45334011072571
53.7298054;86.846503;18.0;-1.1100440111327168;0.38412502657622216;-0.0683185479759355;-0.021719180177424358;0.037728153359845;1;1.17661258139259
53.7296343;86.8463575;20.0;-1.1674405263923364;0.36836002617371566;-0.0917711838482716;-0.019679820536351533;0.0387478331803813;1;1.2276108673886972
53.7294434;86.8462178;19.0;-3.7108756406926924;0.4699496371879981;0.0122361578464362;-0.014581421433669917;0.0836137452839808;1;3.7405347753681393
53.7290781;86.8459549;19.0;-1.980293534337775;0.6277331895461677;-0.06984806770674;-0.0013255837666972248;0.052258590802488;1;2.0785788875960822
53.728849;86.8458026;18.0;-1.375147096337869;0.6065290794555156;-0.0387478331803813;-0.05638829407566015;0.0438462322830631;1;1.5034654819342552
53.7286514;86.8456818;19.0;-2.422241735817148;0.781948548204638;-0.0020393596410727;0.07922912205567456;0.0550627103089629;1;2.545329589220531
53.7284854;86.845567;18.0;-3.6917383005047384;1.074001309309608;-0.0265116753339451;-0.0308962985622514;0.0846334251045171;1;3.844881449504182
53.7283278;86.845435;18.0;0.3040461983557844;0.9964146091097015;0.0540430304884266;0.07820944223513804;0.0112164780258998;1;1.0431715166386673
53.7281374;86.8452958;19.0;-2.8394865159496008;1.0863332918851272;-0.0729071071683491;0.04557968797797496;0.0642398286937901;0;3.0410720382117287
53.727934;86.8451692;20.0;-3.7295960023338797;1.1312325345666236;-0.0642398286937901;0.003772815335984392;0.0825940654634444;1;3.897909714639052
53.7277466;86.845033;20.0;1.18797787007178;1.0490312784446936;-0.0275313551544814;0.0680126440297748;-0.003059039461609;0;1.5850918012696407
53.7275598;86.8448974;18.0;-1.9738374368325995;0.8481518577642291;-0.0591414295911083;0.0007137758743755995;0.0520036708473539;0;2.1491611176375027
53.727397;86.8448114;17.0;2.1240390532359;0.7260120271261279;-0.0265116753339451;-0.039053737126542476;-0.020393596410727;0;2.244847039807403
53.7270039;86.8447255;13.0;1.4592028850369507;0.5362054796728999;-0.0265116753339451;0.10981951667176504;-0.0071377587437544;0;1.5548286867241734
53.7268761;86.8446233;13.0;-6.359721365698591;0.220494983578988;-0.0254919955134087;0.09248495972264725;0.1172631793616804;1;6.363593617520049
53.7268001;86.8444705;11.0;-2.0424215418856053;0.21556870367983771;-0.1050270215152442;0.027225451208320428;0.0520036708473539;1;2.0564499254815183
53.7267958;86.8443638;4.0;-1.639082291471011;-0.2090199042195211;-0.0509839910268175;0.005812174977057216;0.0458855919241358;1;1.6531422945151517
53.726825;86.8443418;1.0;-2.248726475800989;-0.4585201794027767;-0.0499643112062812;-0.022738859997960326;0.058121749770572;1;2.2955408840363107
53.7268455;86.8443623;3.0;3.107156779568033;-0.6299898728913949;-0.0703579076170082;0.004792495156520804;-0.0367084735393086;1;3.1711607855682042
53.7268534;86.8443702;2.0;1.2924069118217456;-0.5692345974937911;-0.0591414295911083;0.002753135515448202;-0.0050983991026817;1;1.4134501623342153
53.7268676;86.8444356;1.0;2.55956320102407;-0.22860253196550406;-0.037728153359845;-0.01050270215152449;-0.0275313551544814;1;2.5700284650590093
53.7268842;86.8444778;2.0;2.2230214918671036;-0.24597287318062477;-0.058121749770572;-0.0013255837666972248;-0.0214132762312633;1;2.23734336780034
53.726885;86.8445042;2.0;5.297645916456102;-0.22292646868063182;-0.0591414295911083;-0.002345263587233637;-0.07545630671969;1;5.302664063966009
53.7269213;86.8444893;5.0;2.9215579364375825;-0.1495977266378019;-0.0397675130009177;0.02824513102885695;-0.0326297542571632;1;2.925655774500292
53.7269633;86.8444545;7.0;0.7060958162155816;-0.01612105522440066;-0.0591414295911083;0.00785153461813004;0.0050983991026817;0;0.7087516481764092
53.7269854;86.844451;2.0;1.0590337340714924;0.18736913738730987;-0.0560823901294993;0.011930253900275356;-0.0010196798205363;0;1.0769423745165339
53.7269886;86.8444542;3.0;0.24305320425805677;0.4707384430250663;-0.0632201488732537;-0.0013255837666972248;0.0132558376669725;0;0.533541309614662
53.7269898;86.844481;4.0;1.4627649757304861;0.8438524535166056;-0.0550627103089629;-0.008463342510451666;-0.0081574385642908;0;1.6896154117420843
53.7269685;86.8445109;3.0;2.332217130820733;1.3165767606896637;-0.0020393596410727;-0.008463342510451666;-0.023452635872336;0;2.678173868715309
53.7269327;86.8445519;3.0;-0.11670142360203695;1.898776956371978;-0.0081574385642908;-0.046191495870296695;0.020393596410727;0;1.9023773800494752
53.7268863;86.8445311;5.0;3.2196423644512544;2.600318632391285;0.0346691138982359;0.027225451208320428;-0.037728153359845;0;4.138714280110314
53.7268467;86.8444403;4.0;3.7198607066627254;3.431067380575321;-0.0254919955134087;0.0022432956051799957;-0.0474151116549403;0;5.060655776562615
53.7268137;86.8444073;4.0;1.5863564776544044;4.400888792751827;0.0152951973080452;0.003772815335984392;-0.0101967982053635;0;4.678096085313491
53.7277193;86.8537865;8.0;-4.605740809647735;3.306731597111751;0.0622004690527174;-0.03701437748546965;0.1019679820536351;1;5.670202038670419
53.7277154;86.8539362;7.0;-3.2097880143442277;3.120596835769523;-0.0183542367696543;0.002753135515448202;0.0734169470786173;1;4.476739950728657
53.7277087;86.8540319;8.0;-2.735052818819147;2.9207936637271215;-0.0101967982053635;0.016008973182420783;0.0642398286937901;1;4.001456425164806
53.7276654;86.8541678;8.0;5.135764175583243;2.709285965782644;-0.0989089425920261;-0.01050270215152449;-0.0734169470786173;1;5.807416559066148
53.7276034;86.8542082;5.0;0.20778086415222685;2.4880376267341884;0.0311002345263587;-0.03191597838278781;0.0142755174875089;1;2.4968923373146334
53.7275489;86.8542561;7.0;3.615043056813948;2.2590125313798515;-0.023452635872336;-0.004384623228306239;-0.0458855919241358;0;4.2628891547493115
53.7274734;86.8543342;8.0;0.5471499946033795;2.0241745645177316;-0.0183542367696543;-0.03191597838278781;0.0081574385642908;0;2.0969007277986296
53.7274022;86.8544166;10.0;3.7426554107455754;1.7854876109459257;-0.0265116753339451;0.04252064851636583;-0.0458855919241358;0;4.146822687474535
53.7273244;86.854518;8.0;2.459802170181286;1.544915555462532;0.0050983991026817;-0.0003059039461608126;-0.0254919955134087;0;2.9047231853675974
53.7272239;86.8545199;10.0;2.433212626698433;1.3044222828656475;-0.0214132762312633;-0.01866014071581512;-0.0254919955134087;0;2.7608874854220464
53.7270827;86.8545579;13.0;3.4842115455046514;1.0659716779533697;-0.0163148771285816;-0.01050270215152449;-0.0438462322830631;0;3.643664623321191
53.7269403;86.8545435;11.0;-0.5762848659176532;0.8315276255237962;-0.0183542367696543;-0.0003059039461608126;0.0275313551544814;0;1.0118692191693384
53.7268395;86.8544939;12.0;-1.0701063330004001;0.6030540103750255;-0.0428265524625267;0.07005200367084741;0.0336494340776996;0;1.229079255765384
53.7267244;86.8543788;14.0;0.2961350329019803;0.38251471730510644;-0.023452635872336;0.00428265524625282;0.0122361578464362;0;0.4843175536734373
53.7266065;86.8542097;14.0;0.43554912767178366;0.414596153050824;-0.0239624757826042;0.017028653002957195;0.0096869582950953;0;0.6018033009097123
53.7264442;86.8537658;17.0;-0.7646901576071554;0.07894731223875961;-0.0591414295911083;0.00887121443866623;0.0305903946160905;0;0.7710262148235042
53.726421;86.853461;16.0;-0.2062123979098831;-0.052926308034212166;-0.1101254206179259;-0.011012542061792585;0.0214132762312633;0;0.23969220971936356
53.7264305;86.8531889;17.0;0.4143325556084769;-0.6402663559896489;-0.1213418986438258;0.009890894259202643;0.0101967982053635;1;0.7722281590409689
53.7266237;86.8527165;18.0;0.7729626507605916;-0.6576754787723615;-0.0305903946160905;-0.0288569389211788;0.0040787192821454;0;1.0153541584550996
53.7267437;86.8524781;18.0;2.6519721631160214;-0.6753716452508041;-0.0917711838482716;-0.02120934026715604;-0.0295707147955541;0;2.7381572568674653
53.7268918;86.8522678;19.0;0.9414175224177126;-0.7392735037528526;-0.078515346181299;0.005812174977057216;0.0010196798205363;0;1.199565306455673
53.7270566;86.8520742;21.0;2.604538873487958;-0.778920074539049;-0.0346691138982359;-0.01866014071581512;-0.0285510349750178;0;2.718738893952181
53.7272316;86.8518652;22.0;2.037158384936234;-0.8511519822733278;-0.023452635872336;-0.013561741613133504;-0.0183542367696543;0;2.207945653401184
53.7274432;86.851616;23.0;1.810399362489519;-0.796609682977325;-0.0876924645661262;-0.005404303048842873;-0.0142755174875089;1;1.979854238841176
53.7276642;86.8514018;26.0;1.8158326192571494;-0.648412743711976;-0.0662791883348628;-0.0003059039461608126;-0.0142755174875089;1;1.9292693223530768
53.7278975;86.8511743;26.0;1.5375011451258498;-0.5431108700443765;-0.0734169470786173;-0.08442948914041004;-0.0101967982053635;1;1.6322589367321607
53.728128;86.850944;22.0;-1.8685993819677287;-0.3820902771741097;-0.0764759865402263;0.005812174977057216;0.0499643112062812;1;1.9087967955543268
53.7283509;86.8507829;20.0;1.8840743630558001;-0.20812716446169155;-0.078515346181299;0.011930253900275356;-0.0152951973080452;1;1.8971604522804475
53.7286034;86.850549;19.0;6.075920175346281;-0.040121904399399444;-0.020393596410727;0.012949933720811546;-0.0876924645661262;1;6.076086869290726
53.7287918;86.8504046;20.0;4.137201900564483;-0.05336230546967391;-0.0642398286937901;-0.02120934026715604;-0.0560823901294993;1;4.138044690100629
53.7289774;86.8502062;22.0;4.882314064662534;-0.1751844040067536;-0.0061180789232181;-0.021719180177424358;-0.0693382277964719;1;4.885459817898261
53.7291603;86.8500307;22.0;3.5919954761300628;-0.46131957428137094;-0.0438462322830631;0.009890894259202643;-0.0448659121035994;1;3.6217633470782435
53.729377;86.8498634;24.0;0.4415705884544756;-0.5361363590409041;-0.0805547058223717;0.061894565106556554;0.0091771183848271;0;0.6992251716749033
53.7296108;86.849662;25.0;3.3182254982755643;-0.594403156290868;-0.0652595085143265;-0.005404303048842873;-0.040787192821454;0;3.3716753065896183
53.729906;86.8494196;25.0;1.7583747715905238;-0.5666820190218407;-0.0795350260018354;0.0017334556949117896;-0.0132558376669725;0;1.8491447126738916
53.7301499;86.8493307;21.0;2.8239014957715405;-0.43895341081441686;-0.020393596410727;-0.00846334251045211;-0.032119914346895;0;2.857886571132752
53.730348;86.8492216;19.0;1.1730872712377725;-0.2826554969120272;-0.0652595085143265;-0.01050270215152449;-0.003059039461609;0;1.2084232202859226
53.7305227;86.8490379;15.0;0.8293661408625935;-0.3354502881661312;-0.0836137452839808;-0.02375853981849696;0.003059039461609;0;0.8985356697652388
53.7306221;86.8488813;11.0;0.6730226773136374;-0.473252812876257;-0.0591414295911083;0.019068012644029797;0.0056082390129499;0;0.8248790564487536
53.7306925;86.8487213;10.0;0.971041458771801;-0.773769842312376;-0.1040073416947078;-0.003364943407770049;0.0005098399102681;0;1.2459770506121637
53.7307148;86.8485388;11.0;2.6868003087578147;-0.5977669801609564;-0.0876924645661262;-0.0003059039461608126;-0.0295707147955541;0;2.7538901993459213
53.7307138;86.8482818;11.0;1.057753685266566;-1.1060137170893771;-0.0795350260018354;-0.008463342510451666;-0.0010196798205363;0;1.532460446943403
53.7306842;86.8480986;11.0;2.5195379407925205;-1.3511235372736916;-0.0479249515652085;0.0017334556949117896;-0.0265116753339451;0;2.859353606857766
53.7306538;86.847889;11.0;1.472444190026354;-1.7389000187257198;-0.0662791883348628;0.012949933720811546;-0.0081574385642908;0;2.2795302364024486
53.7306142;86.8476958;11.0;-2.337412862275381;-1.8900828654121034;-0.0458855919241358;-0.004384623228306239;0.0586315896808402;0;3.0063295917781607
53.7305587;86.8475379;12.0;-2.0218939488123464;-1.7867639397812454;-0.0122361578464362;0.01498929336188437;0.0520036708473539;0;2.6982828317849528
53.7304166;86.847191;12.0;-3.882119725703947;-1.7332134632499798;-0.0703579076170082;-0.0003059039461608126;0.0856531049250535;0;4.252038653287964
53.7303245;86.8470477;12.0;-1.943615896785181;-1.767115964804046;-0.1040073416947078;0.013969613541347958;0.0509839910268175;1;2.628908350328668
53.7302411;86.8469387;10.0;-4.294289126568535;-1.5680797299627;-0.1040073416947078;0.026205771387784238;0.0907515040277353;1;4.572812118293408
53.7301601;86.8468321;8.0;-3.7798999186001847;-1.2510784930143934;-0.1070663811563169;0.005812174977057216;0.0836137452839808;1;3.9830018830388165
53.7300917;86.8467637;7.0;-3.122929248586807;-0.9298462932823166;-0.1193025390027531;0.002753135515448202;0.0723972672580809;1;3.260603366958687
53.7300099;86.8466819;10.0;-5.4734205004977925;-0.7139514038631578;-0.0897318242071989;-0.011522381972060902;0.1152238197206077;1;5.520517220571206
53.7299054;86.8465774;11.0;-5.770695079211812;-0.7254662424974088;-0.0356887937187723;0.012949933720811546;0.1172631793616804;1;5.816227012096402
53.7297777;86.8464753;14.0;-5.148904854766185;-0.7659374743423801;-0.2222902008769246;-0.007443662689915698;0.1111451004384623;1;5.210306550620863
53.7296313;86.8463801;15.0;-3.2514369325445607;-0.515503669974561;-0.0275313551544814;-0.04211277658815127;0.0774956663607627;0;3.29216405052796
53.7294732;86.8462732;16.0;-4.416314322620289;-0.453371784986913;-0.0249821556031405;0.010910574079739055;0.0938105434893443;0;4.439594832831245
53.7292604;86.8461628;19.0;-1.1146242783014149;-0.24673529219837143;0.0112164780258998;-0.021719180177424358;0.037728153359845;0;1.141661681749226
53.7290328;86.8459864;19.0;-0.9324362011643459;0.03646862740218593;0.0387478331803813;0.06393392474762916;0.0316100744366268;0;0.9339532239906722
53.7288475;86.8458267;18.0;-1.174739558540125;0.4980303930875478;-0.0387478331803813;-0.10023452635872343;0.0418068726419904;1;1.2765377775115627
53.7286766;86.8457326;19.0;-1.453867073405525;0.8795727844467027;-0.0540430304884266;-0.021719180177424358;0.0438462322830631;1;1.700087762268891
53.7285302;86.8456118;18.0;-4.362952145425975;1.241745978370998;0.0066279188334862;0.0007137758743755995;0.0938105434893443;1;4.536224027468852
53.7283324;86.8454396;18.0;0.4405956627596155;1.5409217906647428;-0.0805547058223717;-0.09360660752523708;0.0107066381156316;1;1.6046973433075007
53.7281273;86.8452857;19.0;-0.3048365006565861;1.5026246533266157;-0.0428265524625267;0.06087488528602003;0.0214132762312633;1;1.5338318860009759
53.7279431;86.8451271;20.0;-0.07453429593229144;1.5476809499014823;-0.0734169470786173;0.13327215254410119;0.0163148771285816;1;1.5512129873348863
53.7277267;86.8450131;22.0;-0.8829568124440603;1.3544445778587473;-0.0759661466299582;0.04150096869582964;0.0316100744366268;0;1.6186116589738688
53.7274939;86.8448827;22.0;-0.6139553331542535;1.1005305670977183;0.0224329560517997;0.023146731926175224;0.0275313551544814;1;1.2604014906934211
53.7272553;86.8448489;18.0;-3.1345031675203154;1.1836747877996077;0.0091771183848271;-0.015601101254206107;0.0734169470786173;0;3.350564180846143
53.7270645;86.8448117;17.0;-2.888374311562618;0.6321539571633723;-0.0749464668094218;-0.0625063729988784;0.0723972672580809;1;2.9576919653911484
53.726911;86.844735;14.0;2.8903841132591923;0.4514362454346559;-0.0081574385642908;-0.14306107882125008;-0.037728153359845;1;2.9254369843968946
53.7267721;86.8445449;12.0;-2.2634796257841523;0.4220359343581368;-0.0081574385642908;0.0343632099520752;0.0550627103089629;1;2.302503179158162
53.7267486;86.8443678;1.0;-2.633950398018423;0.4100938449033218;-0.0448659121035994;-0.01050270215152449;0.0642398286937901;0;2.6660616292422588
53.7267564;86.84435;3.0;-3.951568274935802;0.4145580190178024;-0.0887121443866625;-0.03191597838278781;0.0897318242071989;0;3.9742445857260416
53.7267951;86.8443631;4.0;1.8051628594889026;0.4343764986491214;-0.0193739165901906;-0.015601101254206107;-0.0142755174875089;0;1.8567905752940652
53.7268451;86.8443875;2.0;2.1108101378188704;0.4684973257448237;-0.0622004690527174;0.002753135515448202;-0.0193739165901906;0;2.1630714459997264
53.7268788;86.8443188;6.0;2.6043473725341784;0.5158685422524503;-0.0999286224125624;0.02212705210563881;-0.0275313551544814;0;2.656827303248862
53.7270083;86.8443715;4.0;-0.5810193981721741;0.5754381901195456;-0.0214132762312633;0.002753135515448202;0.0275313551544814;0;0.8180288381832086
53.72701235;86.84442675;1.0;-1.2064392074041121;0.6461543112936519;-0.0683185479759355;-0.003364943407770049;0.0387478331803813;0;1.3702840505394405
53.7269357;86.8444269;9.0;2.585496989824226;0.726964947722315;-0.0305903946160905;0.005812174977057216;-0.0275313551544814;0;2.6859278642304996
53.726852;86.8443688;8.0;2.6740652513791296;0.8168181413530742;0.0091771183848271;0.023146731926175224;-0.0285510349750178;0;2.7960509766774044
53.7267741;86.8442909;6.0;2.376371078555639;0.9146619341334765;-0.0428265524625267;-0.01764046089527893;-0.0244723156928724;0;2.5466802057471427
53.7267215;86.8442895;5.0;3.660797320519064;1.0194443680110632;-0.061180789232181;-0.007443662689915698;-0.0469052717446721;0;3.800585077374286
53.7266792;86.8442984;4.0;3.524775674047808;1.130113484933376;-0.0193739165901906;0.005812174977057216;-0.0438462322830631;0;3.701563911353076
53.7276739;86.8538947;9.0;-9.182114886680072;7.182672484020195;0.1916998062608341;-0.07882125012746011;0.1967982053635158;1;11.659278134627936
53.7276532;86.8540276;5.0;-3.8462714042972834;4.975585076295282;-0.0091771183848271;0.00785153461813004;0.084123585194249;1;6.288905690696051
53.7276329;86.8541353;7.0;5.882207494917875;3.0920800371588815;-0.0152951973080452;-0.014581421433669917;-0.0866727847455898;1;6.645416308443376
53.7276014;86.8542062;5.0;6.005424959004396;1.5107003756085993;-0.0290608748852859;-0.0008157438564291297;-0.0876924645661262;1;6.192591468645904
53.7275259;86.8543355;13.0;1.7937568183984478;0.20998910064204424;-0.0560823901294993;-0.0288569389211788;-0.0142755174875089;1;1.8068769134675482
53.7273583;86.8544495;14.0;0.6646498080725063;-0.8315107787431799;-0.0152951973080452;-0.045171816049760505;0.0061180789232181;1;1.0646142426238723
53.7271581;86.8545565;17.0;1.4547868986247843;-1.6352562535494624;-0.0897318242071989;-0.02375853981849696;-0.0081574385642908;0;2.1905523813546424
53.7269372;86.8545404;15.0;-4.714277181381771;-2.2227043147791967;-0.0703579076170082;-0.03701437748546965;0.1040073416947078;1;5.212463337904561
53.7267824;86.8543344;19.0;-1.9268471566195777;-2.6153119534347784;-0.0456306719690017;-0.016110941164474424;0.0520036708473538;0;3.2487965059351027
53.7266169;86.8540665;16.0;-1.388401222846634;-2.8345361605185975;-0.0448659121035994;-0.025797899459569784;0.0428265524625267;0;3.1566225860812738
53.7264891;86.8537339;22.0;-0.9351222397354264;-2.9018339270330458;-0.1233812582848985;-0.01866014071581512;0.0346691138982359;0;3.0512811535851285
53.7264314;86.853369;18.0;-1.8646139587222144;-2.838662243980459;-0.0805547058223717;0.025186091567248048;0.0489446313857448;0;3.397245591812878
53.7264484;86.8530532;19.0;0.8240319833207526;-2.2932755886608476;-0.07545630671969;0.006831854797593628;0.003059039461609;1;2.437998213556988
53.7267118;86.8524974;22.0;0.03411919802326602;-2.2193543229562174;-0.0836137452839808;-0.024778219639033372;0.0173345569491179;0;2.2211908942949083
53.7269678;86.852267;22.0;-0.9308261971920695;-1.977437096554668;-0.0540430304884266;-0.04211277658815127;0.0351789538085041;0;2.1862331827492643
53.7271545;86.8520697;20.0;2.261931632354429;-1.6581417049330498;-0.0876924645661262;-0.014581421433669917;-0.0224329560517997;0;2.805968387460118
53.727335;86.8518662;20.0;1.5260720816929672;-1.3871984894229765;-0.0193739165901906;0.0007137758743755995;-0.0091771183848271;0;2.06242357342621
53.727649;86.8515146;19.0;2.1121157311846055;-1.0556739634727696;-0.0596512695013765;0.003772815335984392;-0.0193739165901907;0;2.36199886812524
53.7278516;86.8512564;18.0;-0.19655890471709836;-0.8179548103113299;-0.0632201488732537;-0.023248699908228865;0.0214132762312633;0;0.8436126255329429
53.7280049;86.8510769;19.0;1.6869108243424762;-0.6588066241979265;-0.0428265524625267;-0.019679820536351533;-0.0122361578464362;0;1.8114989403714004
53.7281637;86.8508773;18.0;-1.6025648542575688;-0.3501589559529079;-0.078515346181299;-0.0064239828693790635;0.0458855919241358;0;1.6422515234036417
53.7283115;86.8507179;18.0;5.083937907792318;-0.06565471677518753;-0.0520036708473539;0.044560008157438435;-0.0683185479759355;1;5.08462777142085
53.7284728;86.850572;18.0;4.575148363089392;-0.08868561948801679;0.0265116753339451;-0.027837259100642386;-0.0642398286937901;0;4.576084631244545
53.7286368;86.85048;19.0;5.87029306341261;-0.1413619156930066;-0.0265116753339451;0.019068012644029797;-0.0836137452839808;0;5.872054726455434
53.7288437;86.8503029;22.0;4.752244239872162;-0.40524998726640593;-0.0152951973080452;-0.01050270215152449;-0.0662791883348628;0;4.769516412660539
53.729049;86.8501242;21.0;5.259665057567805;-0.53265333789943;-0.0367084735393086;0.01498929336188437;-0.0734169470786173;0;5.286694960767524
53.729243;86.8499598;20.0;2.201655590290849;-0.519014776148337;-0.0540430304884266;0.029264810849393252;-0.020393596410727;0;2.2626498459248237
53.7294496;86.8498336;20.0;3.248689524859717;-0.8682107985758178;-0.0672988681553992;-0.01050270215152449;-0.0397675130009177;0;3.363376689779471
53.7296503;86.8497015;23.0;3.746684392148982;-0.7786161087780346;-0.0326297542571632;-0.019679820536351533;-0.0489446313857448;0;3.8268723103971367
53.7298749;86.8495421;21.0;1.817599182016765;-0.8403532013033659;-0.078515346181299;0.002753135515448202;-0.0142755174875089;0;2.004002232781889
53.7300643;86.8494243;18.0;3.021980098493114;-0.9163021568320642;-0.0530233506678902;-0.009483022330988078;-0.0356887937187723;0;3.158288275952592
53.7302283;86.8492811;17.0;3.4652913362738507;-1.1037151196093573;-0.07545630671969;-0.015601101254206107;-0.0438462322830631;0;3.63759876357092
53.7303656;86.8491624;15.0;0.8839397881909972;-1.5462312653520294;-0.0693382277964719;-0.004384623228306239;0.0020393596410727;0;1.7824108574998185
53.730487;86.848951;15.0;0.5608601740779648;-1.8111033996092911;-0.0846334251045171;0.005812174977057216;0.0076475986540226;0;1.8978467998202644
53.7306324;86.848738;15.0;0.9414331637911271;-1.9436376192190288;-0.0683185479759355;0.004792495156520804;0.0010196798205363;0;2.160715395587009
53.7306939;86.8483643;16.0;0.12936456169288846;-2.1078009279694117;-0.0112164780258998;-0.0064239828693790635;0.0152951973080452;0;2.1117968063121064
53.730643;86.847955;14.0;0.7336650869374143;-2.017715801137422;-0.0560823901294993;0.014479453451616164;0.0045885591924135;0;2.1476933553077706
53.7306039;86.8477111;10.0;-2.049629460204085;-1.901509343920127;-0.078515346181299;0.00785153461813004;0.0530233506678902;0;2.796941788585885
53.7305199;86.8473711;12.0;-6.013284402690842;-1.5893448081640948;-0.0275313551544814;-0.052309574793514946;0.1294993372081166;1;6.219836348522344
53.7304428;86.8472172;11.0;-6.260435573474362;-1.3021082614207722;-0.078515346181299;-0.005404303048842873;0.1284796573875803;0;6.3948967273654596
53.7303447;86.8470679;15.0;-2.747915059967645;-1.3471049339118748;-0.0897318242071989;-0.039053737126542476;0.0683185479759355;0;3.0616630578890054
53.7302105;86.8468825;16.0;-3.083493435361895;-1.3809934945176598;-0.1050270215152442;0.020087692464565987;0.0703579076170082;0;3.380252279500505
53.7300654;86.8467374;16.0;-5.571963744392219;-1.097324428225905;-0.0703579076170082;0.020087692464565987;0.113184460079535;0;5.67942348348553
53.7298846;86.8465822;17.0;-5.3077682100246415;-1.0208566762800988;-0.040787192821454;0.04150096869582964;0.1060467013357805;1;5.405202615994343
53.7297009;86.8464241;21.0;-1.7192989547501103;-0.7448049232126874;-0.07545630671969;-0.04925053533190571;0.0499643112062812;0;1.8752111677543026
53.7295166;86.8462654;23.0;-0.868987527313688;-0.7592764597076478;-0.0010196798205363;0.031304170490465966;0.0316100744366268;0;1.1539675492143933
53.7293114;86.8460858;24.0;-1.8201601739645863;-0.5757206540804591;0.003059039461609;-0.03497501784439683;0.0509839910268175;1;1.9090433960871744
53.7290618;86.8459642;24.0;-2.3726861207546146;0.14525877959648725;-0.0173345569491179;-0.020699500356887945;0.0601611094116447;0;2.3771916261706934
53.7288477;86.8458013;21.0;0.2424309519883775;0.21118343437794262;-0.0173345569491179;-0.002345263587233637;0.0132558376669725;1;0.321980894312498
53.7286468;86.8456772;21.0;-3.127623224451474;0.2323800265249123;-0.0917711838482716;-0.11247068420515971;0.0805547058223717;1;3.1375865663023337
53.7284345;86.8455417;22.0;-3.5885241565216557;0.44452270267973315;-0.1101254206179259;-0.03599469766493324;0.0836137452839808;1;3.61762818202803
53.7282193;86.8453009;22.0;0.3270008138977455;0.6696872073402569;0.023452635872336;0.13225247272356477;0.0101967982053635;0;0.7456275974602473
53.7279458;86.8451042;23.0;-2.456131675247352;0.5138324091281492;0.0081574385642908;-0.02987661874171521;0.0622004690527174;0;2.5093172566711712
53.7275199;86.8448575;21.0;0.7185520062001263;0.36891844024002474;-0.0428265524625267;-0.03701437748546965;0.0050983991026817;1;0.8088584021688744
53.7273288;86.8447944;19.0;-0.5149513801425143;0.19342998090797248;-0.0020393596410727;-0.021719180177424358;0.0270215152442133;0;0.5500856664306792
53.7271318;86.8447254;14.0;-1.4807800186863598;0.21042922591825697;-0.0469052717446721;0.08330784133781999;0.0397675130009177;1;1.496392337383072
53.7270118;86.8447078;12.0;4.524993006963204;-0.0021543881048131652;0.0061180789232181;0.006831854797593628;-0.061180789232181;0;4.524997655838478
53.7268373;86.8446357;15.0;2.321310887353083;0.07085245774012083;-0.0336494340776996;-0.06046701335780558;-0.0244723156928724;1;2.3226356991412844
53.726732;86.8444536;12.0;-2.442972959657297;-0.016018173401889158;-0.1284796573875803;0.04252064851636583;0.058121749770572;0;2.4464015381491024
53.7267347;86.8443027;3.0;-2.162994980470452;0.08931884653871891;-0.0132558376669725;0.02212705210563881;0.0540430304884266;0;2.164878947913631
53.7267662;86.844283;2.0;-2.557501024951662;0.15227930083579166;-0.023452635872336;-0.016620781074742297;0.0632201488732537;0;2.5621378776758283
53.7267794;86.8443474;5.0;2.404149192382358;-0.28933546499885043;-0.0152951973080452;0.0017334556949117896;-0.0244723156928724;0;2.4215454349649392
53.7268134;86.844407;1.0;-0.5029976245663748;-0.7024534060829195;-0.0774956663607627;-0.007443662689915698;0.0265116753339451;0;0.8674404742353271
53.7268164;86.8443844;2.0;1.4739966897243302;-0.694533407993525;-0.0020393596410727;0.013969613541347958;-0.0081574385642908;0;1.629431512867334
53.7268263;86.8443943;0.0;1.2278134444629791;-0.646419806585373;-0.0458855919241358;-0.024778219639033372;-0.0040787192821454;0;1.3883407032483577
53.7268302;86.8443982;1.0;5.541981446273216;-0.5608303164427269;-0.0244723156928724;0.011930253900275356;-0.078515346181299;0;5.570340015556788
53.726865;86.8443818;7.0;2.2430486494905564;-0.4404826521498091;-0.0601611094116447;0.01498929336188437;-0.0214132762312633;0;2.2866813441999256
53.7269434;86.8443578;9.0;-0.9881637867495952;-0.2880945282908449;-0.0509839910268175;-0.026817579280105974;0.0356887937187723;0;1.030565618490859
53.7270086;86.8444486;3.0;0.36513545678065096;-0.10638365945005912;-0.0672988681553992;-0.009992862241256173;0.0112164780258998;0;0.3862259991914042
53.7269508;86.8444676;7.0;2.2820757461257397;0.10193223978832555;-0.0050983991026817;-0.002345263587233637;-0.0224329560517997;0;2.2843567773526594
53.7268642;86.8444066;10.0;3.1372715471486083;0.33413545484008367;-0.0662791883348628;-0.06352605281941481;-0.0397675130009177;0;3.155711044049461
53.7267975;86.8443399;6.0;2.874544888695188;0.5875082711209898;-0.0520036708473539;-0.026817579280105974;-0.0336494340776996;0;2.934429870952926
53.7267463;86.8443143;6.0;3.4760557376617083;0.8593329740468216;0.023452635872336;0.009890894259202643;-0.0428265524625267;0;3.580777384555538
53.7266968;86.8442904;4.0;4.8657588510447916;1.1468918490333522;-0.0158050372183134;0.0343632099520752;-0.0652595085143265;0;4.999121913806598
53.7276726;86.8538934;10.0;-2.63055259962468;3.311348866049358;0.0632201488732537;0.07005200367084741;0.0591414295911083;1;4.229519485627426
53.7276513;86.8540001;7.0;-2.1259486383132065;1.920587451397162;-0.0968695829509534;-0.04109309676761508;0.0571020699500356;1;2.866652662481298
53.727621;86.8541234;7.0;1.0549256395927458;0.7532022658729911;-0.0499643112062812;-0.0625063729988784;-0.0010196798205363;1;1.2971808627869477
53.7275752;86.8542312;8.0;4.9527949581799025;-0.20626720759224648;-0.0795350260018354;-0.0003059039461608126;-0.0693382277964719;0;4.957726281175805
53.7274926;86.8543278;12.0;4.278972058289317;-0.9732814860676422;-0.0632201488732537;0.023146731926175224;-0.0560823901294993;0;4.388721398535832
53.727366;86.8544316;16.0;5.292620878596748;-1.563301086622289;-0.0489446313857448;0.06393392474762916;-0.0703579076170082;0;5.518889528603932
53.7272166;86.8545382;15.0;2.131320137880331;-1.991786526325277;-0.0545528703986948;-0.005404303048842873;-0.0198837565004588;1;2.917655756297148
53.7270552;86.8545816;18.0;2.719009238917822;-2.2741983222456996;-0.133578056490262;-0.01050270215152449;-0.0305903946160905;1;3.5472288264786846
53.7269003;86.8544779;18.0;-1.781344228657689;-2.4259969914526485;-0.0825940654634444;-0.046191495870296695;0.0509839910268175;1;3.0108919680319217
53.7267557;86.8542565;20.0;-4.463617226037727;-2.462643051015216;-0.0662791883348628;-0.053329254614051136;0.1009483022330988;1;5.098321534397433
53.7266221;86.8539949;20.0;-1.0778403307222155;-2.399597018002492;-0.0734169470786173;0.019068012644029797;0.0356887937187723;1;2.631576652019882
53.7265089;86.8537281;21.0;-3.1799746395204176;-2.2523194094834924;-0.1244009381054349;0.031304170490465966;0.0713775874375446;1;3.8988019985285978
53.7264407;86.8534039;18.0;0.360038052095213;-1.6330355853341194;-0.0989089425920261;0.0007137758743755995;0.0112164780258998;1;1.6751762894838078
53.7264513;86.8530817;19.0;-1.8216572609315573;-1.6254616961381068;-0.1427551748750892;-0.03497501784439683;0.0514938309370857;1;2.4455960299833763
53.726537;86.8528346;19.0;1.6397456335075193;-1.5696796711766217;-0.0479249515652085;-0.003364943407770049;-0.0112164780258998;0;2.2704529974643055
53.7266798;86.8525166;21.0;1.2240815272775265;-1.3475498564531962;-0.061180789232181;-0.04109309676761508;-0.0040787192821454;1;1.8215403618970907
53.7268559;86.8522831;22.0;0.49140588493756787;-1.1288303820774592;-0.0428265524625267;-0.032935658203324225;0.0091771183848271;0;1.231897677913325
53.7270649;86.8520825;23.0;0.745146019219054;-0.8652005328297889;-0.0713775874375446;-0.029111858876312846;0.0045885591924135;0;1.1440757457246256
53.7273357;86.8517901;22.0;1.588046702227101;-0.401215846225337;-0.0683185479759355;0.00887121443866623;-0.0101967982053635;0;1.6393699727987652
53.7276368;86.8514768;21.0;1.5771540500983625;-0.25079405146640266;-0.0591414295911083;-0.01050270215152449;-0.0101967982053635;0;1.5980645364586128
53.7278564;86.8511844;21.0;0.886611220730719;-0.0240034990277187;-0.0356887937187723;-0.02987661874171521;0.0020393596410727;0;0.8876538259300697
53.7280355;86.8510307;20.0;-0.1689294504946115;0.25045830837540306;-0.0489446313857448;0.0017334556949117896;0.020393596410727;0;0.3060426447738392
53.7281916;86.850854;17.0;0.8280858407592723;0.4299710699276549;-0.0418068726419904;-0.01866014071581512;0.003059039461609;0;0.9339963036547986
53.728365;86.8506434;17.0;2.6626148747695857;0.3194506551190486;-0.078515346181299;0.054756806362802;-0.0275313551544814;0;2.6828588020964155
53.7285158;86.850487;17.0;4.152179570191433;0.2517134621035515;-0.0560823901294993;0.0017334556949117896;-0.0550627103089629;0;4.160180294723044
53.7288682;86.8501482;20.0;4.59780000001265;-0.23186828504707702;-0.0061180789232181;-0.013561741613133504;-0.0637299887835219;0;4.603646942654997
53.7290698;86.8499658;20.0;5.590202770382628;-0.25259460415120705;-0.0642398286937901;0.024166411746711636;-0.078515346181299;0;5.59627535094821
53.7292802;86.8498434;25.0;3.3570271343252904;-0.26805353372966634;-0.0474151116549403;-0.014581421433669917;-0.0418068726419904;0;3.3680457345995887
53.7295144;86.849668;26.0;1.6962600080684627;-0.314668228598201;-0.0300805547058223;-0.0064239828693790635;-0.0122361578464362;0;1.7254619522994301
53.7297472;86.8494656;24.0;2.0547655836441727;-0.34202275255364256;-0.0703579076170082;0.03334353013153879;-0.0178443968593861;0;2.084224412619042
53.7299812;86.8493412;22.0;2.3797133033938547;-0.356338024277874;-0.0846334251045171;-0.012542061792597092;-0.0244723156928724;0;2.40773233781101
53.730174;86.8492268;19.0;2.5128607876332656;-0.41468877195910636;-0.0713775874375446;0.037422249413683994;-0.0254919955134087;0;2.5478482834741616
53.7303493;86.8491205;17.0;2.3479436890231833;-0.128329618754075;-0.0774956663607627;0.0063220148873252;-0.023452635872336;0;2.3527247259673323
53.730488;86.8489776;14.0;1.5238079753344909;-0.2566758541872378;-0.0703579076170082;-0.0013255837666972248;-0.0091771183848271;0;1.5468753909025743
53.7305973;86.8488565;13.0;0.8233278973094135;-0.33065621412621615;-0.0622004690527174;0.009890894259202643;0.003059039461609;0;0.8894218665957119
53.7306711;86.8486487;15.0;3.7116822470097546;-0.7507766161506289;-0.0693382277964719;-0.009483022330988078;-0.0479249515652085;0;3.7874870851212057
53.7307032;86.8483224;15.0;2.3539979697333755;-0.8710080236639861;-0.0132558376669725;0.00785153461813004;-0.023452635872336;0;2.510007397604268
53.7306694;86.8480326;15.0;-0.7137093147857612;-0.5385908812760265;-0.0509839910268175;0.012949933720811546;0.0295707147955541;0;0.8955782996180012
53.7306177;86.8477505;15.0;-5.317721142613447;-0.5105645203341926;-0.0642398286937901;-0.0018354236769655419;0.1111451004384623;0;5.342561280473324
53.7305422;86.8474702;14.0;-4.05080837487274;-0.40865023828600977;-0.0326297542571632;-0.008973182420719983;0.0892219842969307;0;4.07149950362925
53.7304543;86.8472799;16.0;-3.6546136053116633;-0.631540091271245;-0.0622004690527174;-0.012542061792597092;0.0825940654634444;0;3.709300795212271
53.7303161;86.8470393;17.0;-2.4722587174685984;-0.7286501470489815;-0.0764759865402263;-0.005404303048842873;0.061180789232181;1;2.578535006435104
53.7301911;86.8468887;15.0;-3.526756545244476;-0.8200819064892713;-0.0622004690527174;0.023146731926175224;0.0774956663607627;1;3.6213830177331707
53.7300578;86.8467554;18.0;-4.642699843340301;-0.8751154407049642;-0.15091261343938;-0.01050270215152449;0.1009483022330988;1;4.726866138025002
53.7298686;86.846515;19.0;-3.811116800037567;-1.1090963587191798;-0.0652595085143264;-0.009483022330988078;0.0851432650147853;1;3.969756264546258
53.7296218;86.8462938;22.0;-2.107310383801852;-0.982598076628352;-0.0672988681553992;-0.0308962985622514;0.0560823901294993;1;2.3261094496020265
53.7293899;86.8461643;21.0;-2.931039519605757;-1.0907744439934381;-0.0038237993270112;0.005812174977057216;0.0683185479759355;1;3.1274264459138337
53.7291105;86.8460129;22.0;1.0580488660385747;-1.1301835035898549;-0.0458855919241358;-0.005404303048842873;-0.0010196798205363;1;1.548834284957039
53.7288989;86.8459037;20.0;-2.2980836596261707;-0.706343509436687;-0.1121647802589986;-0.002345263587233637;0.058121749770572;1;2.4068009053294577
53.7287058;86.8457618;21.0;-1.6810210846638318;-0.4137096971137968;-0.0989089425920261;-0.01866014071581512;0.0479249515652085;1;1.734004204001544
53.7285135;86.8455951;20.0;-0.5371740948132382;-0.05985499225280222;-0.113184460079535;-0.019679820536351533;0.0275313551544814;1;0.5522221928168957
53.7283205;86.8454277;22.0;-0.3321298319147097;0.40287117843496345;0.0112164780258998;0.03538288977261139;0.0224329560517997;1;0.522246322189611
53.7281294;86.8452622;22.0;-1.565520821670337;0.7292668073245361;-0.0367084735393086;-0.046191495870296695;0.0469052717446721;1;1.727435391375977
53.7279041;86.8451393;22.0;-5.8873819129755525;1.178419355463547;-0.0428265524625267;0.004792495156520804;0.1203222188232894;1;6.004312790000087
53.7277021;86.8449885;21.0;-0.8646712812932456;1.4204850798613613;-0.037728153359845;0.09248495972264725;0.0295707147955541;1;1.663387417397999
53.7274792;86.844868;21.0;-0.6566551707040345;1.2304533870518943;0.0152951973080452;0.012949933720811546;0.0285510349750178;1;1.3947922762836464
53.7272735;86.8448415;17.0;-4.436593587352778;1.2307593109631725;-0.0683185479759355;-0.03701437748546965;0.0989089425920261;1;4.604649667983426
53.727118;86.844814;9.0;-1.0957952724727722;1.007240580795967;0.0122361578464362;-0.0308962985622514;0.037728153359845;1;1.4884389776993605
53.7270073;86.8447545;12.0;1.8750766923362716;0.9701126655444678;0.0101967982053635;-0.0013255837666972248;-0.0152951973080452;1;2.111192828873328
53.7268844;86.8447084;14.0;1.5783290693334173;0.9236934689120297;-0.0336494340776996;0.09146527990211084;-0.0091771183848271;1;1.8290611143500317
53.7267901;86.8443325;1.0;-1.3876577221042141;0.8738526175577621;-0.0244723156928724;-0.002345263587233637;0.0418068726419904;1;1.6400644027486788
53.7267961;86.8443385;2.0;-1.7472626456589428;0.826459738140791;-0.0520036708473539;-0.01866014071581512;0.0489446313857448;1;1.9335632478572902
53.7268242;86.8443666;3.0;3.56778969882863;0.787384457320246;-0.0479249515652085;0.0007137758743755995;-0.0448659121035994;0;3.6539559958597905
53.7268225;86.8444161;2.0;5.078729925950795;0.7624964017552558;-0.0367084735393086;-0.0003059039461608126;-0.0713775874375446;0;5.135780946990192
53.7268647;86.8443815;10.0;3.6230292430911906;0.7576651981049509;-0.1029876618741715;-0.01866014071581512;-0.0469052717446721;0;3.7028372779817977
53.7269828;86.8443716;2.0;-0.4444094857018326;0.7787604730284583;-0.0550627103089629;-0.009483022330988078;0.0254919955134087;0;0.8983315464792742
53.7269175;86.8444343;9.0;2.1628881543169474;0.8316518531849062;-0.0509839910268175;-0.003364943407770049;-0.020393596410727;0;2.317828583034449
53.726745;86.8443642;7.0;3.9851424378497726;0.9222089652334229;-0.0448659121035994;0.003772815335984392;-0.0520036708473539;0;4.090701966114986
53.7266911;86.8443615;5.0;4.324875623004248;1.056301435833142;0.0173345569491179;-0.0003059039461608126;-0.058121749770572;0;4.45203575509723
53.7277474;86.8538402;8.0;-2.938915624710528;2.0170493269124;0.0142755174875089;-0.021719180177424358;0.0703579076170082;0;3.5645359903871046
53.7277418;86.8540138;9.0;-4.048289323795204;1.2145949520747656;-0.0418068726419904;-0.003364943407770049;0.0887121443866625;1;4.226775977191107
53.7276935;86.8542215;9.0;5.391888314535264;0.5352533055468864;-0.0540430304884266;0.03232385031100238;-0.0744366268991536;1;5.4186600139393475
53.7276257;86.8543329;8.0;3.7630469449194504;-0.02951084583488406;-0.0571020699500356;-0.012542061792597092;-0.0489446313857448;0;3.7635958664662814
53.7275304;86.8544168;13.0;0.8261267282553203;-0.4882327352341944;-0.0968695829509534;-0.003364943407770049;0.003059039461609;0;0.9644896531291534
53.7273868;86.854478;14.0;3.3039498232166373;-0.8494475958146905;-0.0265116753339451;0.011930253900275356;-0.0397675130009177;0;3.411502384770912
53.727185;86.8545066;16.0;1.8719973600624735;-1.121690660740021;-0.1254206179259712;-0.064545732639951;-0.0163148771285816;1;2.1859310112337003
53.7270095;86.8545103;17.0;-0.24614614856109562;-1.3134971631738317;-0.0938105434893443;0.020087692464565987;0.0214132762312633;1;1.339650380579549
53.7268517;86.8544037;18.0;-2.4223735282455414;-1.4334023362797712;-0.0520036708473539;-0.021719180177424358;0.061180789232181;1;2.815180305021094
53.7266885;86.8542405;19.0;-2.5711948161020564;-1.4899414132214863;-0.0662791883348628;0.0710716834913836;0.058121749770572;0;2.9724335363450693
53.7265628;86.8539868;18.0;-1.0163975440279622;-1.4916496271626247;-0.0479249515652085;-0.012542061792597092;0.0356887937187723;0;1.805652064685497
53.726485;86.8537298;17.0;-1.8013554378737737;-1.4470622112668314;-0.0550627103089629;0.02212705210563881;0.0479249515652085;1;2.3112555806099064
53.7264638;86.8534782;14.0;0.006716379400063199;-1.3647143986977524;-0.095849903130417;0.004792495156520804;0.0173345569491179;0;1.368092724816313
53.7264615;86.8532199;18.0;2.0219482572391776;-1.139068997954527;-0.1029876618741715;-0.02375853981849696;-0.0183542367696543;0;2.323006542296424
53.7265219;86.8528963;21.0;1.3633841701585037;-1.1652018470474141;-0.0448659121035994;0.036402569593147804;-0.0061180789232181;0;1.7940247182997187
53.7266714;86.852585;23.0;-0.4586701281926402;-0.9234509965444482;-0.0601611094116447;0.0007137758743755995;0.0254919955134087;0;1.0328404468265306
53.7268645;86.8523685;24.0;0.3457386947750838;-0.7735087043142528;-0.0672988681553992;0.020087692464565987;0.0112164780258998;0;0.8499294667027909
53.7270915;86.8521347;26.0;-0.3510160194818319;-0.8538915646305609;-0.0367084735393086;-0.03701437748546965;0.0244723156928724;0;0.9239537662186801
53.7273187;86.8518755;26.0;-1.1884214500861225;-0.566484270328194;-0.0805547058223717;-0.09105740797389617;0.0418068726419904;0;1.3189916725226878
53.7275508;86.8516212;28.0;2.2744157782264836;-0.560087062954973;-0.0897318242071989;-0.004384623228306239;-0.0224329560517997;0;2.3440811527356855
53.7278166;86.8514006;27.0;-1.296117091546253;-0.6402251866509863;-0.0866727847455898;-0.039053737126542476;0.0418068726419904;0;1.448212683357028
53.728052;86.8511496;25.0;1.1181135571210443;-0.46662324984670267;-0.0662791883348628;0.012949933720811546;-0.0020393596410727;1;1.2133870424236866
53.7282722;86.8509602;20.0;-0.1877993005351748;-0.485149389143936;-0.0418068726419904;-0.03191597838278781;0.0214132762312633;0;0.521906429993288
53.7284415;86.8507711;19.0;2.9111192174705076;-0.4794186678866805;-0.0713775874375446;-0.005914142959110746;-0.0336494340776996;0;2.951195032090008
53.7285845;86.8505813;20.0;6.50421280369321;-0.28249436747073897;-0.0418068726419904;-0.004384623228306239;-0.0968695829509534;0;6.510478867025027
53.728761;86.8503738;21.0;4.876522831620624;-0.34046338718476044;-0.0601611094116447;-0.0064239828693790635;-0.0683185479759355;0;4.8887636069272355
53.7289685;86.8501717;23.0;4.252431352907107;-0.36174154094445576;-0.0101967982053635;-0.022738859997960326;-0.058121749770572;0;4.26780193171214
53.7292218;86.8499386;25.0;1.9337307268199186;-0.13821966694055066;-0.0938105434893443;-0.05944733353726939;-0.0173345569491179;0;1.9409326671078557
53.7294561;86.8497377;27.0;1.4691913347247425;0.016672887688493176;-0.0622004690527174;0.005812174977057216;-0.0081574385642908;0;1.4706019385151514
53.7297028;86.8495236;25.0;0.8808242277969128;0.1703666775427628;-0.0326297542571632;0.020087692464565987;0.0020393596410727;0;0.8977420709501535
53.7299348;86.849346;22.0;2.182578794251376;0.12013802036143728;-0.061180789232181;0.013969613541347958;-0.020393596410727;0;2.186738764924432
53.7301629;86.8492413;19.0;1.7089038085223276;-0.06610330627896932;-0.07545630671969;0.013969613541347958;-0.0122361578464362;0;1.7118456496153218
53.7303488;86.8491712;19.0;1.4961650824603332;-0.16648336876608427;-0.0458855919241358;0.0002039359641071714;-0.0086672784745589;0;1.5060983213573635
53.7305271;86.8489655;17.0;1.1142354897958755;-0.2943744623603197;-0.0805547058223717;-0.019679820536351533;-0.0020393596410727;0;1.155277504083201
53.730638;86.8486668;18.0;2.4966040981034503;-0.46280500148037884;-0.0418068726419904;0.025186091567248048;-0.0254919955134087;0;2.5394818972897406
53.7306656;86.848336;18.0;1.119983026968596;-0.32222002956139484;-0.0112164780258998;0.026205771387784238;-0.0020393596410727;0;1.1654670898517858
53.7306322;86.8480466;17.0;0.3508962326901043;-0.2890326193288173;-0.0622004690527174;0.011930253900275356;0.0112164780258998;0;0.45884302272407157
53.730571;86.8477294;17.0;-1.8459476567719904;-0.16950101033846865;-0.0295707147955541;0.036402569593147804;0.0479249515652085;0;1.8539492364197256
53.7304854;86.8474646;19.0;-3.90829106197254;-0.4096122479887918;-0.0550627103089629;0.016008973182420783;0.0846334251045171;1;3.9300830933789994
53.7303815;86.8471815;19.0;-3.8519333296286575;-0.13970557626023306;-0.0856531049250535;-0.005404303048842873;0.0856531049250535;1;3.855417549154128
53.7302072;86.8469304;19.0;-6.139314463973564;-0.16696778870547613;-0.0907515040277353;-0.013561741613133504;0.1274599775670439;1;6.142254973989887
53.7300408;86.846764;20.0;-4.460501570933933;0.13117615954827366;-0.1182828591822167;-0.0064239828693790635;0.0968695829509534;1;4.463997343627596
53.7298571;86.8466059;20.0;-4.604675419210175;0.4567198390449052;-0.0244723156928724;0.054756806362802;0.092790863668808;1;4.627334829239286
53.7296667;86.8463899;22.0;-4.782312442198042;0.47266098783618693;-0.0050983991026817;0.03334353013153879;0.0978892627714897;1;4.805616162147981
53.7294674;86.8462162;24.0;-1.1237770407522927;0.6835455681441882;-0.0397675130009177;0.03844192923422041;0.0356887937187723;1;1.3159372462780357
53.7292008;86.8460008;24.0;1.719641144260942;0.8840008230933485;-0.0367084735393086;-0.13592332007749564;-0.0142755174875089;1;1.933900367726938
53.7289856;86.8458112;23.0;-3.4835167308663646;0.9983010905049383;0.0020393596410727;-0.053329254614051136;0.0825940654634444;1;3.6237408903668844
53.7287704;86.8456472;21.0;0.4821707718105751;1.2212441026601917;-0.0458855919241358;0.09860303864586517;0.0081574385642908;1;1.3137851038190875
53.7285682;86.8455218;22.0;2.0026654147344134;1.6370398185858672;-0.0520036708473539;0.010910574079738833;-0.0173345569491179;1;2.5871359672020735
53.7283595;86.8453387;23.0;-3.5548935242693593;1.847860408495705;-0.0448659121035994;0.11797695523605589;0.0703579076170082;1;4.0067279678369765
53.7281487;86.8451791;22.0;0.8773007786179474;2.1874138951020687;0.0525135107576221;0.04914856734985218;0.0020393596410727;1;2.3573701180470903
53.7279424;86.8450496;23.0;-3.20683621126678;2.512983179736907;-0.0096869582950953;-0.025797899459569784;0.07545630671969;1;4.07418418639775
53.7276442;86.8448794;19.0;-3.279751048393705;2.495965925372613;0.0152951973080452;0.019068012644029797;0.0734169470786173;1;4.121510255127538
53.7274812;86.8447932;17.0;-0.9774500263489487;2.422024254816729;-0.0601611094116447;-0.06148669317834199;0.0367084735393086;1;2.612514000731045
53.7273058;86.8447458;14.0;0.20830862622149238;2.1780030451108807;-0.0387478331803813;0.04150096869582964;0.0132558376669725;1;2.1882849775216044
53.7271427;86.8447363;15.0;-0.420543145726034;2.1601207872075303;0.0305903946160905;0.054756806362802;0.023452635872336;1;2.2008893940827643
53.727015;86.8446854;9.0;1.496624120679786;2.026165790112413;-0.0356887937187723;0.0007137758743755995;-0.0086672784745589;1;2.5192271151326358
53.7269119;86.8446335;9.0;-1.6955079592213984;1.8703836065400952;-0.0061180789232181;-0.08289996940960509;0.0509839910268175;0;2.5245038138784333
53.7268291;86.8446019;4.0;-2.744710095237897;1.7979315317396332;-0.0152951973080452;-0.012542061792597092;0.0662791883348628;0;3.2811926555423625
53.7267922;86.8445906;2.0;0.466811688361056;1.7891108895481345;-0.0142755174875089;0.013969613541347958;0.0091771183848271;0;1.8490632000799088
53.7267749;86.8445477;2.0;0.7997813840131496;1.45937035645372;-0.0346691138982359;-0.020699500356887945;0.0035688793718772;0;1.664516160020183
53.7267357;86.8445341;2.0;-0.038067950221335245;0.7815268588187672;-0.0285510349750178;-0.012542061792597092;0.0183542367696543;0;0.7829741767691499
53.7267319;86.8445047;2.0;2.750790111616101;0.310430975734989;-0.0412970327317222;-0.016620781074742297;-0.0311002345263586;0;2.768559024794874
53.7267155;86.8444627;8.0;-1.4230664568742446;0.35394648326152023;-0.0764759865402263;0.01498929336188437;0.0418068726419904;0;1.4684157552311659
53.7267156;86.8443092;6.0;-1.9132395884292674;-0.02665884597175605;-0.0326297542571632;-0.0013255837666972248;0.0509839910268175;0;1.9137035082960008
53.7267517;86.8442173;3.0;-0.417273616743961;-0.070764955510501;-0.0458855919241358;0.011930253900275356;0.0244723156928724;0;0.42571168377813823
53.7267723;86.8441867;2.0;-3.1297686020099027;-0.328331161123002;-0.0672988681553992;-0.014581421433669917;0.0734169470786173;0;3.1476629411591066
53.7267742;86.8441886;3.0;-1.396163485862428;-0.48121142683797435;-0.07545630671969;0.003772815335984392;0.0418068726419904;0;1.4786921825717283
53.7267936;86.8442592;5.0;4.797525716924508;-0.5675941617584592;-0.0260018354236769;-0.013561741613133504;-0.0672988681553992;0;4.831054981312022
53.7268009;86.8443433;2.0;2.0526186462168017;-0.5757135184932598;-0.058121749770572;0.002753135515448202;-0.0183542367696543;0;2.132619867667273
53.7267968;86.8443392;4.0;6.927559453439209;-0.4938036496511651;-0.0948302233098807;0.002753135515448202;-0.1040073416947078;0;6.945783958387762
53.7269235;86.8443123;8.0;-3.134143492722556;-0.3100987078409667;-0.1009483022330988;-0.039053737126542476;0.07545630671969;0;3.151064455275951
53.7269598;86.8443486;3.0;0.7679301578884246;-0.012832845671454152;-0.0723972672580809;-0.004384623228306461;0.0040787192821454;0;0.7714420092456762
53.7269188;86.84441;4.0;2.6494941949273123;0.40975978424858317;0.0254919955134087;0.00887121443866623;-0.0285510349750178;0;2.68111402435186
53.726859;86.8443758;6.0;3.5912850934541383;0.9694450293103536;-0.0254919955134087;-0.013561741613133504;-0.0458855919241358;0;3.7199196401475807
53.7267989;86.8443157;5.0;3.9593352496644414;1.677988736905067;-0.0560823901294993;-0.004384623228306239;-0.0520036708473539;0;4.30059612785231
53.7267473;86.8442641;5.0;1.1170941609868905;2.547156754423934;0.0356887937187723;0.002753135515448202;-0.0020393596410727;0;2.781578793799589
53.726702;86.8442444;4.0;2.097264282753064;3.588714929258164;0.0010196798205363;-0.011522381972060902;-0.0193739165901906;0;4.156608395668167
53.7266616;86.8442296;3.0;2.693117327290598;4.814429108798967;0.0132558376669725;-0.0003059039461608126;-0.0295707147955541;0;5.516501092126777
53.7277555;86.8538483;8.0;-1.7885104867150035;0.40725036729663744;0.0050983991026817;-0.025797899459569784;0.0499643112062812;0;1.8342978537920702
53.7277406;86.853987;10.0;2.986257669994012;-0.21185559261087672;-0.0836137452839808;0.03334353013153879;-0.0336494340776996;1;2.9949305371108337
53.7276983;86.8541239;10.0;3.240593084827114;-0.6840859075298416;-0.0759661466299582;-0.013561741613133504;-0.0397675130009177;1;3.3128821176951107
53.7275085;86.8544461;14.0;1.3383461531644003;-1.02337185011773;-0.1029876618741715;-0.0308962985622514;-0.0061180789232181;1;1.687917897233643
53.7273551;86.8544975;15.0;2.1765670236017582;-1.2436446930320137;-0.092790863668808;-0.013561741613133504;-0.0209034363209952;1;2.508526714053034
53.7271889;86.8545105;16.0;3.3449981465780967;-1.3588357089301626;-0.0815743856429081;-0.01764046089527893;-0.0418068726419904;1;3.6113849787675165
53.7270164;86.854466;15.0;-4.093684241822211;-1.3828761704696504;-0.0438462322830631;-0.04007341694707889;0.092790863668808;1;4.32117109898251
53.7268533;86.8543797;17.0;-1.1541285948057438;-1.3296973503079474;-0.0825940654634444;-0.026817579280105974;0.0387478331803813;1;1.7626484721617175
53.7267161;86.8541401;18.0;0.18642973515453154;-1.2132305211025267;-0.0907515040277352;0.034873049862343186;0.0137656775772407;1;1.2308209370041578
53.7265947;86.8538907;18.0;-3.8757746352084963;-1.0474069555108594;-0.0744366268991536;-0.0013255837666972248;0.0856531049250535;1;4.015498868733772
53.7265074;86.8536754;18.0;-0.5972212442758744;-0.8461579261904175;-0.0244723156928724;0.012949933720811546;0.0275313551544814;1;1.0359803786291821
53.7264623;86.8533743;18.0;-0.5394243277887356;-0.623414705798623;-0.0672988681553992;-0.022229020087692453;0.0275313551544814;1;0.8271358041285064
53.7264654;86.8530446;18.0;-0.6408807452669445;-0.35695680903915994;-0.0530233506678902;-0.0308962985622514;0.0295707147955541;1;0.7354983133151181
53.7265319;86.8527527;22.0;1.6016542706752719;-0.20462261401570014;-0.0428265524625267;-0.01866014071581512;-0.0107066381156316;1;1.6152402083079722
53.7268135;86.8523943;21.0;-2.108809997833503;0.02191553329087359;-0.0591414295911083;-0.0308962985622514;0.0560823901294993;1;2.109752972804172
53.7269983;86.8521695;21.0;-0.23673477870638093;0.034016509374720005;-0.0387478331803813;0.00887121443866623;0.0214132762312633;0;0.24228469397668154
53.7271889;86.8519505;22.0;1.3427689261385498;0.02847476528498083;-0.0438462322830631;-0.021719180177424358;-0.0061180789232181;0;1.3437863272658825
53.7273825;86.8517345;25.0;2.6568642189454525;0.0788321233428304;-0.0571020699500356;-0.020699500356887945;-0.0295707147955541;0;2.6586467663034794
53.7276245;86.8515157;27.0;1.0582815662778602;0.35132993849069827;-0.0652595085143265;-0.0003059039461608126;-0.0010196798205363;0;1.1169831702648567
53.7278666;86.8512714;25.0;0.23608064773948745;0.3767549999673272;-0.0632201488732537;0.00785153461813004;0.0132558376669725;0;0.4490826087269836
53.7281074;86.851077;23.0;0.9434526112648655;0.16857020864112338;-0.0509839910268175;-0.03191597838278781;0.0010196798205363;0;0.9597489839978096
53.7282969;86.8509081;18.0;0.7196910086708478;0.06852016085104973;-0.1029876618741715;-0.03701437748546965;0.0050983991026817;0;0.7302442186714145
53.728526;86.8505996;18.0;4.568751878293202;0.011488945054159316;-0.0152951973080452;-0.013561741613133504;-0.0632201488732537;0;4.568791926136144
53.7289515;86.8502059;22.0;3.926531279238851;-0.05999385817704095;-0.0101967982053635;0.002753135515448202;-0.0509839910268175;0;3.9270028169780695
53.7291502;86.8500718;22.0;3.5644834599371245;0.008130333989622596;-0.0504741511165493;-0.023248699908228865;-0.0458855919241357;0;3.5648500779734134
53.7294059;86.8498667;25.0;2.621893944929333;-0.07671855545833628;-0.0683185479759355;-0.04211277658815127;-0.0295707147955541;0;2.6239056803182264
53.7299851;86.8494219;26.0;1.230571223362778;0.011941465752071334;-0.0448659121035994;-0.012542061792597092;-0.0040787192821454;0;1.2314467444602546
53.7302111;86.8492895;21.0;0.6450005000213379;-0.02587478714928748;-0.0418068726419904;0.013459773631079974;0.0061180789232181;0;0.6468716752478041
53.7303981;86.8491437;17.0;0.30030813528052247;0.0034681696542149254;-0.0571020699500356;-0.0003059039461608126;0.0122361578464362;0;0.30570844068980785
53.730545;86.8489578;14.0;0.71379953544263;-0.07293938117262577;-0.0907515040277353;-0.016620781074742297;0.0050983991026817;0;0.7232328571126011
53.7306356;86.8487924;16.0;2.740829040790503;-0.49289465929957466;-0.0795350260018354;-0.03701437748546965;-0.0316100744366268;0;2.7859315850120487
53.7306873;86.8484857;20.0;1.170016318209011;-0.615807070853013;-0.0458855919241358;-0.02987661874171521;-0.003059039461609;0;1.3229746864298522
53.7305863;86.8477447;14.0;-4.748433685689203;-0.5573324817292802;-0.0693382277964719;-0.020699500356887945;0.1029876618741715;0;4.781532155325573
53.7305247;86.8475295;15.0;-2.0727373469855523;-0.5783825056869958;-0.0254919955134087;-0.0064239828693790635;0.0540430304884266;0;2.1520725532167195
53.7304307;86.8472819;19.0;-6.500184872191954;-0.4443685897548115;-0.0540430304884266;-0.005404303048842873;0.1325583766697257;0;6.515580362897704
53.7302879;86.8470111;17.0;-3.419215399723199;-0.5560555985912035;-0.0836137452839808;0.027225451208320428;0.07545630671969;0;3.465144013865703
53.7301339;86.8468315;19.0;-5.522456078524166;-0.4054646240867852;-0.0346691138982359;0.037422249413683994;0.1101254206179259;0;5.537429426012835
53.7299674;86.846665;19.0;-5.251744221103135;-0.27904854373647225;-0.1050270215152442;-0.027837259100642386;0.113184460079535;1;5.260201149091162
53.7298087;86.8464807;19.0;-2.652386630958276;0.08588122224056294;-0.058121749770572;-0.020699500356887945;0.0652595085143265;1;2.654413035346255
53.7296332;86.8463308;21.0;-3.647392202191228;0.43051689491478795;-0.07545630671969;0.011930253900275356;0.0805547058223717;1;3.673487216206996
53.7292282;86.8460282;18.0;-1.9359432241380898;0.522757409086875;-0.0622004690527174;0.00785153461813004;0.0509839910268175;1;2.0062453424722966
53.7290125;86.8458637;19.0;-2.325155880436401;0.46041412065455756;0.0387478331803813;-0.052309574793514946;0.061180789232181;1;2.3706185744236166
53.7288521;86.8457033;17.0;2.327997489511361;0.4178345973868307;-0.0173345569491179;-0.011522381972060902;-0.023452635872336;1;2.365260778182659
53.7286872;86.8455896;19.0;-2.90835209173758;0.7260036567971495;-0.0448659121035994;-0.0288569389211788;0.0703579076170082;1;2.9979336465749333
53.7285302;86.8454582;18.0;-4.230674261758201;1.088657333423576;-0.0907515040277353;-0.020699500356887945;0.0938105434893443;1;4.369441078010268
53.7283623;86.8452903;19.0;-2.2167837533070127;1.4154439969441526;-0.0571020699500356;0.003772815335984392;0.0560823901294993;1;2.6307551318592433
53.7281801;86.8451337;19.0;-3.998544994678351;1.6488073365049354;0.0509839910268175;-0.0013255837666972248;0.0876924645661262;1;4.325451083380878
53.7280085;86.8449877;19.0;-1.1141315428453118;1.749679172097388;-0.020393596410727;0.005812174977057216;0.0367084735393086;1;2.0743871863296977
53.7278059;86.8449387;19.0;-0.21611035839232096;1.9078741922105644;-0.0224329560517997;-0.008463342510451666;0.0214132762312633;1;1.9202059415137724
53.7276198;86.844855;18.0;-0.2034290563097203;1.7685264942152672;-0.0703579076170082;-0.06556541246048742;0.0224329560517997;1;1.7815778335106918
53.7274261;86.8447893;18.0;0.05303642806606357;1.8350725781162165;-0.0632201488732537;0.01498929336188437;0.0163148771285816;0;1.8369270581271486
53.7272442;86.844761;15.0;-0.04615298129762557;1.6280138618794011;-0.0071377587437544;0.00887121443866623;0.0180993168145202;1;1.628683572629756
53.7270592;86.844704;10.0;0.4395487928486109;1.185747223394707;0.0101967982053635;0.061894565106556554;0.0091771183848271;0;1.264635755376452
53.7269326;86.8446286;12.0;2.9583298465964667;1.2574248257256408;0.0275313551544814;-0.013561741613133282;-0.0346691138982359;0;3.2145902770230723
53.7268016;86.8445488;12.0;-2.335740251292464;1.0110736169899464;-0.0244723156928724;0.07311104313245642;0.0540430304884266;0;2.5452998398452564
53.7267277;86.8444493;9.0;-1.6378676877310738;0.7049403649935111;-0.0815743856429081;-0.03701437748546965;0.0479249515652085;0;1.7849946389565816
53.7267246;86.8442926;6.0;-2.0743711081210243;0.3810063475335759;-0.0402773529111858;-0.005404303048842873;0.0540430304884266;0;2.1094557583001485
53.7267689;86.8442345;1.0;-1.8078859315954232;-0.16449526390133906;-0.0469052717446721;-0.01764046089527893;0.0499643112062812;0;1.8159598943875561
53.7267786;86.8442442;3.0;-1.6574503747337501;-0.018842887791100438;-0.0652595085143265;-0.008463342510451666;0.0469052717446721;0;1.6588416448163124
53.7267904;86.8443072;4.0;3.202227438648145;0.04998450107773156;-0.0489446313857448;-0.0064239828693790635;-0.0387478331803813;0;3.2029915073444286
53.7267944;86.844388;1.0;3.4696921956231823;0.03484134345280321;-0.0571020699500356;-0.026817579280105974;-0.0443560721933312;0;3.4703369430034594
53.7267874;86.8444066;5.0;4.780668559618123;0.016846575689683174;-0.104517181604976;-0.013051901702865187;-0.0672988681553992;0;4.781840600154331
53.7268371;86.8443539;6.0;2.8717560963032995;-0.09963688192529307;-0.084123585194249;0.036402569593147804;-0.0316100744366268;1;2.8747151793666266
53.7269666;86.844381;2.0;-0.7328744354521921;0.19994516172163745;-0.0356887937187723;-0.01050270215152449;0.0305903946160905;0;0.7604976632655501
53.7269445;86.8444101;4.0;3.4385954610282803;0.5272283385677463;-0.0672988681553992;-0.003364943407770049;-0.0428265524625267;0;3.4794306435461815
53.7269022;86.8443934;4.0;2.2236911311950838;0.86079319155836;-0.0152951973080452;-0.002345263587233637;-0.0214132762312633;0;2.384533729820065
53.7268559;86.8444239;5.0;-0.05436469145330003;1.1792202636388536;-0.0086672784745589;0.002753135515448202;0.0183542367696543;0;1.1805045834597405
53.726784;86.8444032;8.0;4.140413004704872;1.4610900977545942;-0.0596512695013765;-0.039053737126542476;-0.0571020699500356;0;4.391054816013901
53.7267178;86.844337;7.0;3.432049230390931;1.6849832368509654;0.0275313551544814;-0.00795350260018357;-0.0428265524625267;0;3.8234654966159143
53.7266676;86.8442612;5.0;4.605381498826204;1.829480223873334;-0.0152951973080452;0.012949933720811546;-0.0622004690527174;0;4.9554788449084315
53.7266382;86.8442318;3.0;3.964620116300443;1.873161601767074;-0.0397675130009177;-0.003364943407770049;-0.0520036708473539;0;4.385034607388978
53.7266149;86.8442341;4.0;2.2788245629148176;1.794607913477563;-0.0050983991026817;-0.004894463138574334;-0.0224329560517997;0;2.900635265822577
53.7265827;86.8442019;2.0;5.465230651313198;1.5723997019501708;-0.0458855919241358;-0.004384623228306239;-0.078515346181299;0;5.68711635033894
53.7265807;86.8441999;1.0;2.952248746898536;1.1851175101302711;-0.0311002345263587;-0.016620781074742297;-0.0346691138982359;0;3.1813901679877215
53.7277405;86.8538845;9.0;-2.2720041491548515;3.926903533857418;0.0458855919241358;0.020087692464565987;0.0560823901294993;0;4.537034241169551
53.7277395;86.8539859;7.0;-1.1283744923522585;2.128674416125836;-0.0346691138982359;-0.014581421433669917;0.037728153359845;0;2.4094990583767357
53.727729;86.8540522;9.0;-0.6576293927474166;0.6589134763621378;-0.0285510349750178;0.0843275211583564;0.0265116753339451;0;0.9313745482538794
53.7276928;86.8541696;11.0;0.7645157553420627;-0.5073714364461388;-0.1121647802589986;0.013969613541347958;0.0040787192821454;0;0.9243868522530015
53.7276168;86.8542984;12.0;4.900778652525695;-1.395172473311451;-0.1091057407973896;-0.04109309676761508;-0.0713775874375446;1;5.09666966695042
53.7272697;86.8544889;19.0;3.5270879534663147;-2.029481785246263;-0.0244723156928724;0.07617008259406544;-0.040787192821454;1;4.069366614397003
53.7269353;86.8543849;21.0;-1.2872140882255678;-2.4352915232630323;-0.0836137452839808;0.00785153461813004;0.0397675130009177;1;2.7558222313138367
53.7267501;86.8541741;21.0;2.027062351225088;-2.6375938383742223;-0.0917711838482716;-0.019679820536351533;-0.0183542367696543;1;3.32780783432108
53.7265978;86.8539194;22.0;-1.2413698453324118;-2.6613808815922937;-0.1060467013357805;-0.01050270215152449;0.0397675130009177;1;2.9385699230526727
53.7264955;86.8535611;23.0;0.17806388935026773;-2.5316448039297033;-0.1580503721831345;-0.05434893443458755;0.0152951973080452;1;2.5428157782470278
53.7264728;86.8532056;21.0;-1.5941810979966542;-2.273377756398915;-0.1560110125420618;-0.046191495870296695;0.0479249515652085;1;2.781006873873846
53.7265189;86.8528677;19.0;1.6022810703230754;-1.9115718900122953;-0.0418068726419904;-0.01764046089527893;-0.0107066381156316;1;2.49462613102664
53.726647;86.8525862;22.0;1.354022179574757;-1.1461312653003164;0.0091771183848271;0.009890894259202643;-0.0061180789232181;1;1.774000326826669
53.7268391;86.8523431;26.0;1.4201181858740424;-0.648373881062569;-0.0723972672580809;0.029264810849393252;-0.0071377587437544;0;1.5628069988967792
53.7270641;86.8520817;26.0;0.28565327295881515;-0.1413517586978421;-0.0295707147955541;0.019068012644029797;0.0122361578464362;0;0.3200820819923795
53.7272917;86.8518229;28.0;3.4087692193453;-0.006133281806588453;-0.0774956663607627;0.05781584582441124;-0.0397675130009177;0;3.409655523100007
53.7275357;86.8515805;28.0;1.701311571536186;0.062329116284693065;-0.0520036708473539;0.0017334556949117896;-0.0122361578464362;0;1.7032470061507101
53.7277676;86.851326;24.0;-1.3096046422234342;0.4757973191946663;-0.0713775874375446;-0.05944733353726939;0.0428265524625267;0;1.3951853525157167
53.727985;86.8511082;23.0;2.118370123421901;0.5839594308820999;-0.0326297542571632;-0.04415213622922409;-0.020393596410727;1;2.19762719713457
53.7284018;86.8507058;22.0;2.175058477116193;0.569523896766877;-0.0112164780258998;0.005812174977057216;-0.020393596410727;0;2.2484133644067423
53.7285888;86.8504832;21.0;5.315720351132926;0.5491658512653395;-0.0514938309370857;0.01498929336188437;-0.0744366268991536;0;5.344260247992169
53.7287804;86.8502652;23.0;4.7421533949303765;0.3596710728698933;0.003059039461609;0.0022432956051799957;-0.0652595085143265;0;4.7557745383303764
53.7289874;86.8500626;22.0;3.2047436005863257;0.0981487081220469;-0.0112164780258998;0.020087692464565987;-0.037728153359845;0;3.206265822383468
53.7291894;86.8499062;21.0;2.7791985120283913;0.12310680807966978;-0.0907515040277353;-0.013561741613133504;-0.0316100744366268;0;2.7834035803202677
53.7293987;86.8497571;22.0;3.486447288592436;0.4337541133439209;-0.0815743856429081;-0.0064239828693790635;-0.0438462322830631;0;3.5142725715813987
53.7296182;86.8495926;25.0;1.996264634598752;0.4928899425209732;-0.0723972672580809;0.005812174977057216;-0.0173345569491179;0;2.05748738783363
53.7298509;86.8494413;22.0;1.5794149484682014;0.9000706680892678;-0.061180789232181;-0.0064239828693790635;-0.0101967982053635;0;1.8189067804509786
53.7300571;86.8493147;21.0;1.8107917268866522;0.7832969308100264;-0.0509839910268175;-0.007443662689915698;-0.0142755174875089;0;1.973605869295735
53.7302436;86.849194;21.0;3.7179235424149915;0.7510794228211797;-0.0632201488732537;0.013969613541347958;-0.0469052717446721;0;3.7935567155181156
53.7304301;86.8490477;18.0;1.9207837810735888;0.5374764605840157;-0.0326297542571632;-0.014581421433669917;-0.0163148771285816;1;1.9948323188128259
53.7305966;86.8488558;19.0;4.300662893913223;0.650671449079101;0.0020393596410727;0.06291424492709285;-0.0540430304884266;0;4.349606743225933
53.7307126;86.8485366;19.0;0.8213259254473417;0.6331859283662871;-0.0050983991026817;0.019068012644029797;0.003059039461609;0;1.0370760287300151
53.7307044;86.8482212;19.0;0.9411267633693547;0.7933514379231079;-0.020393596410727;0.00785153461813004;0.0010196798205363;0;1.2310735102175272
53.7306493;86.8478845;18.0;1.73088934061226;0.7799659756078099;-0.0356887937187723;0.04150096869582964;-0.0122361578464362;0;1.8988413631865324
53.7305655;86.8474935;18.0;-4.1724003391559705;0.9461276789793192;-0.0244723156928724;-0.024778219639033372;0.092790863668808;0;4.278397021006234
53.7304246;86.8472246;20.0;-2.724217281072972;0.9550690961887613;-0.0316100744366269;0.029264810849393252;0.0632201488732537;1;2.8869561773254064
53.730243;86.8469406;21.0;-0.664917463538129;0.666720656557545;-0.0418068726419904;0.05373712654226559;0.0275313551544814;1;0.9425388489598753
53.7300697;86.8467929;22.0;-3.6783446662475408;0.6037494339543352;-0.1172631793616804;-0.04007341694707889;0.0856531049250535;1;3.729407931018799
53.7298846;86.8465566;22.0;-1.9117329445826168;0.230814505978016;-0.0458855919241358;-0.0013255837666972248;0.0509839910268175;1;1.9261629409576508
53.729687;86.8464102;25.0;-5.160868274608534;0.10101673639372022;-0.0550627103089629;-0.08493932905067791;0.1172631793616804;1;5.162150485113648
53.7294553;86.8462297;23.0;-0.7930818374598192;-0.18593789054080068;-0.0224329560517997;-0.009483022330988078;0.0316100744366268;1;0.8148956605385919
53.7291367;86.8459879;21.0;-5.44450262917611;-0.34255535412391147;-0.0825940654634444;-0.025797899459569784;0.116243499541144;1;5.455893586700012
53.728961;86.8458122;17.0;-1.5098735959016145;-0.3451905756430378;-0.0183542367696543;0.023146731926175224;0.0428265524625267;1;1.5489388906993846
53.72883;86.8457324;15.0;-4.4748604098522655;-0.06067779274882801;-0.1080860609768532;0.027225451208320428;0.0938105434893443;1;4.476576825965745
53.7286863;86.8456143;18.0;-2.090809775211792;0.5866973068879391;-0.0050983991026817;0.018048332823493385;0.0530233506678902;1;2.171572066431173
53.7285339;86.8454619;12.0;-4.108862480785299;0.8596719224836482;-0.0418068726419904;-0.09411644743550518;0.0978892627714897;1;4.198039365574358
53.7284067;86.8453091;16.0;-2.899239510369597;1.2963849363414517;-0.0836137452839808;-0.0288569389211788;0.0703579076170082;1;3.1769788951237286
53.7282331;86.8451611;16.0;-2.2703283318739733;1.6936981287112876;-0.0091771183848271;0.07209136331192001;0.0530233506678902;1;2.8325056584606543
53.727849;86.8450074;22.0;-3.7029789234348742;1.9094002064592657;-0.07545630671969;-0.013561741613133504;0.0836137452839808;1;4.166960008213825
53.7276587;86.8448939;18.0;-0.17276466873702323;1.674019132548514;0.0152951973080452;0.05373712654226559;0.0193739165901906;1;1.6829799850155631
53.7275051;86.8448171;17.0;0.6420582538751634;1.7781565233904006;-0.0285510349750178;0.0211073722851024;0.006118078923218;1;1.8907391635662507
53.7272998;86.8447654;14.0;-1.4333386042663525;1.6755133230740884;0.003059039461609;-0.12776588151320478;0.0479249515652085;1;2.2049521101378637
53.7271217;86.8447665;11.0;-2.393535877694721;1.5710250551123843;0.0152951973080452;0.002753135515448202;0.0591414295911083;1;2.8631045500755645
53.7270321;86.8447025;10.0;4.384977740909702;1.3097439056488742;0.0428265524625267;0.07005200367084741;-0.0550627103089629;1;4.576602779382732
53.7268896;86.8446624;14.0;-2.0038535740604715;1.3473001933692743;0.0010196798205363;-0.02987661874171521;0.0540430304884266;1;2.414673476285095
53.7267679;86.8445663;12.0;-0.9325963030058977;0.6758736959058589;-0.1101254206179259;0.00887121443866623;0.0336494340776996;1;1.15700852436963
53.7267102;86.8443806;9.0;-4.140053848466536;0.4613412105704038;-0.0433363923727949;-0.007953502600183127;0.0907515040277352;0;4.1659044184518965
53.7267382;86.8442294;1.0;-2.0845019262487585;0.11177809674800354;-0.0808096257775058;-0.004384623228306239;0.0542979504435606;0;2.0890602717647213
53.7267435;86.8442347;5.0;-0.9721570139153648;-0.3929005836888302;-0.0948302233098807;-0.002345263587233637;0.0346691138982359;0;1.052830897922769
53.7267662;86.8443086;3.0;3.550527062916607;-0.6297114288631303;-0.07545630671969;-0.004384623228306239;-0.0448659121035994;0;3.6067260170919346
53.7267798;86.8443478;1.0;3.667601119928221;-0.9981892570165729;-0.0463954318344039;0.005302335066789232;-0.0463954318344039;0;3.8012935040347964
53.7267816;86.8443496;5.0;5.568356996693807;-1.0872375210042824;-0.1004384623228306;0.003262975425716408;-0.0800448659121035;0;5.674396263429458
53.7268361;86.8443017;11.0;-0.5409204798303819;-1.110459789842274;-0.0672988681553992;0.054756806362802;0.0254919955134087;0;1.237030738507122
53.7269227;86.8443371;3.0;-1.8853888147988878;-1.0684142072831557;-0.0458855919241357;-0.01050270215152449;0.0509839910268175;0;2.1675574707120173
53.726936;86.8443504;2.0;-1.2061310934016478;-0.9616589170794851;-0.0703579076170082;-0.003364943407770049;0.0387478331803813;0;1.5441794981261039
53.7269346;86.8443746;4.0;-0.8845370263723895;-0.7907520629838096;-0.1111451004384623;-0.016620781074742297;0.0336494340776996;0;1.1916575890281302
53.7268818;86.844373;5.0;2.378346488442734;-0.5562517887486909;-0.0305903946160905;-0.016620781074742297;-0.0244723156928724;0;2.4427205824278735
53.7268036;86.8443716;7.0;2.6330700062129564;-0.25871623812667366;-0.0499643112062812;-0.03599469766493324;-0.0295707147955541;0;2.646221491463448
53.7267307;86.8442987;6.0;8.040841712763992;0.10129644512967761;-0.0316100744366268;0.018048332823493385;-0.1213418986438258;0;8.041541868095146
53.72668335;86.84422574999999;1.0;3.082925817605573;0.5232281172678177;-0.0346691138982359;-0.02273885999796077;-0.0372183134495767;0;3.127203416315783
53.72667655;86.84421895;2.0;2.1832922061060076;1.0065206345351845;-0.0277862751096155;0.0007137758743755995;-0.0206485163658611;0;2.4042921457411985
53.7266383;86.8442063;4.0;3.935770120443547;1.5506158531792336;-0.0550627103089629;-0.012542061792597092;-0.0520036708473539;0;4.230570631389286
53.7277608;86.8537768;7.0;-2.4152280023799646;6.785944951753975;0.058121749770572;-0.0064239828693790635;0.0601611094116447;0;7.20317661379422
53.7277585;86.8538769;7.0;-2.870706237489295;5.072716373571558;0.058121749770572;0.02212705210563881;0.0662791883348628;0;5.828960786148533
53.727751;86.8539718;8.0;-3.033997461666834;3.570158059122766;-0.0346691138982359;-0.011522381972060902;0.0713775874375446;1;4.68533575232112
53.7277042;86.8541298;11.0;3.195941180313278;2.2687209508805326;-0.0764759865402263;0.019068012644029797;-0.037728153359845;1;3.920074407138696
53.7276487;86.8542279;10.0;3.973269319325788;1.158855991317794;-0.0999286224125624;0.003772815335984392;-0.0520036708473539;1;4.140024398730765
53.7275513;86.8543609;14.0;1.6966570713753262;0.2310141229074838;-0.0999286224125624;-0.0013255837666972248;-0.0122361578464362;1;1.7152254873362525
53.7273643;86.8545067;15.0;1.2484994207576359;-0.5243537118774606;0.0224329560517997;0.05985520546548384;-0.0040787192821454;1;1.3543267169738051
53.7271503;86.8545231;18.0;3.0802302585448493;-1.1167965705641043;-0.0846334251045171;0.0211073722851024;-0.0356887937187723;1;3.277531974264162
53.7269397;86.8544149;18.0;-0.6044835020204129;-1.5558635106795125;-0.0356887937187723;-0.01866014071581512;0.0285510349750178;1;1.6695464228574002
53.7267664;86.8542416;21.0;-0.5200467883453921;-1.8511035897507506;-0.1080860609768532;-0.012542061792597092;0.0270215152442133;1;1.92580262712303
53.7266092;86.8539308;22.0;-0.42053309386402815;-2.0120658653048062;-0.0173345569491179;-0.027837259100642386;0.0254919955134087;1;2.055616115967243
53.7264866;86.8536034;23.0;-1.2579511465960267;-2.02435847912105;-0.2120934026715611;0.013969613541347958;0.0397675130009177;1;2.3927916647022047
53.7264495;86.8532079;23.0;-4.25968452127351;-1.5538111978845057;-0.205975323748343;-0.03191597838278781;0.0968695829509534;1;4.538905957765775
53.726501;86.8528242;25.0;0.43236568171073997;-1.3768371720080452;-0.1152238197206077;-0.022738859997960326;0.0101967982053635;0;1.447721385341569
53.7269678;86.852267;29.0;2.6532401663466385;-0.9983506599190601;-0.0820842255531763;0.049658407260120385;-0.0275313551544814;0;2.8360404158898413
53.727225;86.851961;30.0;1.5317020623962854;-0.9436279775976271;-0.0392576730906494;-0.015601101254206107;-0.0094320383399612;0;1.7994682917324534
53.7275543;86.8515735;28.0;-0.5824149822470488;-1.0297146693577188;-0.0825940654634444;0.006831854797593628;0.0275313551544814;1;1.1858926138087236
53.7277778;86.8513106;23.0;0.555876624442015;-0.33565467122354953;-0.0662791883348628;-0.0502702151524419;0.0081574385642908;1;0.652729508082457
53.7280411;86.8510875;24.0;0.6284948776864454;-0.1650577856110731;-0.0550627103089629;-0.020699500356887945;0.0066279188334862;1;0.6521363246557423
53.7282553;86.8509177;20.0;-3.304995765359764;0.4079815457908236;-0.0520036708473539;-0.014581421433669917;0.0764759865402263;0;3.3304880021602603
53.7284093;86.8507901;18.0;2.568534733167329;0.6159425069467974;-0.0571020699500356;-0.04109309676761508;-0.0285510349750178;0;2.641972084209719
53.7285313;86.8506305;18.0;4.983364783455174;1.132929330840891;-0.0224329560517997;-0.024778219639033372;-0.0713775874375446;0;5.110573027672929
53.7287104;86.8503744;20.0;4.695083697703636;0.7910365430084938;-0.0642398286937901;-0.008463342510451666;-0.0652595085143265;0;4.7616884081602695
53.7288936;86.8501992;22.0;4.596103858374864;0.43652621333699315;-0.0336494340776995;-0.0013255837666972248;-0.0629652289181196;0;4.616910016051038
53.729135;86.8499286;24.0;3.5237475048634885;0.2532040644154767;-0.1213418986438258;-0.033955338023860415;-0.0458855919241358;0;3.5349162129581893
53.7293791;86.8497631;28.0;3.60276773775789;0.29637289645522813;-0.0774956663607627;-0.0064239828693790635;-0.0458855919241358;0;3.615767946686715
53.7296624;86.8495856;29.0;0.5211026409279054;0.7566863621427129;-0.0469052717446721;0.025186091567248048;0.0081574385642908;0;0.9199577803096466
53.7299294;86.8493918;26.0;1.7490282786484839;0.9807954968984713;-0.0948302233098807;-0.009483022330988078;-0.0132558376669725;0;2.0074990653799567
53.730346;86.8491684;15.0;1.2663731097680628;1.0848897328363538;-0.0535331905781584;0.014479453451616164;-0.0045885591924135;1;1.6683981503378762
53.730513;86.8490282;12.0;1.5267762437926562;0.6211880978545277;-0.0887121443866625;0.005812174977057216;-0.0091771183848271;0;1.65069385292592
53.730602;86.8488612;14.0;2.989888680606038;0.2552283563047313;-0.0703579076170082;-0.024778219639033372;-0.0356887937187723;0;3.0015872586753782
53.7306715;86.8485979;20.0;5.244889187422015;-0.13714468055913986;-0.0326297542571632;-0.002345263587233637;-0.0744366268991536;0;5.246783391050647
53.7306395;86.8481051;22.0;2.8104993556948656;0.004978704074948048;-0.0122361578464362;0.03232385031100238;-0.0305903946160905;0;2.810530401795071
53.7305815;86.8477655;19.0;-4.718346752136697;0.07933784466097604;-0.0367084735393086;0.002753135515448202;0.0999286224125624;0;4.719156500797992
53.7304921;86.8474201;22.0;-6.290152881390949;-0.1880025894175068;-0.0224329560517997;-0.012032221882328997;0.1294993372081166;1;6.293001786303239
53.7302873;86.8470617;21.0;-4.405789445857334;-0.6300847983767257;-0.0622004690527174;0.016008973182420783;0.0933007035790761;1;4.451051155932011
53.7301335;86.8468567;16.0;-2.891733089146189;-0.8371994956091982;-0.1458142143366982;-0.039053737126542476;0.0713775874375446;1;3.014014770934921
53.7299761;86.8466737;19.0;-7.298349708427832;-0.7570754021984509;-0.1662078107474253;0.049658407260120385;0.1407158152340165;1;7.339393480899904
53.7298083;86.8465059;18.0;-5.477552488085665;-0.8761437158706533;-0.1967982053635158;-0.08697868869175074;0.1254206179259712;1;5.550670104070985
53.729664;86.846336;19.0;-1.8817606238841216;-0.6142279647356688;-0.0489446313857448;-0.03191597838278781;0.0520036708473539;1;1.9800743963815013
53.7292717;86.8460973;18.0;-5.524179758038662;-0.7941511057818662;-0.0530233506678902;-0.06862445192209643;0.1223615784643621;1;5.58122293531218
53.7291003;86.8460027;16.0;-2.6701572926588266;-0.5206631386362979;-0.0229427959620679;-0.017130620985010836;0.0652595085143264;1;2.720543409571013
53.7289253;86.8458277;17.0;0.6685355329605106;-0.09214658132466358;-0.1050270215152442;-0.052309574793514946;0.0061180789232181;1;0.6829798141445912
53.7287392;86.8457184;23.0;-0.5499040506866115;0.656066498175;-0.1233812582848985;0.06597328438870198;0.0254919955134087;1;0.8648934326754455
53.7284976;86.845528;25.0;-4.829967616775391;0.8470476850983459;-0.003059039461609;0.031304170490465966;0.0989089425920261;1;4.903680894761795
53.7282602;86.8452906;25.0;0.11414565332366045;1.261229511643927;-0.0142755174875089;0.010910574079738833;0.0152951973080452;1;1.266464725767678
53.7280244;86.8451572;22.0;-0.5394098460824333;1.7061833822140717;-0.0193739165901906;-0.024268379728765055;0.0275313551544814;1;1.7895250946656678
53.7278401;86.8450241;19.0;-3.636302170763668;1.8359363276409297;-0.0418068726419904;-0.05536861425512396;0.0856531049250535;1;4.073708812722423
53.7276458;86.844881;20.0;-1.2473215832918338;1.6949446057891606;-0.0244723156928724;-0.039053737126542476;0.040787192821454;1;2.104577687583614
53.7274314;86.8447946;18.0;-2.3068027264090425;1.1270043717498166;-0.0652595085143265;0.1200163148771286;0.0509839910268175;1;2.5682165944411546
53.7272548;86.844746;16.0;-3.310203351503116;1.0405062252392616;0.0071377587437544;0.03946160905475682;0.0723972672580809;1;3.469891984005266
53.7270908;86.8447356;12.0;3.3513678723827898;0.9026434681273976;-0.0703579076170082;0.10879983685122874;-0.0367084735393086;1;3.471510057850452
53.7269686;86.8446902;12.0;4.603687308407764;0.6983331541352591;-0.0810645457326399;0.06444376465789758;-0.0591414295911083;1;4.657056740939932
53.7268307;86.8446291;15.0;-1.890010052402633;0.46468382395029284;-0.1458142143366982;0.04150096869582964;0.0489446313857448;1;1.951750711419545
53.7267298;86.844477;11.0;-2.2073445231370363;-0.10163467511092339;-0.0316100744366268;-0.0003059039461608126;0.0560823901294993;1;2.2099091944724476
53.7267475;86.8442899;1.0;-4.3700075765748965;-0.10380118107503566;-0.0367084735393086;-0.02987661874171521;0.0968695829509534;0;4.371394333224144
53.7267791;86.8442959;4.0;0.13359142333080787;-0.08458626154128535;-0.0622004690527174;-0.009483022330988078;0.0152951973080452;0;0.1699129258751667
53.7267968;86.8443392;3.0;1.996897896929376;-0.03406141120188799;-0.0774956663607627;0.006831854797593628;-0.0173345569491179;0;1.9986913140349432
53.7268012;86.8443436;5.0;3.570549999503714;0.03754839474037297;-0.0983991026817579;-0.0059141429591109684;-0.0453757520138675;0;3.5721029610457937
53.7268825;86.8442969;7.0;-0.7161270709516736;0.12001818108277318;-0.0622004690527174;0.01498929336188437;0.0295707147955541;0;0.7287737947337423
53.7269473;86.8443361;1.0;3.3610325465801774;0.20312297262258117;-0.0795350260018354;0.013969613541347958;-0.040787192821454;0;3.3681039980290657
53.7269264;86.8443664;6.0;2.6010831547619;0.2766377941570739;-0.07545630671969;-0.01866014071581512;-0.0285510349750178;0;2.6168407863998886
53.7268494;86.8444174;7.0;1.5224008303255272;0.33033767048351903;-0.0122361578464362;-0.0064239828693790635;-0.0091771183848271;0;1.5578757935969014
53.7267708;86.8444156;9.0;7.051403762069078;0.35399762639919485;-0.0774956663607627;-0.016620781074742297;-0.1080860609768532;1;7.060709235871627
53.7266926;86.8443374;5.0;4.041300435288344;0.3373926867013708;-0.0591414295911083;0.003772815335984392;-0.0530233506678902;0;4.055791013106495
53.7266511;86.8442959;4.0;1.639815515998514;0.2702978761873185;-0.078515346181299;-0.0013255837666972248;-0.0112164780258998;0;1.663797021263957
53.7277385;86.8539081;8.0;-2.524938615988377;5.41981997680401;0.0683185479759355;-0.06148669317834199;0.0469052717446721;1;5.97950090053264
53.7276834;86.8540834;11.0;1.3822971672755413;3.0537221136449553;-0.0662791883348628;-0.05434893443458755;-0.0254919955134087;0;3.3526641849175007
53.7276047;86.8541839;7.0;3.9307464904307223;1.145137433551148;0.0127459977567043;0.005812174977057216;-0.0683185479759355;0;4.094175151872763
53.7275224;86.8542808;13.0;1.4572774377449396;-0.3456054918374072;-0.0591414295911083;-0.0003059039461608126;-0.0254919955134087;0;1.4988657028709118
53.7271626;86.8544586;21.0;4.76827187760614;-1.4581780908807067;-0.0759661466299582;0.09860303864586517;-0.07545630671969;1;4.986829744329346
53.7269736;86.8544488;18.0;-5.471880117873571;-2.2322517919387455;-0.0693382277964719;-0.046191495870296695;0.1004384623228306;1;5.910095420281112
53.7268038;86.8543046;21.0;0.0578995583460167;-2.70749802337152;-0.0856531049250535;-0.005404303048842873;-0.0010196798205363;1;2.7094712325102575
53.7266533;86.8540517;22.0;-2.0757039032172564;-2.923588213539026;-0.1223615784643621;-0.005404303048842873;0.0367084735393086;1;3.587601858074549
53.7265066;86.8537514;25.0;-0.112539394793199;-2.9201937908012576;-0.1468338941572346;-0.027837259100642386;0.0020393596410727;1;2.9260480316782256
53.7264346;86.853321;23.0;-1.8283848890701284;-2.736986183518213;-0.1539716529009891;-0.01050270215152449;0.0326297542571632;1;3.2951163774966497
53.7264893;86.8529149;23.0;-1.1763356284088329;-2.4136368200498852;-0.0601611094116447;-0.04109309676761508;0.0214132762312633;1;2.685708020029386
53.7266572;86.8525708;26.0;2.413824356287956;-1.989817128756191;-0.061180789232181;0.0343632099520752;-0.040787192821454;1;3.1288437669323743
53.7268894;86.8522398;29.0;-1.327158737204945;-1.6290645491127052;-0.0346691138982359;0.03232385031100238;0.0224329560517997;1;2.101524105589487
53.7271605;86.8519221;33.0;0.0643082002795578;-1.4596782770334613;-0.0601611094116447;0.09350463954318344;-0.0010196798205363;1;1.462332238635328
53.7274336;86.8516064;32.0;-0.0;-1.027537620555913;-0.0790251860915672;-0.011522381972060902;0.0;1;1.0305719488199327
53.7277826;86.851213;30.0;4.89274993772271;-0.770008041568301;-0.040787192821454;0.05985520546548384;-0.0805547058223717;1;4.9531381903055856
53.7280535;86.8509719;28.0;0.40591266779239;-0.5086698220293937;-0.0723972672580809;-0.004894463138574556;-0.0071377587437544;1;0.6547911468737098
53.728292;86.8508008;21.0;-1.0407411155064812;-0.2581439841784614;-0.0764759865402263;-0.007443662689915698;0.0183542367696543;0;1.0750018430637713
53.7284835;86.8506339;20.0;4.410171505254583;-0.08591176382081755;-0.0703579076170082;-0.015601101254206107;-0.078515346181299;1;4.411569309450609
53.7286998;86.8503894;21.0;2.294898387898678;-0.08850216674287292;-0.0132558376669725;-0.04313245640868768;-0.0418068726419904;0;2.296642541086964
53.7289482;86.8502026;23.0;5.011319332425658;-0.2971716173980834;-0.0265116753339451;0.011930253900275356;-0.0866727847455898;0;5.020192754333158
53.7291495;86.8500455;23.0;2.22589803799331;-0.5185325936406988;-0.0703579076170082;-0.020699500356887945;-0.0397675130009177;0;2.2865800579412174
53.7293742;86.8498606;27.0;2.7360710910628843;-0.48367162732056324;-0.1060467013357805;-0.01866014071581512;-0.0489446313857448;0;2.780515988317486
53.7296639;86.8496383;30.0;0.1149679671733451;-0.41387964346261574;-0.0387478331803813;-0.015601101254206107;-0.0020393596410727;0;0.4312950119406529
53.7299529;86.8494153;26.0;-0.1139816413661893;-0.32345148032479987;-0.0836137452839808;-0.021719180177424358;0.0020393596410727;0;0.35299282300529766
53.7302048;86.849232;21.0;1.0118554030222615;-0.23249411698614697;-0.0550627103089629;0.020087692464565987;-0.0173345569491179;0;1.039681092030186
53.7304102;86.8491302;18.0;0.3988895728890859;-0.20614210690277046;-0.0550627103089629;-0.02375853981849696;-0.0071377587437544;0;0.45237082317996524
53.7305513;86.8489897;15.0;1.0502510131409388;-0.00759664997337417;-0.0764759865402263;0.0017334556949117896;-0.0183542367696543;0;1.053059103854901
53.7306277;86.8488101;15.0;0.9264033420458888;0.0026424164042659903;-0.0550627103089629;-0.007443662689915698;-0.0163148771285816;0;0.928042044621263
53.7306671;86.8485423;18.0;1.8419253698279947;-0.17411891402430468;-0.0469052717446721;-0.013561741613133504;-0.0326297542571632;0;1.8507313605043925
53.7306688;86.8482112;21.0;2.4708065835957225;-0.07370931181397733;-0.0387478331803813;0.020087692464565987;-0.0423167125522585;0;2.4722094633675824
53.730603;86.8478638;18.0;-3.9403877761040103;0.3805411079882792;-0.0183542367696543;0.023146731926175224;0.0672988681553992;0;3.9587629682700443
53.7303951;86.8472463;19.0;-6.322621031147884;0.389638506712048;-0.0520036708473539;-0.020189660446620072;0.113184460079535;1;6.334829062508942
53.7302606;86.847035;18.0;-2.8571587615208127;0.5855042285275744;-0.0418068726419904;-0.020699500356887945;0.0509839910268175;1;2.916833763648336
53.73011;86.8468332;18.0;-5.402608821144084;0.6466840371058495;-0.0560823901294993;-0.022738859997960326;0.0968695829509534;1;5.441463732547891
53.7299457;86.8466433;20.0;-7.2851149381917875;1.0776434310274712;-0.0214132762312633;0.09095543999184263;0.116243499541144;1;7.364419430987126
53.7297219;86.8464195;20.0;-4.255402788475724;1.1693717801098165;-0.0448659121035994;-0.026817579280105974;0.0764759865402263;1;4.4133769612795435
53.7295057;86.8462545;23.0;-1.515322315854024;1.3564172981419058;-0.0418068726419904;-0.0013255837666972248;0.0265116753339451;1;2.034162585002461
53.729285;86.846085;23.0;-4.0021990537048815;1.5425303444476324;-0.0642398286937901;-0.1787498725400225;0.0825940654634444;1;4.289653119380236
53.7290847;86.8459615;19.0;-4.434688682488988;1.3138571556993437;-0.0336494340776996;-0.05128989497297831;0.0815743856429081;1;4.625345027194408
53.7289068;86.8458348;17.0;-3.763018290469877;1.5388364086180726;0.023452635872336;-0.007443662689915698;0.0662791883348628;1;4.065571813783242
53.7287295;86.8456831;17.0;-2.563868613690519;1.7088577749162144;-0.0346691138982359;0.06699296420923839;0.0418068726419904;1;3.0813664356284254
53.7285676;86.8455212;19.0;-1.345174551144633;1.410825176229145;-0.0805547058223717;-0.039053737126542476;0.0244723156928724;1;1.951002642632575
53.7283829;86.8453877;21.0;-2.280587664648244;1.4456848569405074;0.0540430304884266;-0.022738859997960326;0.040787192821454;1;2.700741648302777
53.7281452;86.8451756;20.0;-1.786679132446931;1.287947810115021;-0.0142755174875089;-0.17671051289894968;0.0367084735393086;1;2.2025520820858997
53.7279517;86.8450589;20.0;-2.579157923045251;1.045626428189684;-0.020393596410727;-0.04109309676761508;0.0469052717446721;1;2.783128836060302
53.7277443;86.8449539;20.0;-3.764254835864194;0.802423270137099;-0.0703579076170082;-0.03599469766493324;0.0683185479759355;1;3.8494737054497112
53.7275606;86.844847;18.0;-2.025983451369363;0.7704658253899703;-0.037728153359845;-0.03701437748546965;0.0367084735393086;1;2.1678676036308833
53.7273697;86.8447585;18.0;0.0599761293532845;0.6883480891957068;-0.0509839910268175;0.027225451208320428;-0.0010196798205363;1;0.6928344645964181
53.7271981;86.8447405;13.0;-5.819134650516218;0.8148705942220107;-0.0672988681553992;0.0017334556949117896;0.1019679820536351;1;5.876297414513772
53.7270733;86.8447181;7.0;-2.18089242292478;0.39528117962521536;0.0112164780258998;0.06291424492709285;0.0356887937187723;1;2.2164531984041362
53.7269987;86.8446947;9.0;3.264199524722144;0.36139877025864386;-0.1060467013357805;-0.013561741613133504;-0.058121749770572;1;3.28585658713294
53.7268834;86.8446306;15.0;-1.6545409789737568;0.33180068383385564;-0.1142041399000713;0.05373712654226559;0.0275313551544814;1;1.691342700479819
53.7266445;86.8442893;10.0;-4.321588990429408;0.06569527347290105;-0.0010196798205363;0.01498929336188437;0.0744366268991536;0;4.322088420070127
53.7266437;86.8441861;1.0;-0.7471428944298278;-0.37707729013417923;-0.0622004690527174;-0.014581421433669917;0.0132558376669725;0;0.8392131348961924
53.7266702;86.844187;5.0;0.1781118400341196;-0.5014924699748318;-0.0458855919241358;0.017028653002957195;-0.003059039461609;0;0.5341572919543696
53.7267118;86.8442542;4.0;2.0176937705122526;-0.4569600878001645;-0.0132558376669725;0.016008973182420783;-0.0346691138982359;0;2.068834548879764
53.7267474;86.8442898;2.0;1.7985256596264594;-0.3395620281897078;-0.0224329560517997;-0.0064239828693790635;-0.0316100744366268;0;1.8304371491095563
53.7267528;86.8443208;0.0;1.3900214760630694;-0.4718146174606286;-0.0469052717446721;-0.007443662689915698;-0.0244723156928724;0;1.4686622626334194
53.72675435;86.84429675;1.0;4.161626668876491;-0.39061126081358966;-0.058121749770572;-0.0003059039461608126;-0.0729071071683491;0;4.180321976352397
53.7267927;86.8442583;10.0;1.1939235574136382;-0.44730181170780936;-0.1417354950545528;-0.01764046089527893;-0.0214132762312633;0;1.2828177276069601
53.7269026;86.8442402;7.0;-3.9199517239108697;-0.47836671230711225;-0.0275313551544814;-0.011522381972060902;0.0693382277964719;0;3.9491282841599302
53.7269836;86.8443212;2.0;2.030506087999181;-0.47640504187216415;-0.1213418986438258;0.0007137758743755995;-0.0356887937187723;0;2.0891722269093673
53.7269531;86.8443419;4.0;3.045998105619536;-0.43401587966359045;-0.0693382277964719;0.025186091567248048;-0.0520036708473539;0;3.0775448060218262
53.7269099;86.8443499;4.0;-0.7473203729381515;-0.3437983049420148;-0.058121749770572;-0.014581421433669917;0.0132558376669725;0;0.8246594158110446
53.7268387;86.8443555;9.0;1.9254802335117192;-0.19835139696806214;-0.0571020699500356;0.0007137758743755995;-0.0336494340776996;0;1.9365118261234826
53.7267585;86.8442753;7.0;5.992802729133673;0.009725764997642106;0.0183542367696543;-0.0003059039461608126;-0.1050270215152442;0;5.992838727917195
53.7266959;86.8442127;3.0;-1.2632508310544506;0.2878341016944752;-0.0469052717446721;-0.0625063729988784;0.023452635872336;0;1.2964764698117228
53.7266615;86.8442295;3.0;2.8380557850770094;0.64337453386181;-0.0540430304884266;-0.0064239828693790635;-0.0499643112062812;0;2.910569030134031
53.7266309;86.8441989;2.0;1.769060647410274;1.0837479822390257;-0.0254919955134087;0.009890894259202643;-0.0305903946160905;0;2.0747855564028956
53.7266037;86.8441717;3.0;1.342695069810019;1.6163553675654936;-0.0448659121035994;-0.04313245640868768;-0.0244723156928724;0;2.1017725078653973
53.7277371;86.8539067;9.0;1.584605870147866;1.2291150649117561;-0.0091771183848271;0.0007137758743755995;-0.0101967982053635;0;2.005438562011301
53.7276794;86.854105;12.0;-1.820114800891023;0.6325903874120757;-0.133578056490262;-0.04721117569083311;0.0520036708473539;1;1.9315360684813638
53.7275905;86.8541953;6.0;2.800222810200665;0.10247574206950727;-0.0703579076170082;0.029264810849393252;-0.0305903946160905;1;2.80298043154872
53.7275253;86.8542581;8.0;6.191586424724711;-0.36037937550592236;-0.0713775874375446;0.01498929336188437;-0.0897318242071989;1;6.2024761594958004
53.7274378;86.8543242;15.0;4.177734141326943;-0.7551254697041836;-0.0367084735393086;-0.009483022330988078;-0.0560823901294993;1;4.2455888334404595
53.7271031;86.8545015;12.0;-1.189512820650965;-1.0809130449152509;-0.1193025390027531;-0.0064239828693790635;0.0387478331803813;1;1.6116906827842237
53.7270063;86.8544559;11.0;2.973156639726293;-1.336892605529095;-0.07545630671969;0.026205771387784238;-0.0336494340776996;1;3.2607722854088865
53.7268981;86.8544245;18.0;0.4338802986736605;-1.5222146559356888;-0.0469052717446721;-0.0308962985622514;0.0101967982053635;1;1.5835370778229332
53.72673;86.8542308;23.0;3.253270894725841;-1.636029700525004;-0.0805547058223717;0.09656367900479235;-0.0356887937187723;1;3.642369250378157
53.7265868;86.853934;22.0;0.06411201388918897;-1.677488243687014;-0.1172631793616804;0.0710716834913836;0.0152951973080452;1;1.6828035569450999
53.7264836;86.8535492;22.0;-1.045959258901343;-1.6457407898116152;-0.1937391659019068;0.07820944223513804;0.0336494340776996;1;1.959599036266239
53.7265373;86.8528349;22.0;1.636332326986356;-1.227159615457694;-0.0703579076170082;-0.007443662689915698;-0.0112164780258998;1;2.046571386811391
53.7266861;86.8524973;26.0;1.7585289090235916;-1.2655998791657002;-0.0999286224125624;0.003772815335984392;-0.0132558376669725;1;2.168905877993144
53.7269122;86.852237;28.0;-0.6963835561526317;-0.7916236081802568;-0.0397675130009177;-0.06658509228102383;0.0316100744366269;0;1.055082674200649
53.7271699;86.8519571;30.0;1.1736651305994459;-0.44613743753456614;-0.0601611094116447;-0.007443662689915698;-0.003059039461609;0;1.2570393036976064
53.7274882;86.8515586;29.0;0.20193148100455083;0.12080433048867212;-0.0917711838482716;-0.020699500356887945;0.0142755174875089;0;0.2525707019240768
53.7277609;86.8513193;28.0;-1.0679942790696666;0.26312050956672284;-0.07545630671969;-0.04211277658815149;0.037728153359845;0;1.1025143250334504
53.7280117;86.8510837;25.0;0.0016743477753820013;0.5236416319246668;-0.0795350260018354;-0.0502702151524419;0.0183542367696543;1;0.529650056628255
53.7282217;86.8509097;20.0;-4.774145991824255;0.964880312380032;-0.0224329560517997;0.02212705210563881;0.0989089425920261;0;4.870725531785527
53.7283697;86.8507761;15.0;3.0246800161207634;1.1620057630523775;-0.0530233506678902;-0.03701437748546965;-0.0367084735393086;0;3.2406416137862717
53.7284858;86.8506106;15.0;4.805973993632454;1.2843037863794322;-0.0152951973080452;-0.011522381972060902;-0.0672988681553992;0;4.974641312319987
53.7286395;86.8504571;18.0;4.465683397164135;0.928135930195273;-0.0387478331803813;-0.009483022330988078;-0.061180789232181;0;4.5612789766909705
53.7288826;86.8502138;21.0;4.756494990478895;0.9301355717815518;-0.0214132762312633;-0.024778219639033372;-0.0672988681553992;0;4.8466333990454835
53.7291207;86.8500167;22.0;4.270063685899109;0.8542636911785961;-0.0978892627714897;-0.012542061792597092;-0.058121749770572;0;4.355776927652093
53.7295945;86.8496201;28.0;4.210800529135892;1.2662868495410282;-0.0703579076170082;0.002753135515448202;-0.0560823901294993;0;4.397644109822428
53.7298491;86.8494651;27.0;1.5756899788526395;1.5934841702510139;-0.0815743856429081;-0.011522381972060902;-0.0101967982053635;0;2.242464066755633
53.7301364;86.8493172;23.0;1.465917599547127;1.6793464293454141;-0.0601611094116447;-0.0013255837666972248;-0.0081574385642908;0;2.2299637211180907
53.7303663;86.8491887;19.0;-0.035341840714241624;1.7922374471549518;-0.0520036708473539;0.013969613541347958;0.0178443968593861;0;1.7933400387185832
53.7306102;86.8488182;17.0;0.23943769979388707;1.258581100060785;-0.0509839910268175;0.0027531355154479797;0.0132558376669725;0;1.2821685399563605
53.7306461;86.8484957;19.0;2.581144915627825;0.7352798046339468;-0.0173345569491179;0.002753135515448202;-0.0275313551544814;0;2.6838863525564065
53.7306534;86.8481446;17.0;0.2960316445532385;0.41027377605195925;-0.0356887937187723;0.004792495156520804;0.0122361578464362;0;0.507181423052865
53.7306115;86.8478467;15.0;-0.3989231116479619;0.26047776152584223;-0.0397675130009177;-0.0013255837666972248;0.0244723156928724;0;0.478089707426006
53.7305477;86.8475781;20.0;-4.906545436764413;0.12257342209978406;-0.0142755174875089;-0.02987661874171521;0.1065565412460487;0;4.908096999575137
53.7304276;86.8472788;20.0;-4.6128359608398615;0.08840695294011791;-0.0244723156928724;0.03538288977261139;0.0948302233098807;1;4.613747965069281
53.7302594;86.8470082;19.0;-3.511434544775483;-0.20459664033166902;-0.0917711838482716;0.02212705210563881;0.0774956663607627;1;3.5185869745769427
53.7301143;86.8468119;17.0;-1.64095821930708;-0.15445490418875707;-0.1111451004384623;0.07820944223513804;0.0428265524625267;1;1.6519544268202124
53.7299663;86.8466639;18.0;-4.302205186823681;-0.33034029349586636;-0.133578056490262;0.031304170490465966;0.0907515040277353;1;4.316936098231619
53.729796;86.8464936;20.0;-6.812923454622544;-0.4698130878576938;-0.1998572448251249;-0.05128989497297831;0.1468338941572346;1;6.832027023832491
53.7296079;86.8463567;19.0;-2.606920683539642;-0.4384622155123852;-0.0723972672580809;-0.0003059039461608126;0.0632201488732538;1;2.6445275436276443
53.7294172;86.8462172;19.0;-1.0917828988263323;-0.2970236627640279;-0.0050983991026817;-0.032935658203324225;0.037728153359845;1;1.1314764461025242
53.7291958;86.846047;19.0;-3.636065713244318;0.22508500360304895;-0.0571020699500356;-0.04211277658815127;0.0846334251045171;1;3.643473312139184
53.7290385;86.8459153;18.0;-1.2351017266661204;0.881000352575743;-0.0428265524625267;-0.04415213622922409;0.040787192821454;1;1.5177193449541457
53.7288691;86.8457971;18.0;-1.68877438720616;1.6631298803278947;-0.040787192821454;-0.019679820536351533;0.0479249515652085;1;2.3705745136614613
53.7284785;86.8455089;20.0;-1.4094070937109069;2.527804650926623;-0.0142755174875089;0.07922912205567456;0.0387478331803813;1;2.894206022288052
53.7282558;86.8453886;22.0;-2.2796463983532425;3.470434415785394;-0.0020393596410727;0.09248495972264725;0.0520036708473539;1;4.152193022341371
53.7280406;86.845199;22.0;-0.7256622161488626;3.680846777014429;-0.0560823901294993;0.020087692464565987;0.0295707147955541;1;3.752114588107115
53.7278237;86.8450333;23.0;-3.831905008440568;3.621022274872198;-0.0101967982053635;0.08330784133781999;0.0774956663607627;1;5.272134509240653
53.7274455;86.8448087;16.0;-1.2348509605548479;3.384555954575944;0.0224329560517997;-0.09717548689711442;0.0428265524625267;1;3.602857080423248
53.7272935;86.8447847;15.0;0.027162580437352424;2.601623543316191;0.0163148771285816;-0.020699500356887945;0.0173345569491179;1;2.6018164889416835
53.7270309;86.8447013;8.0;2.3925000167580075;1.9735491972259158;0.0183542367696543;0.03538288977261139;-0.023452635872336;0;3.1014979674450087
53.7269443;86.8446659;11.0;-0.04824827231358442;1.9121721616738463;-0.0122361578464362;-0.0308962985622514;0.0188640766799225;0;1.912819906635363
53.7268221;86.8446205;7.0;0.6033733749624791;1.391047572488834;-0.0499643112062812;-0.02987661874171521;0.0071377587437544;0;1.5170923541218604
53.7267447;86.8445687;8.0;0.8298637937889952;0.8840488216454454;-0.0948302233098807;-0.025797899459569784;0.003059039461609;1;1.2162273663043297
53.7266629;86.8444613;11.0;1.7177874690816834;0.3677911009787582;-0.0978892627714897;0.02824513102885695;-0.0122361578464362;1;1.7594449098108096
53.7265882;86.8443354;10.0;-0.1255273217839621;-0.0019367901128264364;-0.1488732537983073;0.025186091567248048;0.0193739165901906;1;0.194741123974087
53.7265981;86.8441405;3.0;-1.427738945230511;-0.34987822770207444;-0.0693382277964719;0.04048128887529323;0.040787192821454;1;1.4716185170694993
53.7266324;86.8441236;1.0;0.3874045573357624;-0.666567738217192;-0.0642398286937901;0.0007137758743753775;0.0107066381156317;1;0.7736417751563759
53.7266353;86.8441009;3.0;-1.2069202936483405;-0.8943167341530307;-0.0856531049250534;-0.015091261343938012;0.0392576730906495;1;1.5045914630189954
53.7266353;86.8441777;3.0;0.5611742119963625;-1.0146931316302128;-0.0672988681553991;0.003772815335984392;0.0076475986540226;0;1.1614851635911088
53.7266433;86.8442369;2.0;6.941219346516517;-1.009264846769308;-0.0326297542571632;0.010910574079738833;-0.1029876618741715;0;7.014285868728358
53.7266592;86.844304;6.0;4.1846318630094865;-0.8595997956908876;-0.116243499541144;-0.019679820536351533;-0.0571020699500356;0;4.273589613995667
53.7267098;86.8442266;6.0;-0.797133149126541;-0.5472658945155162;-0.0642398286937901;-0.005404303048842873;0.0316100744366268;0;0.969044876322491
53.7267499;86.8442155;2.0;2.5047563473516403;-0.053831059363766975;-0.0601611094116447;-0.007443662689915698;-0.0265116753339451;0;2.506056962967162
53.7267469;86.8442125;2.0;2.906107660421955;0.6391367936437939;-0.0571020699500356;-0.009483022330988078;-0.0336494340776996;0;2.976107898135586
53.7267179;86.8442859;4.0;3.334169119397472;1.550069748386596;-0.0622004690527174;-0.02375853981849696;-0.0418068726419904;0;3.6773997389401902
53.7266838;86.844303;4.0;4.188149232921338;2.697399888744072;-0.029060874885286;-0.0064239828693790635;-0.0560823901294993;0;4.98170700578278
53.7277733;86.8538917;8.0;-2.841594977870231;3.5938825664781042;-0.0265116753339451;-0.026817579280105974;0.0509839910268175;1;4.581632546246106
53.7277535;86.8540255;9.0;-4.243635929874028;2.2901417742229375;0.0387478331803814;0.04914856734985218;0.0706128275721423;1;4.8223123753998935
53.7276858;86.8541882;11.0;1.8583943735618536;1.2004850919898418;-0.0112164780258998;-0.03701437748546965;-0.0336494340776996;1;2.212446589898956
53.7276009;86.8543081;12.0;0.1157789008025712;0.3086089195778925;-0.0876924645661262;-0.005404303048842873;-0.0020393596410727;1;0.3410779785558825
53.7274817;86.8543937;17.0;4.174561697132612;-0.4017903432138361;-0.0978892627714897;0.012949933720811546;-0.0723972672580809;1;4.194995012015217
53.727295;86.8544118;21.0;1.88586108613536;-0.9470162965862698;-0.0418068726419904;0.009890894259202643;-0.0326297542571632;1;2.1107012381670023
53.72709;86.854386;17.0;1.2859498287089992;-1.343372540740332;-0.0540430304884266;0.04761904761904756;-0.0214132762312633;1;1.860440107693933
53.7269132;86.8542604;21.0;-4.0156526736121965;-1.6071626758769497;-0.0418068726419904;0.056796166003874826;0.0662791883348628;1;4.325527259932694
53.7267222;86.8540438;21.0;0.7821873504345143;-1.754690302197048;-0.0795350260018354;0.03232385031100238;-0.0132558376669725;1;1.9227794798585838
53.7265706;86.8537642;22.0;-0.3448979418778307;-1.802259019901551;-0.0989089425920261;-0.011522381972060902;0.0061180789232181;1;1.8376275857890072
53.7264633;86.8534265;19.0;-2.225244334933736;-1.7661724291913847;-0.0795350260018354;0.03232385031100238;0.037728153359845;0;2.842077272023334
53.726471;86.853127;21.0;0.3624651846404435;-1.6627341302674061;-0.1560110125420618;0.04557968797797496;-0.0061180789232181;0;1.7089193176001427
53.7265572;86.8528036;24.0;0.4552368443282205;-1.7599536571448002;-0.0897318242071989;-0.022738859997960326;-0.0081574385642908;0;1.8200904537980591
53.7267498;86.8524842;25.0;-1.7492577910246778;-1.4619035595252186;-0.0520036708473539;-0.0003059039461608126;0.0305903946160905;0;2.2803002474662497
53.7269716;86.8522452;25.0;-0.5987759697394437;-1.1460581447069398;-0.0198837565004588;-0.024268379728765055;0.0107066381156317;1;1.2932042749539199
53.7272239;86.8519087;26.0;2.1484396948952025;-1.0330113487244352;-0.0637299887835219;-0.0308962985622514;-0.0387478331803813;1;2.3847362706733874
53.7275287;86.8515991;26.0;-0.6652351461898388;-0.9848438152581198;-0.0683185479759355;0.036402569593147804;0.0112164780258998;0;1.1904295712791773
53.7277474;86.851357;22.0;0.1197101624108211;-0.7931184259669712;-0.0917711838482716;0.02824513102885695;-0.0020393596410727;0;0.8073346956359949
53.7279513;86.8511513;21.0;1.3911444322664432;-0.5801165873585208;-0.046395431834404;0.03538288977261139;-0.023452635872336;0;1.5079690389558806
53.7281476;86.8509892;22.0;-2.4904358981832653;-0.2639857313397087;-0.0367084735393086;-0.0308962985622514;0.0448659121035994;0;2.5046570506439467
53.7284613;86.8506885;15.0;2.6056927307322626;-0.1783280764194397;-0.0897318242071989;-0.04925053533190571;-0.0479249515652085;1;2.6133287795656264
53.7285959;86.8505415;18.0;5.823952325694182;-0.09678801051676933;-0.0458855919241358;-0.01866014071581512;-0.1040073416947078;0;5.8249372613346395
53.7287612;86.8503484;19.0;4.339814638903534;-0.24573308495712531;-0.0774956663607627;-0.045171816049760505;-0.0795350260018354;0;4.347456891952887
53.7289608;86.8501896;21.0;4.022813145921659;-0.6073043708423991;-0.0428265524625267;0.01498929336188437;-0.0693382277964719;0;4.068621181609345
53.7291638;86.8500342;21.0;3.10682453799836;-0.575823522775301;-0.0428265524625267;-0.013561741613133504;-0.0550627103089629;0;3.160026194968312
53.7293707;86.8498571;25.0;3.2151785935923427;-0.7049143540843934;-0.0540430304884266;0.03946160905475682;-0.0540430304884266;0;3.291990018884174
53.72961;86.8496868;26.0;2.471276816511666;-0.5307426654117968;-0.0693382277964719;-0.013561741613133504;-0.0438462322830631;0;2.52857759828533
53.7298452;86.8495124;23.0;0.4565845429797492;-0.4003364318053757;-0.0774956663607627;-0.020699500356887945;-0.0081574385642908;0;0.6121636070719864
53.730056;86.8493392;21.0;1.8699271253798135;-0.39245961076278224;-0.061180789232181;-0.0288569389211788;-0.0336494340776996;0;1.9116472188357243
53.7302329;86.8491833;17.0;0.8846211954718847;-0.43574580201882407;-0.0703579076170082;0.011930253900275356;-0.0152951973080452;0;0.9886249534678851
53.7304;86.8490944;15.0;1.4683692412428204;-0.2559935131058362;-0.0815743856429081;0.00887121443866623;-0.0254919955134087;0;1.492747563311795
53.7305331;86.8489715;15.0;-1.4475082901573677;-0.19784877312421978;-0.0560823901294993;0.012949933720811546;0.0249821556031406;0;1.4620429616067043
53.7306407;86.8487463;14.0;1.1231359066328204;-0.47896846304738894;-0.0795350260018354;0.01498929336188437;-0.0193739165901906;0;1.2235893403111266
53.7307185;86.8485169;17.0;1.487860849843218;-0.36417952694358746;-0.003059039461609;-0.020699500356887945;-0.0265116753339451;0;1.531785231050184
53.7307024;86.8482192;19.0;-2.3032298632033164;-0.2918445758295425;-0.0326297542571632;-0.013561741613133504;0.040787192821454;0;2.321875483322819
53.7306442;86.8479306;12.0;-2.2870517543680617;0.05783163724365892;-0.0902416641174671;0.008361374528398025;0.0397675130009177;0;2.2895619195311143
53.7306335;86.8477151;12.0;-4.220752911455503;0.2619120870137994;-0.0152951973080452;0.00530233506678901;0.0734169470786173;0;4.22889903212937
53.7305585;86.8474609;13.0;-3.75241849475765;0.4721759485317123;-0.040787192821454;0.005812174977057216;0.0652595085143265;0;3.7822292740220473
53.7304513;86.8472001;16.0;-5.333381608381588;0.7563045789237268;-0.0632201488732537;-0.024778219639033372;0.095849903130417;0;5.387109873016098
53.7303267;86.8469731;14.0;-2.81147913633746;0.7585152451365018;-0.0367084735393086;0.04557968797797496;0.0469052717446721;0;2.9122341635237543
53.7302016;86.8468224;16.0;-7.186901816707167;0.9594818436329726;-0.0550627103089629;0.01498929336188437;0.1244009381054349;1;7.250875466681019
53.7300407;86.8466871;18.0;-5.574545313944748;1.054744032666896;-0.0836137452839808;-0.0308962985622514;0.1009483022330988;1;5.674066591966487
53.729622;86.8463452;23.0;-4.30322697665555;1.2444805581645242;-0.0295707147955541;-0.002345263587233637;0.07545630671969;0;4.4796616724300815
53.7293883;86.8462139;22.0;-3.268715997673777;1.6172780763219814;0.0305903946160905;0.07209136331192001;0.0530233506678902;0;3.647057501855842
53.7289734;86.8458758;22.0;-2.7995199215462776;1.6109224122357642;-0.0101967982053635;-0.021719180177424358;0.0499643112062812;1;3.2299360340526264
53.7287679;86.8457727;21.0;-1.3899268545980683;1.822832909920438;-0.0168247170388498;-0.008463342510451666;0.0244723156928724;1;2.292356767548483
53.7285895;86.8455943;22.0;-2.274443631209496;1.8099967264816756;-0.0591414295911083;0.026205771387784238;0.0387478331803813;0;2.907349254925851
53.7283921;86.8454225;22.0;-3.1383486799814144;1.3685788068591922;-0.0152951973080452;-0.022738859997960326;0.0560823901294993;1;3.423809914522988
53.7281531;86.8453115;22.0;-4.253561607997029;1.2078239748475756;-0.0183542367696543;0.04048128887529323;0.0713775874375446;1;4.4217600551421
53.7278847;86.8450943;23.0;-4.85852233366818;0.9098164618127496;-0.0520036708473539;0.05373712654226559;0.0805547058223717;1;4.943248895485596
53.72765;86.8449364;22.0;-5.479780072898454;0.6671099500167315;0.0081574385642908;0.09656367900479235;0.0866727847455898;1;5.52024382401269
53.7274735;86.8448367;19.0;-3.639555645285373;0.7290746485301773;-0.023452635872336;0.03844192923422041;0.061180789232181;1;3.7119355011082007
53.7272802;86.844797;18.0;-0.523206971019437;0.5164885804403534;-0.0091771183848271;0.10676047721015602;0.0081574385642908;1;0.7352483986724994
53.7271081;86.8447529;12.0;1.5958243256281928;-0.016102683592240208;-0.0652595085143265;-0.022738859997960326;-0.0285510349750178;1;1.597239298958387
53.7269977;86.8447193;13.0;4.789969719485569;-0.36240340453114905;-0.1233812582848985;0.0343632099520752;-0.0815743856429081;1;4.805243914319064
53.7268009;86.8445993;17.0;-6.170182328939365;-0.6711236764905228;-0.0907515040277353;0.05169776690119299;0.1029876618741715;1;6.207237130719678
53.726687;86.844511;11.0;-2.9191788174845605;-0.8095366541788072;-0.0989089425920261;0.025186091567248048;0.0499643112062812;0;3.0309631376567823
53.7266438;86.8443398;8.0;-3.5333290173714014;-0.948554903042937;-0.0836137452839808;-0.03701437748546965;0.0642398286937901;0;3.6593936119917414
53.7266856;86.8442024;4.0;-2.3049648391247066;-1.1388304329841716;-0.0397675130009177;-0.012542061792597092;0.040787192821454;0;2.571260220160997
53.7267274;86.8441674;1.0;-4.895119862284169;-1.0921070985296453;-0.0418068726419904;-0.03497501784439683;0.0887121443866625;0;5.015639958707953
53.7267342;86.8443022;3.0;1.7457225171786892;-1.167753889189739;-0.0163148771285816;-0.03701437748546965;-0.0316100744366268;1;2.100348168261201
53.7267442;86.8443634;3.0;-1.444225592305292;-1.2049939788994992;-0.0520036708473539;-0.0502702151524419;0.0265116753339451;1;1.8816222873986208
53.7267764;86.8442932;7.0;2.101112336747037;-0.9776394507850892;-0.1294993372081166;0.00785153461813004;-0.0367084735393086;0;2.3210389970225203
53.7268558;86.8442702;5.0;1.487834691353037;-0.7424109261916954;-0.1070663811563169;-0.015091261343938012;-0.0265116753339451;0;1.6662200521228603
53.7268978;86.8443122;1.0;-0.3446217646050146;-0.52057897077403;-0.0723972672580809;-0.014581421433669917;0.0061180789232181;0;0.6284966107769082
53.7269146;86.844329;5.0;-1.3389776472909234;-0.3334141501867407;-0.0846334251045171;0.0002039359641071714;0.023452635872336;0;1.382457576974572
53.7268616;86.8443272;7.0;0.9988763797092196;-0.2021870300844819;-0.0071377587437544;0.005812174977057216;-0.0173345569491179;0;1.019158753421303
53.7267848;86.844276;10.0;5.618445494357199;-0.14816817612190114;-0.058121749770572;0.017028653002957195;-0.0968695829509534;0;5.620699397697265
53.726718;86.8442092;7.0;2.3880801355204238;-0.19262815395364807;-0.0479249515652085;-0.025797899459569784;-0.0428265524625267;0;2.396315743040838
53.7266728;86.8441384;3.0;3.756942988616339;-0.3568375292343684;-0.0693382277964719;0.024166411746711636;-0.0642398286937901;0;3.7744882344256303
53.7266367;86.8441279;5.0;1.5926724441994746;-0.6620668676187198;-0.0917711838482716;-0.022738859997960326;-0.0285510349750178;0;1.7272405744121764
53.7265997;86.8440909;1.0;2.7314561129504797;-1.1295867347613546;-0.0479249515652085;-0.024778219639033372;-0.0489446313857448;0;2.9561995009312025
53.7265938;86.844085;3.0;2.788639951190821;-1.780667696316911;-0.0825940654634444;0.019577852554298003;-0.0479249515652085;0;3.3096996845233404
53.7277979;86.8538139;6.0;0.33100910271282635;1.8593877957986376;-0.0101967982053635;0.03946160905475682;0.0112164780258998;0;1.888648716923639
53.7277945;86.8539641;8.0;-0.4667963161396096;1.2276988805634557;-0.0520036708473539;0.005812174977057216;0.0254919955134087;1;1.3144762165516242
53.727769;86.8540666;10.0;0.5022709216504918;0.6942129630036677;-0.0601611094116447;0.06291424492709285;0.0081574385642908;1;0.8589686116637826
53.7276776;86.8541544;12.0;3.085743074612106;0.2522089565329031;-0.0346691138982359;0.10472111756908331;-0.0326297542571632;0;3.096226998740641
53.7275688;86.8542504;11.0;3.9368927485102114;-0.1050342254352099;-0.0142755174875089;0.026205771387784238;-0.0499643112062812;0;3.9383195010289094
53.7274382;86.8543246;17.0;4.901983105977568;-0.3842376694870411;-0.0305903946160905;-0.016110941164474202;-0.0693382277964719;0;4.917114268571057
53.7272054;86.854399;20.0;2.24904194739336;-0.5921224622089616;-0.0795350260018354;-0.025797899459569784;-0.0224329560517997;0;2.327042009020987
53.7269566;86.8542526;20.0;-5.557586642474536;-0.735409690187343;-0.0978892627714897;-0.04211277658815127;0.1203222188232894;0;5.606886748347855
53.7268008;86.8540712;19.0;1.3671113884130854;-0.8208204400085561;-0.0285510349750178;0.04557968797797496;-0.0061180789232181;0;1.5948526278821937
53.7266238;86.8538942;21.0;-0.15900059464322136;-0.8550757982589703;-0.0856531049250535;-0.004384623228306239;0.020393596410727;0;0.8739406525894167
53.7264618;86.853297;21.0;-0.9530714651047745;-0.8448968515249589;-0.1244009381054349;0.0211073722851024;0.0336494340776996;1;1.2797153983270115
53.7265147;86.8529403;21.0;1.3549753218879927;-0.7970046863928362;-0.0295707147955541;0.012949933720811546;-0.0061180789232181;1;1.5722751095883738
53.7266784;86.8526176;24.0;0.7219338980987497;-0.5946040222547504;-0.0693382277964719;-0.04823085551136952;0.0050983991026817;1;0.9378434231467101
53.7269343;86.8522591;25.0;3.498468133454629;-0.48501314766904846;-0.0713775874375446;0.0211073722851024;-0.0428265524625267;0;3.5326494015395524
53.7271461;86.8519845;27.0;1.8022802556493287;-0.6254293189278011;-0.0397675130009177;-0.01866014071581512;-0.0142755174875089;0;1.9081292954011742
53.7274042;86.8517306;30.0;3.484610325128618;-0.559876899682183;-0.0622004690527174;0.01498929336188437;-0.0428265524625267;0;3.529849877706003
53.7276744;86.851412;30.0;-0.5552115681325491;-0.3410036108365442;-0.0713775874375446;-0.011522381972060902;0.0275313551544814;0;0.6554678542691242
53.7279055;86.8511567;26.0;0.1856482183383621;-0.23961375812969488;-0.0438462322830631;-0.003364943407770049;0.0142755174875089;1;0.3062719480178758
53.7281351;86.8509767;24.0;-3.0582412944818085;-0.42641465502671805;-0.0897318242071989;-0.0308962985622514;0.0734169470786173;1;3.0891295009388773
