lat;lon;vel;acc_X;acc_Y;acc_Z;fb_tilt;tilt;hole;acc
53.7279943;86.8520903;10.0;4.307218383634495;-1.008299451571049;-0.1274599775670439;-0.03497501784439683;-0.0968695829509534;1;4.4254992977334
53.7280765;86.8519933;10.0;5.496350520549963;-1.132693014116596;-0.003059039461609;0.01498929336188437;-0.1121647802589986;1;5.611851019645908
53.7281607;86.8518471;13.0;3.553996756385027;-1.2530085155250545;0.0112164780258998;-0.004894463138574556;-0.0800448659121035;1;3.7684279340001847
53.7282968;86.851676;15.0;-2.6520528129663825;-1.367257392773968;-0.0825940654634444;-0.05740797389619656;0.0305903946160905;1;2.9848950870185957
53.7284484;86.8513924;15.0;-0.13410870691733456;-1.4734510828408771;-0.0550627103089629;-0.01050270215152449;-0.0152951973080452;1;1.480565817808368
53.7285313;86.8511681;19.0;-1.8616041165103736;-1.5696010227033241;-0.1233812582848985;-0.0778015703069237;0.0163148771285816;1;2.438122267642797
53.7286629;86.8508901;24.0;1.9790837878000787;-1.6537186493388503;-0.0948302233098807;0.10370143774854701;-0.0469052717446721;1;2.580804289665766
53.7288038;86.8505446;19.0;2.143304531315594;-1.7238153997249972;-0.0254919955134087;-0.002345263587233637;-0.0550627103089629;1;2.750626053850698
53.7289097;86.8503177;17.0;2.9906670677519696;-1.7779027108393057;-0.0112164780258998;-0.008463342510451666;-0.0703579076170082;1;3.4792460920040167
53.7290319;86.8501327;17.0;3.612821378868161;-1.8139920196593176;-0.0499643112062812;0.015499133272152577;-0.0795350260018354;1;4.042962007660825
53.7291966;86.8500158;19.0;1.926367881561982;-1.8300947631625748;-0.0825940654634444;-0.033955338023860415;-0.0530233506678902;1;2.658375789259009
53.7294141;86.8498493;24.0;1.446767706004616;-1.8242223783266178;-0.0836137452839808;0.025186091567248048;-0.0418068726419904;1;2.329788689801265
53.72964;86.8496912;27.0;0.8546789137655451;-1.7943863021289896;-0.092790863668808;0.02824513102885695;-0.0316100744366268;1;1.9897005782991584
53.7298902;86.8496086;25.0;0.38187599865251176;-1.7385979715473017;-0.0627103089629856;-0.012542061792597092;-0.0244723156928724;1;1.781147037126772
53.7301388;86.8495244;26.0;1.5001120831337742;-1.8251519229057216;-0.0820842255531763;-0.024268379728765055;-0.0448659121035994;1;2.363948735428725
53.7304904;86.8493896;27.0;1.9241839056871082;-1.5091582432446184;-0.084123585194249;-0.014581421433669917;-0.0520036708473539;1;2.4468590240642003
53.7307591;86.8493511;27.0;3.44081791062232;-1.0083503327009904;0.014530437442643;-0.0502702151524419;-0.0815743856429081;1;3.585555664207407
53.7310869;86.8493205;20.0;4.661252189248938;-0.8631930587320071;-0.1233812582848985;0.009890894259202643;-0.0989089425920261;1;4.742108936255798
53.7312799;86.8493087;14.0;4.944772429447882;-0.6501716658640917;-0.0683185479759355;0.023146731926175224;-0.1019679820536351;0;4.987801619763754
53.7315737;86.8493209;11.0;6.306791668857453;-0.542715644829161;-0.0367084735393086;-0.0013255837666972248;-0.1284796573875803;0;6.330206073860605
53.7316878;86.849307;11.0;6.114479586852772;-0.47522994896326587;-0.0305903946160905;0.003772815335984392;-0.1244009381054349;0;6.132995996629513
53.7318057;86.8493225;13.0;4.38775951814479;-0.14652274499344742;-0.0132558376669725;-0.005404303048842873;-0.0948302233098807;0;4.390225304139056
53.7319468;86.8492844;14.0;5.027145236549923;0.25680201646042566;0.003059039461609;-0.004384623228306239;-0.1060467013357805;0;5.0337010104640845
53.7321094;86.8492422;17.0;3.4860365247099354;0.5949578065816183;-0.0193739165901906;-0.013561741613133504;-0.0795350260018354;0;3.536495552360865
53.7322946;86.849197;17.0;3.2635356421627764;0.8361056010704466;-0.0356887937187723;-0.011522381972060902;-0.07545630671969;0;3.3691261706569073
53.7324659;86.8491379;17.0;4.635973076473055;0.9934176297793129;-0.0112164780258998;-0.012542061792597092;-0.0999286224125624;0;4.741228824083341
53.7326508;86.8490412;15.0;4.566530689042098;1.0749834305333852;-0.0040787192821454;-0.004384623228306239;-0.0978892627714897;0;4.691354659992741
53.7327852;86.8489196;13.0;5.413879668879966;1.2217528692038049;-0.0214132762312633;-0.024778219639033372;-0.1152238197206077;0;5.550065915907534
53.7328842;86.8487882;11.0;5.8778489953704245;1.2883283796584188;-0.023452635872336;0.002753135515448202;-0.1203222188232894;0;6.017428757562465
53.7329791;86.8486527;11.0;5.613363927277126;1.223390464294877;-0.0428265524625267;-0.01050270215152449;-0.1172631793616804;0;5.745291369615604
53.7330681;86.8485113;11.0;4.984387680524693;1.3661139356218812;-0.0056082390129499;0.00785153461813004;-0.1040073416947078;0;5.168212387974344
53.7331324;86.8483196;12.0;5.281796177912678;1.112746561973237;0.0071377587437544;0.00887121443866623;-0.1091057407973896;0;5.397742743387844
53.7331744;86.8480288;14.0;6.304239570485074;0.9732102794911588;-0.020393596410727;0.005812174977057216;-0.1274599775670439;0;6.378949028558831
53.7331878;86.8477862;14.0;5.0911748837130615;0.8699537218667406;-0.0163148771285816;-0.007953502600183127;-0.107576221066585;0;5.164992483049343
53.7332012;86.8474924;13.0;5.408894508987055;0.7344510444393444;-0.020393596410727;-0.007443662689915698;-0.113184460079535;0;5.458568864162375
53.7332077;86.8472685;12.0;5.274293133115821;0.6647717214475837;-0.0142755174875089;0.017028653002957195;-0.1080860609768532;1;5.3160411290798555
53.7332042;86.8470346;11.0;5.687295677414035;0.6609063025481834;-0.0244723156928724;0.00887121443866623;-0.116243499541144;0;5.725620329476594
53.7332085;86.8468341;12.0;5.621288956795665;0.5729399131845525;-0.0305903946160905;0.00785153461813004;-0.1152238197206077;0;5.650494266181994
53.7332171;86.8466379;13.0;3.6307922654136924;0.4173759212488497;-0.0254919955134087;0.005812174977057216;-0.0805547058223717;0;3.6547920564734557
53.7332368;86.8463248;15.0;3.939629019329896;0.3831687145766731;-0.0316100744366268;-0.002345263587233637;-0.0866727847455898;0;3.9583448903023175
53.7332514;86.8460322;17.0;3.074442498049364;0.36510428431844444;-0.037728153359845;-0.0013255837666972248;-0.0713775874375446;0;3.0962753795157885
53.7332766;86.8457502;18.0;3.0595277319132093;0.3356838275057077;-0.0520036708473539;-0.004384623228306239;-0.0713775874375446;0;3.078327135990661
53.7332918;86.8453814;18.0;3.1606111195086486;0.28393848253809595;-0.0397675130009177;-0.00846334251045211;-0.0734169470786173;0;3.173588688806101
53.7333058;86.8450626;17.0;4.141385749267622;0.018092532149750706;-0.0091771183848271;0.002753135515448202;-0.0897318242071989;0;4.141435437557657
53.7333183;86.8447935;17.0;3.4732806538790344;-0.12039419580783717;-0.0305903946160905;0.009890894259202643;-0.0774956663607627;0;3.4755012638808456
53.7333389;86.8445069;16.0;4.566918413292963;-0.23310132810732842;-0.0438462322830631;-0.003364943407770049;-0.0978892627714897;0;4.573073639788139
53.733352;86.8441872;15.0;3.898598703380972;-0.3603335282814948;-0.0397675130009177;-0.01050270215152449;-0.0866727847455898;0;3.9154174179387136
53.7333519;86.8439055;14.0;5.991715597427306;-0.4811814060689703;-0.0316100744366268;0.002753135515448202;-0.1223615784643621;0;6.011088964805467
53.7333576;86.8436808;13.0;5.251840223234235;-0.5415597736173337;-0.0382379932701131;0.004792495156520804;-0.1091057407973896;0;5.279827162219498
53.7333482;86.8434666;13.0;5.024923449548889;-0.5069845246397224;-0.0418068726419904;-0.013561741613133504;-0.1070663811563169;0;5.050607567080477
53.7333345;86.8432225;13.0;5.479112311641581;-0.4916313687049354;-0.0346691138982359;0.012949933720811546;-0.1121647802589986;0;5.501233959189113
53.7333141;86.8429973;14.0;4.18355085439595;-0.4094904226495042;-0.0326297542571632;0.017028653002957195;-0.0892219842969307;0;4.203670403162174
53.7332893;86.8427421;15.0;3.859400849764488;-0.27922637630626035;-0.0509839910268175;0.005812174977057216;-0.0846334251045171;0;3.8698244993447704
53.7332666;86.8424634;17.0;2.6191799699427545;-0.22043223000401202;-0.0499643112062812;0.0017334556949117896;-0.0632201488732537;0;2.6289143225613474
53.7332524;86.8421164;20.0;2.57897253360483;-0.12102248508683822;-0.0683185479759355;-0.00846334251045211;-0.0632201488732537;0;2.5827143076581756
53.733245;86.8416738;21.0;3.055755610356236;-0.042241585329648945;-0.0749464668094218;-0.003874783318037922;-0.0713775874375446;0;3.056966416996103
53.7333001;86.8409097;20.0;2.4696827715309584;0.07162210983614603;-0.0346691138982359;-0.008463342510451666;-0.061180789232181;0;2.470964319061023
53.7333513;86.8405001;19.0;3.1951584761187606;0.23477426680363678;-0.0346691138982359;-0.0003059039461608126;-0.0734169470786173;0;3.2039598298551177
53.7334286;86.8401934;19.0;3.1688474789539436;0.32456122890084727;-0.0132558376669725;0.006831854797593628;-0.0723972672580809;0;3.185452880425426
53.7335089;86.8399153;19.0;2.76334104526759;0.2814662490669433;-0.0193739165901906;-0.007443662689915698;-0.0662791883348628;0;2.7777063074537662
53.7336627;86.8395827;19.0;3.283377811750329;0.2854531541058576;-0.0020393596410727;-0.007443662689915698;-0.07545630671969;0;3.2957635711426736
53.7337761;86.8393377;19.0;3.529251458539111;0.2914754704304925;-0.0081574385642908;0.00887121443866623;-0.078515346181299;0;3.5412766555674593
53.7339063;86.8390327;19.0;3.6922836121675324;0.2342285951033929;-0.0183542367696543;0.006322014887325422;-0.0815743856429081;0;3.6997510977702848
53.7340629;86.8387285;17.0;3.7156974168045958;-0.08320988655407247;-0.0101967982053635;-0.013561741613133504;-0.0836137452839808;0;3.716642995118354
53.7341854;86.8384414;18.0;3.4734199212462773;0.09927406027689356;-0.0295707147955541;0.009890894259202643;-0.0774956663607627;0;3.474964131545515
53.7342324;86.838002;21.0;3.7459854688287724;0.3573297821303527;-0.0387478331803813;-0.01866014071581512;-0.0846334251045171;1;3.7631892193257857
53.7342291;86.8376147;25.0;1.6421442739680963;0.5797329782757936;-0.0173345569491179;0.005812174977057216;-0.0458855919241358;1;1.7415592523630512
53.7342578;86.8371826;26.0;2.230106194620709;0.7155303503241619;-0.0336494340776996;0.006831854797593628;-0.0560823901294993;1;2.342325683147932
53.7342848;86.8367232;25.0;2.2632291188658304;0.703385799033198;-0.0479249515652085;0.01753849291322518;-0.0560823901294993;1;2.370496662673521
53.7344164;86.8359076;25.0;2.233945322743231;0.7424279452961935;-0.058121749770572;0.027225451208320428;-0.0550627103089629;1;2.3548012860450624
53.7345556;86.8355604;26.0;0.9185054004034976;0.9326308625423805;-0.0489446313857448;-0.003364943407770049;-0.0336494340776996;1;1.3099038412335542
53.7347816;86.8352744;28.0;0.6980084504922539;1.1083217092429871;-0.0448659121035994;0.03793208932395242;-0.0285510349750178;0;1.31057459085959
53.7350036;86.8349076;34.0;-1.8076236368647172;1.2489583251124685;-0.0173345569491179;-0.012542061792597092;0.0142755174875089;0;2.1972029030757247
53.7352657;86.8344785;34.0;0.41608820001369184;1.2136533374741472;-0.0254919955134087;-0.0308962985622514;-0.0254919955134087;0;1.2832512051769231
53.7355138;86.8341122;30.0;-1.1743144825922198;1.292396634203853;-0.0122361578464362;-0.005404303048842873;0.003059039461609;0;1.7462683893623352
53.73572;86.8337808;27.0;-1.95010794919973;1.3879073682836531;0.0132558376669725;-0.045171816049760505;0.0173345569491179;0;2.3936130835413407
53.7358842;86.8334586;16.0;-1.7899654274853964;1.4669963301137332;0.1284796573875803;-0.02732741919037407;0.0142755174875089;0;2.3178786608713082
53.7359324;86.8331996;8.0;0.6151498889099716;1.531656869359146;0.0040787192821454;-0.012542061792597092;-0.0285510349750178;0;1.6505752897798975
53.7358983;86.8330375;10.0;5.570196977869476;1.7247762860954061;-0.0142755174875089;-0.0003059039461608126;-0.1152238197206077;0;5.831136372933053
53.735878;86.8327868;13.0;4.772225918576098;1.7118565793731257;-0.0270215152442132;0.0017334556949117896;-0.1009483022330988;0;5.070041748206679
53.7358409;86.8324937;12.0;4.910034215813018;1.778109280599047;-0.0071377587437544;0.01498929336188437;-0.1019679820536351;0;5.222083833280245
53.7358073;86.8323065;13.0;4.2313353130113125;1.6261713010712886;0.0163148771285816;0.020087692464565987;-0.0897318242071989;0;4.533089212312079
53.7357735;86.8320423;15.0;3.0258250587600273;1.4035712498742106;-0.0193739165901906;0.01498929336188437;-0.0693382277964719;0;3.33556665176063
53.7357246;86.8317374;21.0;2.4555405421979586;1.2624459311693121;-0.0469052717446721;0.004792495156520804;-0.0601611094116447;0;2.761457801238548
53.7356721;86.8314545;27.0;1.552496423938606;1.171260488838727;-0.0642398286937901;-0.004384623228306239;-0.0448659121035994;0;1.9458219432022812
53.7356301;86.8309261;30.0;1.7121484308804016;0.9594270100833964;-0.0489446313857448;-0.01050270215152449;-0.0479249515652085;0;1.9632493509448241
53.7355902;86.830323;32.0;0.2992684650016515;0.6643084647806556;-0.0010196798205363;0.010910574079738833;-0.0224329560517997;0;0.7286071577129974
53.7355445;86.8297397;33.0;1.653213324251941;0.2328193917652901;-0.0122361578464362;0.009890894259202643;-0.0458855919241358;0;1.6695714684388194
53.7355028;86.8291604;32.0;-0.7625427444791433;-0.2532188308600798;-0.0173345569491179;0.016008973182420783;-0.0040787192821454;0;0.8036738768459206
53.735455;86.8284982;32.0;0.08607828872375567;-0.2311922392916399;-0.0214132762312633;-0.021719180177424358;-0.0193739165901906;0;0.2476244166015329
53.7353764;86.8277796;32.0;-0.1765103537510342;0.4493600335219914;-0.0040787192821454;0.006831854797593628;-0.0142755174875089;0;0.4828011812943119
53.7352759;86.8270903;33.0;0.8296195347387716;0.5189015860878079;-0.0703579076170082;0.012949933720811546;-0.0316100744366268;0;0.9810594597825668
53.7352218;86.8265242;33.0;0.2596592738857211;0.6344619461956849;-0.0326297542571632;-0.019679820536351533;-0.0224329560517997;0;0.6863159626208317
53.7350696;86.825092;33.0;-0.06562617266860316;0.6494583894113699;-0.0458855919241358;0.0007137758743755995;-0.0163148771285816;0;0.6543764067126566
53.7349972;86.8243796;33.0;-0.39049725521736467;0.8177534467732217;0.0035688793718772;-0.0064239828693790635;-0.0107066381156316;0;0.9062127470642591
53.7348809;86.8236745;35.0;-0.4485522668583931;1.0531851319873438;0.0122361578464362;0.04659936779851115;-0.0091771183848271;0;1.14479158885006
53.7347524;86.8230852;35.0;0.6936390500280532;1.1275734590135063;-0.0356887937187723;-0.033955338023860415;-0.0305903946160905;0;1.3243227428359767
53.7346149;86.8225125;35.0;-1.9202213590338935;1.192490217292721;-0.0662791883348628;-0.013561741613133504;0.0163148771285816;0;2.2613438298576227
53.7345034;86.821761;34.0;-0.24946589660396568;1.1395984323106587;-0.0530233506678902;-0.01050270215152449;-0.0132558376669725;0;1.167788206914842
53.734448;86.8210656;34.0;-2.171499541425572;1.334932444486437;-0.0071377587437544;0.002753135515448202;0.020393596410727;0;2.549020564325421
53.7343176;86.8201928;33.0;-0.7072887417823899;1.4874588980022097;0.037728153359845;0.002753135515448202;-0.0050983991026817;0;1.6474874054310729
53.734139;86.8196814;34.0;-1.28804702127896;1.2263972074323912;0.0968695829509533;-0.009483022330988078;0.0050983991026817;0;1.7811510198533589
53.7336786;86.8192722;32.0;-3.169040925785516;1.0886744153211874;-0.0142755174875089;-0.009483022330988078;0.0382379932701131;1;3.350856034251246
53.7332649;86.8191913;31.0;-2.8763827472689094;0.9898193445072021;-0.0948302233098807;-0.022738859997960326;0.0336494340776996;1;3.0434048062654937
53.7328343;86.8189911;37.0;-3.833526413274203;1.0457161302461375;-0.003059039461609;-0.009483022330988078;0.0499643112062812;1;3.973594889272227
53.7324744;86.8187592;35.0;-0.8869254864506317;0.6914056376161359;-0.0295707147955541;-0.032935658203324225;-0.0020393596410727;1;1.1249680001744873
53.7321197;86.8185581;35.0;-2.6995896600488463;0.3716594004628706;-0.0101967982053635;-0.0308962985622514;0.0305903946160905;1;2.7250722957911973
53.7317807;86.8183215;35.0;-0.13346107659503825;0.43851859689991257;-0.0387478331803813;-0.01050270215152449;-0.0152951973080452;1;0.4600128404394266
53.7314477;86.8181165;35.0;-2.8929474698733864;0.6161025550624508;-0.0316100744366268;-0.01764046089527893;0.0336494340776996;1;2.957993681299403
53.7311262;86.8178462;34.0;-2.77266475288067;0.8104986186446128;-0.0081574385642908;0.044560008157438435;0.0295707147955541;1;2.8887098134799873
53.7308091;86.8176059;33.0;-1.115609830832667;0.351217763949464;-0.037728153359845;-0.009992862241256173;0.0020393596410727;1;1.1701976866837915
53.7304813;86.8174061;34.0;-1.6312881581251046;-0.4953397664956247;-0.0326297542571632;0.07515040277352925;0.0101967982053635;1;1.70514727808891
53.7301771;86.8171019;33.0;-1.566749986925855;-1.2975516002206096;-0.1366370959518711;-0.021719180177424358;0.0101967982053635;1;2.0388760072052916
53.729864;86.8166352;33.0;-2.4428632212446564;-1.729783229134576;-0.1070663811563169;0.013969613541347958;0.0249821556031406;1;2.9951951434721193
53.7297086;86.8161214;34.0;0.16851604655188201;-1.709129109970617;0.0086672784745589;-0.024778219639033372;-0.0209034363209952;1;1.717438527054341
53.7295598;86.815563;36.0;-0.6510895957597944;-1.534970037821589;-0.023452635872336;-0.004384623228306239;-0.0061180789232181;1;1.6675133297356346
53.7293874;86.814981;37.0;-2.805617030577136;-1.6124956784570905;-0.0356887937187723;0.030284490669929554;0.0305903946160905;1;3.236186478759276
53.7291877;86.8142437;35.0;-3.880881155191312;-2.3948584610731283;-0.0729071071683491;-0.01050270215152449;0.0509839910268175;1;4.560910110445969
53.7290533;86.8137253;33.0;-1.5212764244318726;-2.333509188393613;-0.020393596410727;-0.00846334251045211;0.0091771183848271;1;2.7856710126330793
53.7288835;86.8130435;34.0;0.1468726787032244;-2.3654267321181113;0.0081574385642908;-0.01866014071581512;-0.020393596410727;1;2.3699961503285945
53.7287353;86.8125113;31.0;-0.9419736736979553;-2.265649904624013;-0.1458142143366982;0.003772815335984392;-0.0010196798205363;1;2.457996272854263
53.7285913;86.8118553;29.0;-2.8504076359729584;-1.9197136530787842;-0.1804833282349342;-0.025797899459569784;0.0336494340776996;1;3.4413221925301904
53.7286655;86.8113151;26.0;0.32161358065788304;-1.5167197553914522;-0.2120934026715611;0.005812174977057216;-0.023452635872336;1;1.56488265474287
53.7289099;86.8111499;24.0;0.2857296257973341;-1.02668339257335;-0.0764759865402263;0.026205771387784238;-0.0219231161415315;1;1.0684422231274413
53.7291686;86.8111014;28.0;1.460579119477773;-0.4652400980703941;0.0152951973080452;0.027225451208320428;-0.0418068726419904;0;1.5329623792408307
53.7294587;86.8110075;29.0;2.785049373105687;0.20336036359560072;0.0356887937187723;-0.016620781074742297;-0.0672988681553992;0;2.792692095114536
53.729737;86.8107994;30.0;-1.1174024261168776;0.46890295860539166;-0.0107066381156316;0.004792495156520804;0.0020393596410727;0;1.2118468544253076
53.7300383;86.8106399;32.0;-1.6987979454655313;0.5436334607376094;-0.0887121443866625;0.0007137758743755995;0.0122361578464362;0;1.7858671965499395
53.7304579;86.8104963;33.0;1.2551385226931875;0.9498696209113531;-0.0438462322830631;0.017028653002957195;-0.0387478331803813;0;1.574657899343262
53.7307842;86.8103618;35.0;-0.9407334578922776;1.1025333090263667;-0.0387478331803813;0.01498929336188437;-0.0010196798205363;1;1.4498484510067822
53.7312098;86.810173;29.0;-2.0728642655805114;1.4220933036203833;0.1417354950545528;-0.024778219639033372;0.0193739165901906;1;2.517777706288013
53.7314808;86.809932;27.0;-2.559048322934285;1.5708709521600435;0.0061180789232181;-0.011522381972060902;0.0275313551544814;1;3.0027323054749133
53.7316615;86.8095239;25.0;-1.6944755206128481;1.9144271434078137;0.0448659121035994;-0.008463342510451666;0.0122361578464362;1;2.5570083158726082
53.7317786;86.809129;19.0;0.662579928768914;2.391604279823624;0.0662791883348628;-0.016620781074742297;-0.0295707147955541;1;2.4825744951731905
53.7318066;86.808773;14.0;4.880374327263917;2.3328755857042975;-0.0112164780258998;-0.019679820536351533;-0.1050270215152442;1;5.4092964313273875
53.7318147;86.8084995;13.0;6.314267719291755;1.961964947159757;-0.0112164780258998;0.01498929336188437;-0.1264402977465075;1;6.612065418169484
53.7318169;86.8082969;13.0;5.409557503823272;1.492376738624957;0.0015295197308045;-0.016620781074742297;-0.1142041399000713;1;5.6116399614186
53.7318104;86.80806;15.0;2.9041810634056713;1.3171331535665511;-0.0387478331803813;-0.0003059039461608126;-0.0683185479759355;1;3.1891391922969494
53.7318017;86.8077441;19.0;2.2703893871653893;1.4522043275782477;-0.078515346181299;0.003772815335984392;-0.0571020699500356;1;2.69624369039154
53.7317811;86.8073651;23.0;-1.3556913017581933;1.7574257586153301;-0.0836137452839808;0.018048332823493385;0.0061180789232181;0;2.221133823322653
53.7317606;86.806935;23.0;-2.312690920672593;2.0109601779760253;-0.0428265524625267;-0.0003059039461608126;0.0229427959620679;0;3.0650178214102834
53.7317411;86.8065059;24.0;-2.3697418647324273;1.6056315825973833;-0.0387478331803813;-0.022738859997960326;0.0244723156928724;0;2.862731331975789
53.7317588;86.805986;28.0;-4.812330018899777;0.8164934385998133;0.0305903946160904;-0.009483022330988078;0.0672988681553991;0;4.881200417758243
53.7317633;86.8053249;23.0;-4.863124559246321;0.12298526103621232;-0.020393596410727;-0.011522381972060902;0.0683185479759355;0;4.864722165956802
53.7317531;86.8049307;22.0;-4.3698549239231905;0.05990202643003073;-0.003059039461609;-0.004384623228306239;0.0591414295911083;0;4.37026654411703
53.7317248;86.804544;19.0;-4.751570026583762;-0.37011331536954906;-0.0091771183848271;0.004792495156520804;0.0652595085143265;0;4.76597165363422
53.7317128;86.8042504;20.0;-3.3207045781959947;-0.3412813238358039;-0.0061180789232181;-0.0064239828693790635;0.040787192821454;0;3.338201502087714
53.7316719;86.8039279;20.0;-5.276903808243018;0.09132403791276156;0.0025491995513409;-0.00897318242071976;0.07545630671969;0;5.277694608422196
53.7316078;86.8034798;22.0;-6.100784984456031;0.07526032307590391;0.0367084735393086;0.006831854797593628;0.0887121443866625;0;6.101359607073103
53.7315369;86.8031273;21.0;-3.533776878201225;-0.20003092831585212;-0.0254919955134087;-0.013561741613133504;0.0448659121035994;0;3.539525566940823
53.7314465;86.8027297;22.0;-3.7593048478818583;-0.3981606306596408;-0.0438462322830631;-0.014581421433669917;0.0489446313857448;0;3.7805855788754132
53.7313669;86.8023685;21.0;-3.8639413295947027;-0.5951039325664529;-0.0703579076170082;0.024166411746711636;0.0489446313857448;0;3.910133184978535
53.7312565;86.8020277;22.0;-4.415529569378309;-0.7351969435949011;-0.1244009381054349;-0.0003059039461608126;0.0601611094116447;1;4.478045501926816
53.7310526;86.8013118;26.0;-4.0168607743847495;-1.0283147014082523;-0.1947588457224431;0.012949933720811546;0.0530233506678902;1;4.150967671990512
53.7310954;86.800817;21.0;0.1629742437970052;-1.2826831898796565;-0.1345977363107984;-0.046191495870296695;-0.0214132762312633;1;1.2999820461687337
53.7311991;86.8005367;18.0;-0.12400830831391685;-1.305977151568288;0.0071377587437544;-0.0003059039461608126;-0.0152951973080452;0;1.3118709267870765
53.7313003;86.8003051;18.0;-1.3471917142711045;-1.1140592261960731;-0.0173345569491179;-0.009483022330988078;0.0061180789232181;0;1.7482431070471671
53.7315083;86.7996171;21.0;-3.3516569801957004;-1.1201727639888799;-0.0050983991026817;0.006831854797593628;0.040787192821454;0;3.5338955173788684
53.731512;86.7992112;22.0;-1.058263001423418;-0.9072761419455042;0.0285510349750178;-0.002345263587233637;0.0010196798205363;0;1.3942330291322769
53.7314317;86.7988493;25.0;-1.7006707081026868;-0.8636482778177248;-0.0499643112062812;0.0007137758743755995;0.0122361578464362;0;1.9080528393025007
53.7313328;86.7984176;29.0;-1.5177663523420746;-0.5313087050918042;-0.1498929336188436;-0.004384623228306239;0.0091771183848271;1;1.6150453652937922
53.7313313;86.7979041;28.0;-1.8741989227754552;-0.5540555086792391;-0.0907515040277353;0.0017334556949117896;0.0152951973080452;1;1.9564853549959895
53.731397;86.7973298;27.0;0.5481568629452012;-0.3575031845877481;-0.0010196798205363;0.019068012644029797;-0.0265116753339451;0;0.6544352627504434
53.7314264;86.7968472;27.0;-0.7098069364385569;-0.22604804326704508;0.0198837565004588;-0.0064239828693790635;-0.0050983991026817;0;0.7451972682811705
53.7314367;86.7962175;28.0;0.17389936085207003;-0.09853461509693329;0.0071377587437544;0.004792495156520804;-0.020393596410727;0;0.20000251417655554
53.7314187;86.7955851;28.0;0.18468774948961908;-0.07467857544135903;-0.0520036708473539;-0.009483022330988078;-0.0209034363209951;0;0.20589034999992342
53.7313871;86.7949647;27.0;0.4962849857056091;-0.1655649977432656;-0.0275313551544814;-0.014581421433669917;-0.0265116753339451;1;0.5238974432378787
53.7312844;86.7944012;26.0;2.041700919430855;-0.6977350347243751;0.0010196798205363;-0.007443662689915254;-0.0535331905781584;0;2.1576324670419567
53.7310886;86.7938982;28.0;1.3377597936389432;-0.9585855478855017;-0.0693382277964719;-0.021719180177424358;-0.0418068726419904;0;1.647208337741711
53.7308709;86.7935525;28.0;2.3939507818098527;-0.7724015615423458;-0.0652595085143265;0.02212705210563881;-0.058121749770572;0;2.516319399729015
53.7306624;86.7932416;27.0;-1.11401526215111;-0.6421396097094605;-0.0469052717446721;-0.02375853981849696;0.0020393596410727;1;1.286690866984322
53.7304585;86.7929097;27.0;1.519856165485661;-0.49021800935508697;-0.0999286224125624;-0.014581421433669917;-0.0448659121035994;1;1.6000819322891293
53.7302761;86.7925737;25.0;0.3568840476955155;0.09339658405038875;-0.0509839910268175;-0.03191597838278781;-0.0244723156928724;1;0.37240906642137345
53.73013;86.7922228;22.0;2.258121926763288;0.33103665552748707;-0.1407158152340165;0.006831854797593628;-0.0571020699500356;1;2.2865915341592915
53.729923;86.7917854;11.0;5.60165595582309;0.2149267962912389;-0.0142755174875089;0.02212705210563881;-0.113184460079535;0;5.6057958191118455
53.7298572;86.7916428;12.0;5.719831144287787;0.08605250170903123;-0.0081574385642908;0.004792495156520804;-0.1172631793616804;0;5.720484236148095
53.7297874;86.791445;13.0;5.089549612518792;0.416523902605755;-0.0132558376669725;0.025186091567248048;-0.1040073416947078;0;5.106582334297996
53.7297125;86.7912677;14.0;4.502110301218152;0.5107815485378868;-0.009177118384827;-0.0003059039461608126;-0.0963597430406851;0;4.531002005535112
53.7296105;86.7909865;15.0;3.54312762362832;0.8201771907801128;0.0101967982053635;0.011930253900275356;-0.078515346181299;0;3.636832131991751
53.7295087;86.7907567;18.0;3.6751855991211313;0.895702102742723;-0.0061180789232181;0.01498929336188437;-0.0805547058223717;0;3.782764713240145
53.7293763;86.7904707;21.0;1.851557628556931;1.2178612733232073;0.0387478331803813;-0.002345263587233637;-0.0499643112062812;0;2.216518244342682
53.7292318;86.7901982;22.0;0.5196968601814465;1.4957218592091999;-0.0071377587437544;0.0007137758743755995;-0.0265116753339451;0;1.5834518161909958
53.7290439;86.7899591;26.0;-0.5430655333308669;1.4494160682647566;-0.0152951973080452;-0.022738859997960326;-0.0081574385642908;0;1.5478892258481214
53.7285902;86.7894542;26.0;-0.8872145438899984;1.4470506004079633;-0.0050983991026817;-0.03599469766493324;-0.0020393596410727;1;1.6973894899828958
53.7279744;86.7890432;25.0;0.2629478516219743;1.5807913350687262;0.0214132762312633;0.005812174977057216;-0.0219231161415315;1;1.6026544687174256
53.7274336;86.7889632;25.0;-3.7169518062824167;1.345178117048793;-0.0560823901294993;0.06699296420923839;0.0443560721933312;1;3.9532746086372113
53.7271761;86.7889873;27.0;-3.7831877467375272;1.3255401202074704;-0.0275313551544814;-0.0064239828693792855;0.0489446313857448;1;4.008780876134445
53.7268435;86.7890131;27.0;-4.089791998909666;1.0081707612267081;-0.0418068726419904;-0.0003059039461608126;0.0540430304884266;1;4.212428597939444
53.7265541;86.7890053;27.0;-6.344584197379231;0.6815858612174095;-0.0142755174875089;-0.013561741613133504;0.0948302233098807;0;6.381105837881494
53.7262525;86.7890109;28.0;-2.3522119039176137;0.6778020480908622;-0.0825940654634444;0.009890894259202643;0.023452635872336;1;2.4493138298261563
53.7258976;86.7889888;26.0;-1.5682308349014056;0.3511574226772052;0.0244723156928724;-0.027837259100642386;0.0101967982053635;1;1.6072518101629962
53.725626;86.7889732;27.0;-1.2823807009610815;0.08695421731508435;-0.0326297542571632;-0.033955338023860415;0.0050983991026817;1;1.2857394755428475
53.7253435;86.7890235;27.0;0.13374239361413198;0.01085378865128006;-0.0122361578464362;0.0211073722851024;-0.0193739165901906;1;0.1347388442007982
53.7250858;86.7891498;25.0;2.3257044186428746;-0.14565235984863767;-0.0734169470786173;0.020087692464565987;-0.0571020699500356;1;2.331417101451993
53.7248564;86.7893556;26.0;5.252468655717391;-0.22221268972467678;-0.0336494340776996;0.07922912205567456;-0.1009483022330988;1;5.25727474488276
53.7246342;86.7896198;25.0;2.246132083473428;-0.40223360807826136;-0.0010196798205363;-0.024778219639033372;-0.058121749770572;1;2.2818637671042667
53.7244333;86.7899309;27.0;1.6649741925362478;-0.5181342069778152;-0.0224329560517997;-0.05128989497297831;-0.0489446313857448;1;1.7438765311137947
53.7241705;86.7903849;30.0;-2.0558457282923595;-0.5744450455197159;-0.058121749770572;0.005812174977057216;0.0183542367696543;0;2.1353844868445786
53.723964;86.7907928;30.0;-1.3525374974902538;-0.4932229635367005;-0.0163148771285816;0.005812174977057216;0.0061180789232181;0;1.4397544058251202
53.72357;86.7916788;29.0;-3.1175880820451227;-0.5593970911708284;-0.0571020699500356;0.00887121443866623;0.0367084735393086;0;3.167892233222707
53.7233892;86.7920612;23.0;-5.086069924099095;-0.4778904173614551;-0.0968695829509534;0.06291424492709285;0.0672988681553992;1;5.109390398074155
53.7232592;86.7923408;16.0;0.9769711853553169;-0.5291670997335882;-0.0050983991026817;0.025186091567248048;-0.0336494340776996;1;1.1110879848726833
53.7231945;86.7925577;18.0;-3.5195992242517087;-0.4013216277511864;-0.1040073416947078;0.03232385031100238;0.0428265524625267;1;3.5439321770288563
53.7231169;86.7928385;20.0;-1.9285350374965526;-0.5556009282291927;-0.020393596410727;-0.0064239828693790635;0.0163148771285816;1;2.0070764014046736
53.7229942;86.7931254;23.0;-0.09437913614690241;-0.33943372529700033;-0.0316100744366268;-0.096155807076578;-0.0173345569491179;1;0.3537257016598089
53.722849;86.7934922;25.0;-5.180098843915169;-0.23623922479827497;-0.0703579076170082;-0.08595900887121433;0.0795350260018354;1;5.185960204169407
53.7226791;86.7938087;24.0;-0.6186151845604941;-0.02690127747014115;-0.0591414295911083;-0.07066381156316925;-0.0071377587437544;1;0.6220177923439326
53.7225167;86.7941839;25.0;-0.38947935594325134;-0.01599421562245329;-0.0214132762312633;-0.10023452635872343;-0.011726317936168;1;0.39039532788995285
53.7223538;86.794533;23.0;-1.4710627412329318;0.1344215504253572;-0.0071377587437544;0.00785153461813004;0.0081574385642908;1;1.4772087494536406
53.7222003;86.7948147;20.0;-4.924661870803424;0.4874267115207289;-0.0188640766799225;-0.01050270215152449;0.0693382277964718;1;4.94876097566229
53.7219763;86.7950259;20.0;-5.297456600299705;0.8488711641598168;-0.0112164780258998;-0.01764046089527893;0.0764759865402263;1;5.365049346910078
53.7217824;86.7951136;19.0;-2.359881125954275;0.9564773218636575;-0.0010196798205363;-0.0308962985622514;0.0244723156928724;1;2.546348137160673
53.7215928;86.7952312;16.0;-10.05088918738715;1.3911664571819133;-0.023452635872336;-0.04313245640868768;0.1662078107474253;1;10.146736795386651
53.7214274;86.7953474;9.0;-3.6493578220639424;1.6511389270112877;-0.0387478331803813;-0.03497501784439683;0.0479249515652085;1;4.005692657247613
53.7213551;86.7954031;9.0;-2.401425849163171;1.1957915998383726;-0.0061180789232181;-0.0003059039461608126;0.0244723156928724;1;2.682685425122145
53.7212585;86.7954345;4.0;-5.728965973948574;1.1399113096539448;-0.0265116753339451;-0.022738859997960326;0.0846334251045171;1;5.841331337414999
53.7212277;86.7954293;1.0;-4.4029939348169975;0.7755014367349211;-0.0071377587437544;-0.0288569389211788;0.061180789232181;1;4.470772753787993
53.7212147;86.7954163;1.0;0.2467005231369206;0.7575278379570851;-0.0050983991026817;0.06291424492709285;-0.020393596410727;1;0.7967029352709681
53.7212128;86.7954144;1.0;-1.8109935113198836;0.7341826730536023;-0.0061180789232181;-0.008463342510451666;0.0142755174875089;1;1.9541645596890158
53.7212105;86.7953865;1.0;-2.7251992593104015;0.7057533088421404;-0.0081574385642908;-0.015601101254206107;0.0305903946160905;1;2.815113724113383
53.721206;86.7954076;1.0;-1.5545462948024618;0.5480536408974117;-0.0045885591924135;-0.0008157438564291297;0.0096869582950953;1;1.6483318934184443
53.72120385;86.79540545;2.0;-5.6139615442541375;0.7744256324700551;-0.0127459977567043;-0.020189660446620072;0.0823391455083103;1;5.667138761407714
53.7212465;86.7953713;6.0;-6.067545283383599;0.8944373186667258;-0.0367084735393086;-0.022738859997960326;0.0907515040277353;1;6.133226833809742
53.7213136;86.7953616;9.0;-5.462914718713237;0.7661513958567878;-0.0591414295911083;0.00887121443866623;0.0774956663607627;1;5.516694924862269
53.721392;86.7953632;5.0;-0.709556899237272;0.6457694493426755;-0.0265116753339451;-0.005404303048842873;-0.0050983991026817;1;0.9597874993396024
53.7214139;86.7953595;8.0;-2.495803290685374;0.5025432239769003;-0.1034975017844396;-0.009992862241256173;0.0265116753339451;1;2.54799833018718
53.7213275;86.7952987;12.0;-3.9189011677492664;0.5723288843947034;-0.1223615784643621;-0.012542061792597092;0.0520036708473539;1;3.962362814077396
53.7212177;86.7951633;15.0;-5.13405927377362;0.47882210191724206;0.0356887937187723;0.027225451208320428;0.0703579076170082;1;5.1564628304587306
53.7210795;86.7950507;19.0;-4.175758736009751;0.654303368394749;0.0224329560517997;0.00785153461813004;0.0550627103089629;1;4.226769115621492
53.7208943;86.7949679;20.0;-6.228244635631288;0.6357233258835686;0.0224329560517997;0.10879983685122874;0.0815743856429081;1;6.260645224404558
53.720678;86.7949052;19.0;-5.60347253377205;0.5193587834328202;0.003059039461609;0.01855817273376159;0.0790251860915672;1;5.62749032343806
53.7204518;86.7947558;20.0;-3.589753119076879;0.18816880247456158;0.0050983991026817;-0.03701437748546965;0.0469052717446721;1;3.5946850971705855
53.7202367;86.7946943;22.0;-8.251239729326898;0.20701496176205159;-0.0387478331803813;-0.04109309676761508;0.1325583766697257;1;8.253927165888499
53.7200081;86.7946449;23.0;-5.851974943676154;0.11553754922020554;-0.0020393596410727;0.01498929336188437;0.0836137452839808;1;5.853115736569805
53.7197057;86.7944961;17.0;-0.17002637992303704;0.05970170147313203;-0.1040073416947078;0.020087692464565987;-0.0142755174875089;1;0.20806438944451694
53.7195429;86.7943845;18.0;2.963970877349348;-0.0009891374473394166;-0.0825940654634444;0.03232385031100238;-0.0672988681553992;1;2.965121602871918
53.7193418;86.794209;19.0;-0.5212262257382837;-0.20605294521407824;-0.0265116753339451;0.024166411746711636;-0.0081574385642908;1;0.5611037903612706
53.7191366;86.794055;20.0;-0.6803233700545419;-0.5449498807069628;-0.0163148771285816;0.086366880799429;-0.0050983991026817;1;0.8718236263950541
53.7188866;86.7939074;17.0;-0.3331307660361822;-0.5235645186936524;0.0132558376669725;0.08024880187621075;-0.0107066381156317;1;0.6207025291933509
53.7186262;86.7938262;15.0;-1.2277160392732103;-0.7712538732240946;-0.0713775874375446;-0.02375853981849696;0.0040787192821454;1;1.4516245968018973
53.7184274;86.7937298;16.0;0.4857888851289345;-1.191100094497858;-0.0479249515652085;-0.0013255837666972248;-0.0260018354236769;1;1.2872478692971867
53.718268;86.793724;18.0;2.801513467540158;-0.9577658760017438;-0.1264402977465075;-0.05128989497297831;-0.0703579076170082;1;2.9634068790728847
53.7180704;86.7937568;21.0;2.141409614317704;-1.2351760896907762;-0.1019679820536351;0.020597532374834415;-0.0540430304884266;1;2.4742054438142733
53.7178423;86.7937335;21.0;-0.2222853421098241;-1.4099128213497143;-0.0708677475272764;-0.04925053533190571;-0.0142755174875089;1;1.4290861327305582
53.7176503;86.7936695;19.0;3.8729057084323326;-1.5143994852550309;0.0142755174875089;0.031304170490465966;-0.0825940654634444;1;4.158486289234099
53.7174346;86.793633;20.0;1.4554365319129183;-1.1348979838583504;-0.0836137452839808;0.004792495156520804;-0.0428265524625267;1;1.8475064791748004
53.7171641;86.7935929;22.0;-0.3467042145043864;-1.0664356391095118;-0.0550627103089629;-0.07168349138370544;-0.0122361578464362;1;1.1227291244038275
53.7168514;86.7935362;24.0;3.301817188527731;-0.9204191941013078;-0.0530233506678902;-0.0288569389211788;-0.0774956663607627;1;3.4281160591560087
53.7165952;86.7934848;26.0;-0.3863377396853672;-0.9710628119652926;-0.0469052717446721;0.04914856734985218;-0.0101967982053635;1;1.0461452759557734
53.7163531;86.7933707;23.0;-1.485467120412331;-0.835359176664356;-0.0173345569491179;0.037422249413683994;0.0081574385642908;1;1.7043291955276938
53.7161073;86.7933809;21.0;-3.378166986468739;-0.8105901199338201;0.0112164780258998;0.04252064851636583;0.0397675130009177;1;3.474074602017192
53.7158914;86.7933954;21.0;-2.268010876829154;-0.6071558233316408;-0.0672988681553992;-0.05740797389619656;0.023452635872336;1;2.3488381529760343
53.7156548;86.7934404;22.0;2.0076650253865567;-0.6473580702137025;-0.0672988681553992;0.10981951667176504;-0.0469052717446721;1;2.1105261104488164
53.7154054;86.7933446;22.0;1.9784591135542158;-0.7634875356580064;-0.0805547058223717;0.003772815335984392;-0.0520036708473539;1;2.1221929087010443
53.7152033;86.7932193;18.0;2.7819985131057514;-0.9312593729959682;-0.1600897318242072;-0.005404303048842873;-0.0672988681553992;1;2.938092658333124
53.7150433;86.7931105;17.0;2.434846287692926;-1.1037746116179243;0.0020393596410727;0.04863872743958397;-0.0571020699500356;1;2.6733497707804843
53.7149018;86.7929178;18.0;5.186096206563239;-1.3175489337779478;0.0193739165901906;-0.0064239828693790635;-0.1091057407973896;1;5.350878844196818
53.7147442;86.7927346;19.0;7.039160082496883;-1.5052061722235228;0.0193739165901906;0.12664423371061484;-0.1233812582848985;1;7.19831894518167
53.7145729;86.7926657;15.0;3.3691256312763382;-1.651876174842008;-0.1101254206179259;-0.021719180177424358;-0.078515346181299;1;3.753908632958469
53.7144136;86.7926344;15.0;4.679865053837373;-1.742688789520813;-0.0509839910268175;0.006831854797593628;-0.0989089425920261;1;4.99406653005252
53.7142445;86.7926445;13.0;3.2178249362958216;-1.7627738641473432;-0.0244723156928724;0.004792495156520804;-0.0734169470786173;1;3.6691099616941893
53.7140942;86.7926734;13.0;2.4056730648791262;-1.697261246609005;-0.0683185479759355;-0.025797899459569784;-0.061180789232181;1;2.944932267187689
53.7138897;86.7926737;14.0;-0.6420530150658024;-1.5312807847932128;-0.1366370959518711;0.030284490669929554;-0.0061180789232181;1;1.6660500028577072
53.7137672;86.7925256;14.0;-2.356468999530062;-1.2499623265873678;-0.0683185479759355;0.011930253900275356;0.023452635872336;1;2.6683364457338317
53.7137424;86.7922704;13.0;-1.861018399836678;-0.8384357198788823;-0.1167533394514122;0.023146731926175224;0.014785357397777;1;2.0445036764879014
53.7138108;86.7921084;6.0;-5.1299638034068975;-0.28183081255516296;0.0091771183848271;0.0680126440297748;0.0672988681553992;1;5.137707801215666
53.7138836;86.7920788;1.0;-5.633657245015474;0.43472254749638406;-0.0214132762312633;-0.012542061792597092;0.0820842255531763;1;5.6504456617169625
53.7138645;86.7921365;6.0;-1.234639679212068;1.3260945123883543;0.0387478331803813;0.004792495156520804;0.0040787192821454;1;1.8122812110286746
53.7138068;86.792258;6.0;3.5145795349475923;2.4071552342333256;-0.020393596410727;0.005812174977057216;-0.078515346181299;1;4.25993914603764
